trial_count,blockType,blockNum,delay_time,stimImage_i,stimImage,responseImage1,responseImage1_i,responseImage1_pos,responseImage1_X,responseImage1_Y,responseImage2,responseImage2_i,responseImage2_pos,responseImage2_X,responseImage2_Y,responseImage3,responseImage3_i,responseImage3_pos,responseImage3_X,responseImage3_Y,cue_onset,cue_dur,delay_onset,delay_dur,resp_onset,resp_dur,rest_onset,rest_dur,circle_dur,circle_onset,total_dur,cross_onset,cross_dur,delay_resp_period,blocks.thisRepN,blocks.thisTrialN,blocks.thisN,blocks.thisIndex,trials.thisRepN,trials.thisTrialN,trials.thisN,trials.thisIndex,key_resp.started,text.started,key_resp.keys,key_resp.rt,text_2.started,text_2.stopped,sample.started,Delay.started,sample.stopped,Delay.stopped,Response_1.started,Response_2.started,Response_3.started,polygon.started,Response_1.stopped,Response_2.stopped,Response_3.stopped,polygon.stopped,participant,session,date,expName,psychopyVersion,frameRate,
,,,,,,,,,,,,,,,,,,,,,,,,,,,,,,,,,,,,,,,,,,,88.22887945803814,88.22887945803814,t,28.538942791055888,,,,,,,,,,,,,,,100001,001,2023-03-31_09h52.14.461,DMS_et_12-36,2022.2.4,None,
6,PRED,12,0.7292999756722155,1,images/picture_2.png,images/picture_1.png,0,"[-11.733433509789462, 11.733433509789464]",-11.733433509789462,11.733433509789464,images/picture_2.png,1,"[11.733433509789462, -11.733433509789466]",11.733433509789462,-11.733433509789464,images/picture_3.png,2,"[11.733433509789464, 11.733433509789462]",11.733433509789464,11.733433509789462,0,1,1,0.7292999756722155,1.7292999756722156,1.2707000243277844,3.0,1,1.4792999756722156,0,4.0,3.0,1,2,0,0,0,0,0,0,0,6,,,,,117.29176062485203,129.3230825830251,129.3230825830251,129.3230825830251,130.32969891582616,130.81540158297867,131.04853891581297,131.04853891581297,131.04853891581297,132.316386874998,132.3300224998966,132.3300224998966,132.3300224998966,133.32954574981704,100001,001,2023-03-31_09h52.14.461,DMS_et_12-36,2022.2.4,None,
3,PRED,12,0.7292999756722155,1,images/picture_2.png,images/picture_1.png,0,"[-11.733433509789466, -11.733433509789462]",-11.733433509789464,-11.733433509789462,images/picture_2.png,1,"[-11.733433509789462, 11.733433509789464]",-11.733433509789462,11.733433509789464,images/picture_3.png,2,"[11.733433509789462, -11.733433509789466]",11.733433509789462,-11.733433509789464,0,1,1,0.7292999756722155,1.7292999756722156,1.2707000243277844,3.0,1,1.4792999756722156,0,4.0,3.0,1,2,0,0,0,0,0,1,1,3,,,,,,,133.32954574981704,133.32954574981704,134.33019529096782,134.81590229086578,135.04937649983913,135.04937649983913,135.04937649983913,136.32994533283636,136.32994533283636,136.32994533283636,136.32994533283636,137.32911045802757,100001,001,2023-03-31_09h52.14.461,DMS_et_12-36,2022.2.4,None,
2,PRED,12,0.7292999756722155,1,images/picture_2.png,images/picture_1.png,0,"[-11.733433509789462, 11.733433509789464]",-11.733433509789462,11.733433509789464,images/picture_2.png,1,"[-11.733433509789466, -11.733433509789462]",-11.733433509789464,-11.733433509789462,images/picture_3.png,2,"[11.733433509789462, -11.733433509789466]",11.733433509789462,-11.733433509789464,0,1,1,0.7292999756722155,1.7292999756722156,1.2707000243277844,3.0,1,1.4792999756722156,0,4.0,3.0,1,2,0,0,0,0,0,2,2,2,,,,,,,137.32911045802757,137.32911045802757,138.33017937489785,138.81611879100092,139.049747165991,139.049747165991,139.049747165991,140.32977629103698,140.32977629103698,140.32977629103698,140.32977629103698,141.3298148328904,100001,001,2023-03-31_09h52.14.461,DMS_et_12-36,2022.2.4,None,
4,PRED,12,0.7292999756722155,1,images/picture_2.png,images/picture_1.png,0,"[-11.733433509789466, -11.733433509789462]",-11.733433509789464,-11.733433509789462,images/picture_2.png,1,"[11.733433509789462, -11.733433509789466]",11.733433509789462,-11.733433509789464,images/picture_3.png,2,"[11.733433509789464, 11.733433509789462]",11.733433509789464,11.733433509789462,0,1,1,0.7292999756722155,1.7292999756722156,1.2707000243277844,3.0,1,1.4792999756722156,0,4.0,3.0,1,2,0,0,0,0,0,3,3,4,,,,,,,141.3298148328904,141.3298148328904,142.330261540832,142.81597762485035,143.04932824987918,143.04932824987918,143.04932824987918,144.33019362483174,144.33019362483174,144.33019362483174,144.33019362483174,145.32964779087342,100001,001,2023-03-31_09h52.14.461,DMS_et_12-36,2022.2.4,None,
8,PRED,12,0.7292999756722155,1,images/picture_2.png,images/picture_1.png,0,"[-11.733433509789462, 11.733433509789464]",-11.733433509789462,11.733433509789464,images/picture_2.png,1,"[11.733433509789462, -11.733433509789466]",11.733433509789462,-11.733433509789464,images/picture_3.png,2,"[-11.733433509789466, -11.733433509789462]",-11.733433509789464,-11.733433509789462,0,1,1,0.7292999756722155,1.7292999756722156,1.2707000243277844,3.0,1,1.4792999756722156,0,4.0,3.0,1,2,0,0,0,0,0,4,4,8,,,,,,,145.32964779087342,145.32964779087342,146.33015712490305,146.81591329094954,147.0492049998138,147.0492049998138,147.0492049998138,148.33016533288173,148.33016533288173,148.33016533288173,148.33016533288173,149.32989216595888,100001,001,2023-03-31_09h52.14.461,DMS_et_12-36,2022.2.4,None,
7,PRED,12,0.7292999756722155,1,images/picture_2.png,images/picture_1.png,0,"[11.733433509789464, 11.733433509789462]",11.733433509789464,11.733433509789462,images/picture_2.png,1,"[-11.733433509789466, -11.733433509789462]",-11.733433509789464,-11.733433509789462,images/picture_3.png,2,"[11.733433509789462, -11.733433509789466]",11.733433509789462,-11.733433509789464,0,1,1,0.7292999756722155,1.7292999756722156,1.2707000243277844,3.0,1,1.4792999756722156,0,4.0,3.0,1,2,0,0,0,0,0,5,5,7,,,,,,,149.32989216595888,149.32989216595888,150.32994808303192,150.8153105408419,151.04874362493865,151.04874362493865,151.04874362493865,152.3301794580184,152.3301794580184,152.3301794580184,152.3301794580184,153.3296302498784,100001,001,2023-03-31_09h52.14.461,DMS_et_12-36,2022.2.4,None,
1,PRED,12,0.7292999756722155,1,images/picture_2.png,images/picture_1.png,0,"[11.733433509789462, -11.733433509789466]",11.733433509789462,-11.733433509789464,images/picture_2.png,1,"[11.733433509789464, 11.733433509789462]",11.733433509789464,11.733433509789462,images/picture_3.png,2,"[-11.733433509789462, 11.733433509789464]",-11.733433509789462,11.733433509789464,0,1,1,0.7292999756722155,1.7292999756722156,1.2707000243277844,3.0,1,1.4792999756722156,0,4.0,3.0,1,2,0,0,0,0,0,6,6,1,,,,,,,153.3296302498784,153.3296302498784,154.3303246658761,154.8160537078511,155.049374749884,155.049374749884,155.049374749884,156.330153665971,156.330153665971,156.330153665971,156.330153665971,157.3295596248936,100001,001,2023-03-31_09h52.14.461,DMS_et_12-36,2022.2.4,None,
0,PRED,12,0.7292999756722155,1,images/picture_2.png,images/picture_1.png,0,"[11.733433509789464, 11.733433509789462]",11.733433509789464,11.733433509789462,images/picture_2.png,1,"[11.733433509789462, -11.733433509789466]",11.733433509789462,-11.733433509789464,images/picture_3.png,2,"[-11.733433509789466, -11.733433509789462]",-11.733433509789464,-11.733433509789462,0,1,1,0.7292999756722155,1.7292999756722156,1.2707000243277844,3.0,1,1.4792999756722156,0,4.0,3.0,1,2,0,0,0,0,0,7,7,0,,,,,,,157.3295596248936,157.3295596248936,158.33015199983492,158.81611708295532,159.04941545799375,159.04941545799375,159.04941545799375,160.33021512487903,160.33021512487903,160.33021512487903,160.33021512487903,161.32992962491699,100001,001,2023-03-31_09h52.14.461,DMS_et_12-36,2022.2.4,None,
5,PRED,12,0.7292999756722155,1,images/picture_2.png,images/picture_1.png,0,"[11.733433509789464, 11.733433509789462]",11.733433509789464,11.733433509789462,images/picture_2.png,1,"[-11.733433509789466, -11.733433509789462]",-11.733433509789464,-11.733433509789462,images/picture_3.png,2,"[-11.733433509789462, 11.733433509789464]",-11.733433509789462,11.733433509789464,0,1,1,0.7292999756722155,1.7292999756722156,1.2707000243277844,3.0,1,1.4792999756722156,0,4.0,3.0,1,2,0,0,0,0,0,8,8,5,,,,,,,161.32992962491699,161.32992962491699,162.3301533749327,162.8161294159945,163.04966054088436,163.04966054088436,163.04966054088436,164.3301979159005,164.3301979159005,164.3301979159005,164.3301979159005,165.3541403329,100001,001,2023-03-31_09h52.14.461,DMS_et_12-36,2022.2.4,None,
,,,,,,,,,,,,,,,,,,,,,,,,,,,,,,,,,,,0,0,0,0,,,,,,,,,165.3541403329,177.3828277499415,,,,,,,,,,,,,100001,001,2023-03-31_09h52.14.461,DMS_et_12-36,2022.2.4,None,
16,UNPRED,12,0.7292999756722155,0,images/picture_1.png,images/picture_1.png,0,"[11.733433509789464, 11.733433509789462]",11.733433509789464,11.733433509789462,images/picture_2.png,1,"[11.733433509789462, -11.733433509789466]",11.733433509789462,-11.733433509789464,images/picture_3.png,2,"[-11.733433509789466, -11.733433509789462]",-11.733433509789464,-11.733433509789462,0,1,1,0.7292999756722155,1.7292999756722156,1.2707000243277844,3.0,1,1.4792999756722156,0,4.0,3.0,1,2,1,0,1,0,0,0,0,7,,,,,,,177.3828277499415,177.3828277499415,178.3969090830069,178.8636730830185,179.09709124988876,179.09709124988876,179.09709124988876,180.38315195799805,180.38315195799805,180.38315195799805,180.38315195799805,181.396708374843,100001,001,2023-03-31_09h52.14.461,DMS_et_12-36,2022.2.4,None,
9,UNPRED,12,0.7292999756722155,1,images/picture_2.png,images/picture_1.png,0,"[11.733433509789464, 11.733433509789462]",11.733433509789464,11.733433509789462,images/picture_2.png,1,"[-11.733433509789466, -11.733433509789462]",-11.733433509789464,-11.733433509789462,images/picture_3.png,2,"[-11.733433509789462, 11.733433509789464]",-11.733433509789462,11.733433509789464,0,1,1,0.7292999756722155,1.7292999756722156,1.2707000243277844,3.0,1,1.4792999756722156,0,4.0,3.0,1,2,1,0,1,0,0,1,1,0,,,,,,,181.396708374843,181.396708374843,182.39679499994963,182.88294224999845,183.11642229091376,183.11642229091376,183.11642229091376,184.39723654091358,184.39723654091358,184.39723654091358,184.39723654091358,185.39646158297546,100001,001,2023-03-31_09h52.14.461,DMS_et_12-36,2022.2.4,None,
10,UNPRED,12,0.7292999756722155,1,images/picture_2.png,images/picture_1.png,0,"[-11.733433509789466, -11.733433509789462]",-11.733433509789464,-11.733433509789462,images/picture_2.png,1,"[-11.733433509789462, 11.733433509789464]",-11.733433509789462,11.733433509789464,images/picture_3.png,2,"[11.733433509789464, 11.733433509789462]",11.733433509789464,11.733433509789462,0,1,1,0.7292999756722155,1.7292999756722156,1.2707000243277844,3.0,1,1.4792999756722156,0,4.0,3.0,1,2,1,0,1,0,0,2,2,1,,,,,,,185.39646158297546,185.39646158297546,186.39718229090795,186.88317695795558,187.11659516603686,187.11659516603686,187.11659516603686,188.39714412484318,188.39714412484318,188.39714412484318,188.39714412484318,189.39646320790052,100001,001,2023-03-31_09h52.14.461,DMS_et_12-36,2022.2.4,None,
11,UNPRED,12,0.7292999756722155,1,images/picture_2.png,images/picture_1.png,0,"[-11.733433509789466, -11.733433509789462]",-11.733433509789464,-11.733433509789462,images/picture_2.png,1,"[11.733433509789464, 11.733433509789462]",11.733433509789464,11.733433509789462,images/picture_3.png,2,"[11.733433509789462, -11.733433509789466]",11.733433509789462,-11.733433509789464,0,1,1,0.7292999756722155,1.7292999756722156,1.2707000243277844,3.0,1,1.4792999756722156,0,4.0,3.0,1,2,1,0,1,0,0,3,3,2,,,,,,,189.39646320790052,189.39646320790052,190.3971122908406,190.88303412497044,191.11626004101709,191.11626004101709,191.11626004101709,192.39704120787792,192.39704120787792,192.39704120787792,192.39704120787792,193.39649637485854,100001,001,2023-03-31_09h52.14.461,DMS_et_12-36,2022.2.4,None,
15,UNPRED,12,0.7292999756722155,0,images/picture_1.png,images/picture_1.png,0,"[-11.733433509789462, 11.733433509789464]",-11.733433509789462,11.733433509789464,images/picture_2.png,1,"[11.733433509789464, 11.733433509789462]",11.733433509789464,11.733433509789462,images/picture_3.png,2,"[-11.733433509789466, -11.733433509789462]",-11.733433509789464,-11.733433509789462,0,1,1,0.7292999756722155,1.7292999756722156,1.2707000243277844,3.0,1,1.4792999756722156,0,4.0,3.0,1,2,1,0,1,0,0,4,4,6,,,,,,,193.39649637485854,193.39649637485854,194.39714720798656,194.88288499996997,195.11665920796804,195.11665920796804,195.11665920796804,196.39709970797412,196.39709970797412,196.39709970797412,196.39709970797412,197.39684295793995,100001,001,2023-03-31_09h52.14.461,DMS_et_12-36,2022.2.4,None,
17,UNPRED,12,0.7292999756722155,0,images/picture_1.png,images/picture_1.png,0,"[-11.733433509789462, 11.733433509789464]",-11.733433509789462,11.733433509789464,images/picture_2.png,1,"[11.733433509789464, 11.733433509789462]",11.733433509789464,11.733433509789462,images/picture_3.png,2,"[11.733433509789462, -11.733433509789466]",11.733433509789462,-11.733433509789464,0,1,1,0.7292999756722155,1.7292999756722156,1.2707000243277844,3.0,1,1.4792999756722156,0,4.0,3.0,1,2,1,0,1,0,0,5,5,8,,,,,,,197.39684295793995,197.39684295793995,198.39714891603217,198.8830826659687,199.1164804159198,199.1164804159198,199.1164804159198,200.39741449989378,200.39741449989378,200.39741449989378,200.39741449989378,201.41599358292297,100001,001,2023-03-31_09h52.14.461,DMS_et_12-36,2022.2.4,None,
13,UNPRED,12,0.7292999756722155,2,images/picture_3.png,images/picture_1.png,0,"[11.733433509789462, -11.733433509789466]",11.733433509789462,-11.733433509789464,images/picture_2.png,1,"[-11.733433509789466, -11.733433509789462]",-11.733433509789464,-11.733433509789462,images/picture_3.png,2,"[-11.733433509789462, 11.733433509789464]",-11.733433509789462,11.733433509789464,0,1,1,0.7292999756722155,1.7292999756722156,1.2707000243277844,3.0,1,1.4792999756722156,0,4.0,3.0,1,2,1,0,1,0,0,6,6,4,,,,,,,201.41599358292297,201.41599358292297,202.4302208328154,202.8969769999385,203.11581662483513,203.11581662483513,203.11581662483513,204.39713241602294,204.39713241602294,204.39713241602294,204.39713241602294,205.39690579101443,100001,001,2023-03-31_09h52.14.461,DMS_et_12-36,2022.2.4,None,
14,UNPRED,12,0.7292999756722155,1,images/picture_2.png,images/picture_1.png,0,"[-11.733433509789462, 11.733433509789464]",-11.733433509789462,11.733433509789464,images/picture_2.png,1,"[-11.733433509789466, -11.733433509789462]",-11.733433509789464,-11.733433509789462,images/picture_3.png,2,"[11.733433509789462, -11.733433509789466]",11.733433509789462,-11.733433509789464,0,1,1,0.7292999756722155,1.7292999756722156,1.2707000243277844,3.0,1,1.4792999756722156,0,4.0,3.0,1,2,1,0,1,0,0,7,7,5,,,,,,,205.39690579101443,205.39690579101443,206.39716112497263,206.88334670802578,207.1168847908266,207.1168847908266,207.1168847908266,208.39717887481675,208.39717887481675,208.39717887481675,208.39717887481675,209.41627045790665,100001,001,2023-03-31_09h52.14.461,DMS_et_12-36,2022.2.4,None,
12,UNPRED,12,0.7292999756722155,2,images/picture_3.png,images/picture_1.png,0,"[11.733433509789464, 11.733433509789462]",11.733433509789464,11.733433509789462,images/picture_2.png,1,"[-11.733433509789466, -11.733433509789462]",-11.733433509789464,-11.733433509789462,images/picture_3.png,2,"[-11.733433509789462, 11.733433509789464]",-11.733433509789462,11.733433509789464,0,1,1,0.7292999756722155,1.7292999756722156,1.2707000243277844,3.0,1,1.4792999756722156,0,4.0,3.0,1,2,1,0,1,0,0,8,8,3,,,,,,,209.41627045790665,209.41627045790665,210.43061954085715,210.8973550829105,211.116504332982,211.116504332982,211.116504332982,212.39692529081367,212.39692529081367,212.39692529081367,212.39692529081367,213.4372479999438,100001,001,2023-03-31_09h52.14.461,DMS_et_12-36,2022.2.4,None,
,,,,,,,,,,,,,,,,,,,,,,,,,,,,,,,,,,,1,0,1,0,,,,,,,,,213.4372479999438,225.46283087483607,,,,,,,,,,,,,100001,001,2023-03-31_09h52.14.461,DMS_et_12-36,2022.2.4,None,
26,PRED,12,0.7292999756722155,1,images/picture_2.png,images/picture_1.png,0,"[11.733433509789464, 11.733433509789462]",11.733433509789464,11.733433509789462,images/picture_2.png,1,"[-11.733433509789466, -11.733433509789462]",-11.733433509789464,-11.733433509789462,images/picture_3.png,2,"[11.733433509789462, -11.733433509789466]",11.733433509789462,-11.733433509789464,0,1,1,0.7292999756722155,1.7292999756722156,1.2707000243277844,3.0,1,1.4792999756722156,0,4.0,3.0,1,2,2,0,2,0,0,0,0,8,,,,,,,225.46283087483607,225.46283087483607,226.4638735000044,226.94972137501463,227.18317558290437,227.18317558290437,227.18317558290437,228.46387266600505,228.46387266600505,228.46387266600505,228.46387266600505,229.46368933282793,100001,001,2023-03-31_09h52.14.461,DMS_et_12-36,2022.2.4,None,
20,PRED,12,0.7292999756722155,1,images/picture_2.png,images/picture_1.png,0,"[11.733433509789462, -11.733433509789466]",11.733433509789462,-11.733433509789464,images/picture_2.png,1,"[-11.733433509789462, 11.733433509789464]",-11.733433509789462,11.733433509789464,images/picture_3.png,2,"[11.733433509789464, 11.733433509789462]",11.733433509789464,11.733433509789462,0,1,1,0.7292999756722155,1.7292999756722156,1.2707000243277844,3.0,1,1.4792999756722156,0,4.0,3.0,1,2,2,0,2,0,0,1,1,2,,,,,,,229.46368933282793,229.46368933282793,230.46387529093772,230.9498478330206,231.18309654085897,231.18309654085897,231.18309654085897,232.46387162501924,232.46387162501924,232.46387162501924,232.46387162501924,233.463705125032,100001,001,2023-03-31_09h52.14.461,DMS_et_12-36,2022.2.4,None,
23,PRED,12,0.7292999756722155,1,images/picture_2.png,images/picture_1.png,0,"[-11.733433509789462, 11.733433509789464]",-11.733433509789462,11.733433509789464,images/picture_2.png,1,"[-11.733433509789466, -11.733433509789462]",-11.733433509789464,-11.733433509789462,images/picture_3.png,2,"[11.733433509789462, -11.733433509789466]",11.733433509789462,-11.733433509789464,0,1,1,0.7292999756722155,1.7292999756722156,1.2707000243277844,3.0,1,1.4792999756722156,0,4.0,3.0,1,2,2,0,2,0,0,2,2,5,,,,,,,233.463705125032,233.463705125032,234.46386387501843,234.95405941596255,235.18368529086,235.18368529086,235.18368529086,236.46406908286735,236.46406908286735,236.46406908286735,236.46406908286735,237.46366716595367,100001,001,2023-03-31_09h52.14.461,DMS_et_12-36,2022.2.4,None,
22,PRED,12,0.7292999756722155,1,images/picture_2.png,images/picture_1.png,0,"[11.733433509789464, 11.733433509789462]",11.733433509789464,11.733433509789462,images/picture_2.png,1,"[-11.733433509789466, -11.733433509789462]",-11.733433509789464,-11.733433509789462,images/picture_3.png,2,"[11.733433509789462, -11.733433509789466]",11.733433509789462,-11.733433509789464,0,1,1,0.7292999756722155,1.7292999756722156,1.2707000243277844,3.0,1,1.4792999756722156,0,4.0,3.0,1,2,2,0,2,0,0,3,3,4,,,,,,,237.46366716595367,237.46366716595367,238.4638848749455,238.9507012909744,239.1832881248556,239.1832881248556,239.1832881248556,240.4638725828845,240.4638725828845,240.4638725828845,240.4638725828845,241.4635187909007,100001,001,2023-03-31_09h52.14.461,DMS_et_12-36,2022.2.4,None,
21,PRED,12,0.7292999756722155,1,images/picture_2.png,images/picture_1.png,0,"[11.733433509789462, -11.733433509789466]",11.733433509789462,-11.733433509789464,images/picture_2.png,1,"[11.733433509789464, 11.733433509789462]",11.733433509789464,11.733433509789462,images/picture_3.png,2,"[-11.733433509789462, 11.733433509789464]",-11.733433509789462,11.733433509789464,0,1,1,0.7292999756722155,1.7292999756722156,1.2707000243277844,3.0,1,1.4792999756722156,0,4.0,3.0,1,2,2,0,2,0,0,4,4,3,,,,,,,241.4635187909007,241.4635187909007,242.46412637503818,242.94919279101305,243.19698429084383,243.19698429084383,243.19698429084383,244.46407558303326,244.46407558303326,244.46407558303326,244.46407558303326,245.46353070787154,100001,001,2023-03-31_09h52.14.461,DMS_et_12-36,2022.2.4,None,
24,PRED,12,0.7292999756722155,1,images/picture_2.png,images/picture_1.png,0,"[11.733433509789464, 11.733433509789462]",11.733433509789464,11.733433509789462,images/picture_2.png,1,"[-11.733433509789462, 11.733433509789464]",-11.733433509789462,11.733433509789464,images/picture_3.png,2,"[11.733433509789462, -11.733433509789466]",11.733433509789462,-11.733433509789464,0,1,1,0.7292999756722155,1.7292999756722156,1.2707000243277844,3.0,1,1.4792999756722156,0,4.0,3.0,1,2,2,0,2,0,0,5,5,6,,,,,,,245.46353070787154,245.46353070787154,246.46407341584563,246.9499196249526,247.18343870784156,247.18343870784156,247.18343870784156,248.4640936658252,248.4640936658252,248.4640936658252,248.4640936658252,249.46356391604058,100001,001,2023-03-31_09h52.14.461,DMS_et_12-36,2022.2.4,None,
18,PRED,12,0.7292999756722155,1,images/picture_2.png,images/picture_1.png,0,"[11.733433509789462, -11.733433509789466]",11.733433509789462,-11.733433509789464,images/picture_2.png,1,"[-11.733433509789462, 11.733433509789464]",-11.733433509789462,11.733433509789464,images/picture_3.png,2,"[11.733433509789464, 11.733433509789462]",11.733433509789464,11.733433509789462,0,1,1,0.7292999756722155,1.7292999756722156,1.2707000243277844,3.0,1,1.4792999756722156,0,4.0,3.0,1,2,2,0,2,0,0,6,6,0,,,,,,,249.46356391604058,249.46356391604058,250.46413262491114,250.9499794158619,251.1837114158552,251.1837114158552,251.1837114158552,252.4640745408833,252.4640745408833,252.4640745408833,252.4640745408833,253.4638079998549,100001,001,2023-03-31_09h52.14.461,DMS_et_12-36,2022.2.4,None,
19,PRED,12,0.7292999756722155,1,images/picture_2.png,images/picture_1.png,0,"[-11.733433509789466, -11.733433509789462]",-11.733433509789464,-11.733433509789462,images/picture_2.png,1,"[11.733433509789462, -11.733433509789466]",11.733433509789462,-11.733433509789464,images/picture_3.png,2,"[11.733433509789464, 11.733433509789462]",11.733433509789464,11.733433509789462,0,1,1,0.7292999756722155,1.7292999756722156,1.2707000243277844,3.0,1,1.4792999756722156,0,4.0,3.0,1,2,2,0,2,0,0,7,7,1,,,,,,,253.4638079998549,253.4638079998549,254.46413079090416,254.9501767498441,255.183355582878,255.183355582878,255.183355582878,256.46413433295675,256.46413433295675,256.46413433295675,256.46413433295675,257.4635832498316,100001,001,2023-03-31_09h52.14.461,DMS_et_12-36,2022.2.4,None,
25,PRED,12,0.7292999756722155,1,images/picture_2.png,images/picture_1.png,0,"[-11.733433509789466, -11.733433509789462]",-11.733433509789464,-11.733433509789462,images/picture_2.png,1,"[11.733433509789464, 11.733433509789462]",11.733433509789464,11.733433509789462,images/picture_3.png,2,"[11.733433509789462, -11.733433509789466]",11.733433509789462,-11.733433509789464,0,1,1,0.7292999756722155,1.7292999756722156,1.2707000243277844,3.0,1,1.4792999756722156,0,4.0,3.0,1,2,2,0,2,0,0,8,8,7,,,,,,,257.4635832498316,257.4635832498316,258.4641305829864,258.9502853329759,259.1831559999846,259.1831559999846,259.1831559999846,260.46412379085086,260.46412379085086,260.46412379085086,260.46412379085086,261.50170829100534,100001,001,2023-03-31_09h52.14.461,DMS_et_12-36,2022.2.4,None,
,,,,,,,,,,,,,,,,,,,,,,,,,,,,,,,,,,,2,0,2,0,,,,,,,,,261.50170829100534,273.53768445784226,,,,,,,,,,,,,100001,001,2023-03-31_09h52.14.461,DMS_et_12-36,2022.2.4,None,
27,UNPRED,12,0.7292999756722155,2,images/picture_3.png,images/picture_1.png,0,"[-11.733433509789462, 11.733433509789464]",-11.733433509789462,11.733433509789464,images/picture_2.png,1,"[11.733433509789462, -11.733433509789466]",11.733433509789462,-11.733433509789464,images/picture_3.png,2,"[-11.733433509789466, -11.733433509789462]",-11.733433509789464,-11.733433509789462,0,1,1,0.7292999756722155,1.7292999756722156,1.2707000243277844,3.0,1,1.4792999756722156,0,4.0,3.0,1,2,3,0,3,0,0,0,0,0,,,,,,,273.53768445784226,273.53768445784226,274.54975891602226,275.03091133292764,275.2505270410329,275.2505270410329,275.2505270410329,276.53091591596603,276.53091591596603,276.53091591596603,276.53091591596603,277.5503368328791,100001,001,2023-03-31_09h52.14.461,DMS_et_12-36,2022.2.4,None,
35,UNPRED,12,0.7292999756722155,2,images/picture_3.png,images/picture_1.png,0,"[11.733433509789464, 11.733433509789462]",11.733433509789464,11.733433509789462,images/picture_2.png,1,"[-11.733433509789466, -11.733433509789462]",-11.733433509789464,-11.733433509789462,images/picture_3.png,2,"[-11.733433509789462, 11.733433509789464]",-11.733433509789462,11.733433509789464,0,1,1,0.7292999756722155,1.7292999756722156,1.2707000243277844,3.0,1,1.4792999756722156,0,4.0,3.0,1,2,3,0,3,0,0,1,1,8,,,,,,,277.5503368328791,277.5503368328791,278.56436812481843,279.0309254578315,279.25023108301684,279.25023108301684,279.25023108301684,280.53104754094966,280.53104754094966,280.53104754094966,280.53104754094966,281.53051016596146,100001,001,2023-03-31_09h52.14.461,DMS_et_12-36,2022.2.4,None,
28,UNPRED,12,0.7292999756722155,0,images/picture_1.png,images/picture_1.png,0,"[-11.733433509789462, 11.733433509789464]",-11.733433509789462,11.733433509789464,images/picture_2.png,1,"[11.733433509789464, 11.733433509789462]",11.733433509789464,11.733433509789462,images/picture_3.png,2,"[11.733433509789462, -11.733433509789466]",11.733433509789462,-11.733433509789464,0,1,1,0.7292999756722155,1.7292999756722156,1.2707000243277844,3.0,1,1.4792999756722156,0,4.0,3.0,1,2,3,0,3,0,0,2,2,1,,,,,,,281.53051016596146,281.53051016596146,282.5308742078487,283.01687570801005,283.2504385409411,283.2504385409411,283.2504385409411,284.53073937492445,284.53073937492445,284.53073937492445,284.53073937492445,285.5307186660357,100001,001,2023-03-31_09h52.14.461,DMS_et_12-36,2022.2.4,None,
31,UNPRED,12,0.7292999756722155,0,images/picture_1.png,images/picture_1.png,0,"[11.733433509789464, 11.733433509789462]",11.733433509789464,11.733433509789462,images/picture_2.png,1,"[-11.733433509789462, 11.733433509789464]",-11.733433509789462,11.733433509789464,images/picture_3.png,2,"[11.733433509789462, -11.733433509789466]",11.733433509789462,-11.733433509789464,0,1,1,0.7292999756722155,1.7292999756722156,1.2707000243277844,3.0,1,1.4792999756722156,0,4.0,3.0,1,2,3,0,3,0,0,3,3,4,,,,,,,285.5307186660357,285.5307186660357,286.53089899988845,287.0170925408602,287.2502902080305,287.2502902080305,287.2502902080305,288.5309165830258,288.5309165830258,288.5309165830258,288.5309165830258,289.5501820000354,100001,001,2023-03-31_09h52.14.461,DMS_et_12-36,2022.2.4,None,
34,UNPRED,12,0.7292999756722155,2,images/picture_3.png,images/picture_1.png,0,"[-11.733433509789462, 11.733433509789464]",-11.733433509789462,11.733433509789464,images/picture_2.png,1,"[11.733433509789464, 11.733433509789462]",11.733433509789464,11.733433509789462,images/picture_3.png,2,"[11.733433509789462, -11.733433509789466]",11.733433509789462,-11.733433509789464,0,1,1,0.7292999756722155,1.7292999756722156,1.2707000243277844,3.0,1,1.4792999756722156,0,4.0,3.0,1,2,3,0,3,0,0,4,4,7,,,,,,,289.5501820000354,289.5501820000354,290.5643486659974,291.0310099159833,291.25040058302693,291.25040058302693,291.25040058302693,292.53110966598615,292.53110966598615,292.53110966598615,292.53110966598615,293.54971995786764,100001,001,2023-03-31_09h52.14.461,DMS_et_12-36,2022.2.4,None,
30,UNPRED,12,0.7292999756722155,2,images/picture_3.png,images/picture_1.png,0,"[-11.733433509789462, 11.733433509789464]",-11.733433509789462,11.733433509789464,images/picture_2.png,1,"[-11.733433509789466, -11.733433509789462]",-11.733433509789464,-11.733433509789462,images/picture_3.png,2,"[11.733433509789464, 11.733433509789462]",11.733433509789464,11.733433509789462,0,1,1,0.7292999756722155,1.7292999756722156,1.2707000243277844,3.0,1,1.4792999756722156,0,4.0,3.0,1,2,3,0,3,0,0,5,5,3,,,,,,,293.54971995786764,293.54971995786764,294.5640621660277,295.03088191594,295.24978849990293,295.24978849990293,295.24978849990293,296.5309663750231,296.5309663750231,296.5309663750231,296.5309663750231,297.5498095829971,100001,001,2023-03-31_09h52.14.461,DMS_et_12-36,2022.2.4,None,
32,UNPRED,12,0.7292999756722155,2,images/picture_3.png,images/picture_1.png,0,"[11.733433509789462, -11.733433509789466]",11.733433509789462,-11.733433509789464,images/picture_2.png,1,"[11.733433509789464, 11.733433509789462]",11.733433509789464,11.733433509789462,images/picture_3.png,2,"[-11.733433509789466, -11.733433509789462]",-11.733433509789464,-11.733433509789462,0,1,1,0.7292999756722155,1.7292999756722156,1.2707000243277844,3.0,1,1.4792999756722156,0,4.0,3.0,1,2,3,0,3,0,0,6,6,5,,,,,,,297.5498095829971,297.5498095829971,298.56439695786685,299.0311197908595,299.2502295000013,299.2502295000013,299.2502295000013,300.5311467498541,300.5311467498541,300.5311467498541,300.5311467498541,301.5308942908887,100001,001,2023-03-31_09h52.14.461,DMS_et_12-36,2022.2.4,None,
29,UNPRED,12,0.7292999756722155,0,images/picture_1.png,images/picture_1.png,0,"[-11.733433509789466, -11.733433509789462]",-11.733433509789464,-11.733433509789462,images/picture_2.png,1,"[11.733433509789464, 11.733433509789462]",11.733433509789464,11.733433509789462,images/picture_3.png,2,"[-11.733433509789462, 11.733433509789464]",-11.733433509789462,11.733433509789464,0,1,1,0.7292999756722155,1.7292999756722156,1.2707000243277844,3.0,1,1.4792999756722156,0,4.0,3.0,1,2,3,0,3,0,0,7,7,2,,,,,,,301.5308942908887,301.5308942908887,302.53111454099417,303.01728808297776,303.25031337491237,303.25031337491237,303.25031337491237,304.53089641593397,304.53089641593397,304.53089641593397,304.53089641593397,305.5307385828346,100001,001,2023-03-31_09h52.14.461,DMS_et_12-36,2022.2.4,None,
33,UNPRED,12,0.7292999756722155,1,images/picture_2.png,images/picture_1.png,0,"[11.733433509789462, -11.733433509789466]",11.733433509789462,-11.733433509789464,images/picture_2.png,1,"[-11.733433509789462, 11.733433509789464]",-11.733433509789462,11.733433509789464,images/picture_3.png,2,"[-11.733433509789466, -11.733433509789462]",-11.733433509789464,-11.733433509789462,0,1,1,0.7292999756722155,1.7292999756722156,1.2707000243277844,3.0,1,1.4792999756722156,0,4.0,3.0,1,2,3,0,3,0,0,8,8,6,,,,,,,305.5307385828346,305.5307385828346,306.5311735828873,307.01697174995206,307.2506673329044,307.2506673329044,307.2506673329044,308.5311412499286,308.5311412499286,308.5311412499286,308.5311412499286,309.58394024986774,100001,001,2023-03-31_09h52.14.461,DMS_et_12-36,2022.2.4,None,
,,,,,,,,,,,,,,,,,,,,,,,,,,,,,,,,,,,3,0,3,0,,,,,,,,,309.58394024986774,321.61677937489003,,,,,,,,,,,,,100001,001,2023-03-31_09h52.14.461,DMS_et_12-36,2022.2.4,None,
36,PRED,12,0.7292999756722155,1,images/picture_2.png,images/picture_1.png,0,"[11.733433509789462, -11.733433509789466]",11.733433509789462,-11.733433509789464,images/picture_2.png,1,"[-11.733433509789462, 11.733433509789464]",-11.733433509789462,11.733433509789464,images/picture_3.png,2,"[-11.733433509789466, -11.733433509789462]",-11.733433509789464,-11.733433509789462,0,1,1,0.7292999756722155,1.7292999756722156,1.2707000243277844,3.0,1,1.4792999756722156,0,4.0,3.0,1,2,4,0,4,0,0,0,0,0,,,,,,,321.61677937489003,321.61677937489003,322.63128470792435,323.09787366585806,323.35049466602504,323.35049466602504,323.35049466602504,324.6170891248621,324.63116645789705,324.63116645789705,324.63116645789705,325.63097299984656,100001,001,2023-03-31_09h52.14.461,DMS_et_12-36,2022.2.4,None,
41,PRED,12,0.7292999756722155,1,images/picture_2.png,images/picture_1.png,0,"[-11.733433509789462, 11.733433509789464]",-11.733433509789462,11.733433509789464,images/picture_2.png,1,"[11.733433509789464, 11.733433509789462]",11.733433509789464,11.733433509789462,images/picture_3.png,2,"[-11.733433509789466, -11.733433509789462]",-11.733433509789464,-11.733433509789462,0,1,1,0.7292999756722155,1.7292999756722156,1.2707000243277844,3.0,1,1.4792999756722156,0,4.0,3.0,1,2,4,0,4,0,0,1,1,5,,,,,,,325.63097299984656,325.63097299984656,326.6311884999741,327.11734554101713,327.3502914579585,327.3502914579585,327.3502914579585,328.6313660410233,328.6313660410233,328.6313660410233,328.6313660410233,329.6307047079317,100001,001,2023-03-31_09h52.14.461,DMS_et_12-36,2022.2.4,None,
37,PRED,12,0.7292999756722155,1,images/picture_2.png,images/picture_1.png,0,"[11.733433509789462, -11.733433509789466]",11.733433509789462,-11.733433509789464,images/picture_2.png,1,"[-11.733433509789466, -11.733433509789462]",-11.733433509789464,-11.733433509789462,images/picture_3.png,2,"[11.733433509789464, 11.733433509789462]",11.733433509789464,11.733433509789462,0,1,1,0.7292999756722155,1.7292999756722156,1.2707000243277844,3.0,1,1.4792999756722156,0,4.0,3.0,1,2,4,0,4,0,0,2,2,1,,,,,,,329.6307047079317,329.6307047079317,330.63115029083565,331.1174029579852,331.35073629091494,331.35073629091494,331.35073629091494,332.6311990409158,332.6311990409158,332.6311990409158,332.6311990409158,333.63073916593567,100001,001,2023-03-31_09h52.14.461,DMS_et_12-36,2022.2.4,None,
44,PRED,12,0.7292999756722155,1,images/picture_2.png,images/picture_1.png,0,"[-11.733433509789462, 11.733433509789464]",-11.733433509789462,11.733433509789464,images/picture_2.png,1,"[11.733433509789464, 11.733433509789462]",11.733433509789464,11.733433509789462,images/picture_3.png,2,"[11.733433509789462, -11.733433509789466]",11.733433509789462,-11.733433509789464,0,1,1,0.7292999756722155,1.7292999756722156,1.2707000243277844,3.0,1,1.4792999756722156,0,4.0,3.0,1,2,4,0,4,0,0,3,3,8,,,,,,,333.63073916593567,333.63073916593567,334.6313671658281,335.11745462496765,335.3500041249208,335.3500041249208,335.3500041249208,336.6313786660321,336.6313786660321,336.6313786660321,336.6313786660321,337.63088349998,100001,001,2023-03-31_09h52.14.461,DMS_et_12-36,2022.2.4,None,
39,PRED,12,0.7292999756722155,1,images/picture_2.png,images/picture_1.png,0,"[-11.733433509789462, 11.733433509789464]",-11.733433509789462,11.733433509789464,images/picture_2.png,1,"[11.733433509789462, -11.733433509789466]",11.733433509789462,-11.733433509789464,images/picture_3.png,2,"[11.733433509789464, 11.733433509789462]",11.733433509789464,11.733433509789462,0,1,1,0.7292999756722155,1.7292999756722156,1.2707000243277844,3.0,1,1.4792999756722156,0,4.0,3.0,1,2,4,0,4,0,0,4,4,3,,,,,,,337.63088349998,337.63088349998,338.63135145790875,339.11751683289185,339.35088304104283,339.35088304104283,339.35088304104283,340.6314002079889,340.6314002079889,340.6314002079889,340.6314002079889,341.6311520829331,100001,001,2023-03-31_09h52.14.461,DMS_et_12-36,2022.2.4,None,
42,PRED,12,0.7292999756722155,1,images/picture_2.png,images/picture_1.png,0,"[11.733433509789462, -11.733433509789466]",11.733433509789462,-11.733433509789464,images/picture_2.png,1,"[-11.733433509789462, 11.733433509789464]",-11.733433509789462,11.733433509789464,images/picture_3.png,2,"[-11.733433509789466, -11.733433509789462]",-11.733433509789464,-11.733433509789462,0,1,1,0.7292999756722155,1.7292999756722156,1.2707000243277844,3.0,1,1.4792999756722156,0,4.0,3.0,1,2,4,0,4,0,0,5,5,6,,,,,,,341.6311520829331,341.6311520829331,342.63141995784827,343.1171981249936,343.35056987497956,343.35056987497956,343.35056987497956,344.6313603329472,344.6313603329472,344.6313603329472,344.6313603329472,345.63110762485303,100001,001,2023-03-31_09h52.14.461,DMS_et_12-36,2022.2.4,None,
40,PRED,12,0.7292999756722155,1,images/picture_2.png,images/picture_1.png,0,"[-11.733433509789466, -11.733433509789462]",-11.733433509789464,-11.733433509789462,images/picture_2.png,1,"[-11.733433509789462, 11.733433509789464]",-11.733433509789462,11.733433509789464,images/picture_3.png,2,"[11.733433509789462, -11.733433509789466]",11.733433509789462,-11.733433509789464,0,1,1,0.7292999756722155,1.7292999756722156,1.2707000243277844,3.0,1,1.4792999756722156,0,4.0,3.0,1,2,4,0,4,0,0,6,6,4,,,,,,,345.63110762485303,345.63110762485303,346.6315366658382,347.11649120785296,347.3507368748542,347.3507368748542,347.3507368748542,348.63143558287993,348.63143558287993,348.63143558287993,348.63143558287993,349.63048145803623,100001,001,2023-03-31_09h52.14.461,DMS_et_12-36,2022.2.4,None,
43,PRED,12,0.7292999756722155,1,images/picture_2.png,images/picture_1.png,0,"[11.733433509789462, -11.733433509789466]",11.733433509789462,-11.733433509789464,images/picture_2.png,1,"[11.733433509789464, 11.733433509789462]",11.733433509789464,11.733433509789462,images/picture_3.png,2,"[-11.733433509789466, -11.733433509789462]",-11.733433509789464,-11.733433509789462,0,1,1,0.7292999756722155,1.7292999756722156,1.2707000243277844,3.0,1,1.4792999756722156,0,4.0,3.0,1,2,4,0,4,0,0,7,7,7,,,,,,,349.63048145803623,349.63048145803623,350.6313999160193,351.1174372078385,351.3507654578425,351.3507654578425,351.3507654578425,352.63148958282545,352.63148958282545,352.63148958282545,352.63148958282545,353.63080904097296,100001,001,2023-03-31_09h52.14.461,DMS_et_12-36,2022.2.4,None,
38,PRED,12,0.7292999756722155,1,images/picture_2.png,images/picture_1.png,0,"[11.733433509789464, 11.733433509789462]",11.733433509789464,11.733433509789462,images/picture_2.png,1,"[11.733433509789462, -11.733433509789466]",11.733433509789462,-11.733433509789464,images/picture_3.png,2,"[-11.733433509789462, 11.733433509789464]",-11.733433509789462,11.733433509789464,0,1,1,0.7292999756722155,1.7292999756722156,1.2707000243277844,3.0,1,1.4792999756722156,0,4.0,3.0,1,2,4,0,4,0,0,8,8,2,,,,,,,353.63080904097296,353.63080904097296,354.63139041583054,355.11709962482564,355.35049395798706,355.35049395798706,355.35049395798706,356.631215415895,356.631215415895,356.631215415895,356.631215415895,357.74350279103965,100001,001,2023-03-31_09h52.14.461,DMS_et_12-36,2022.2.4,None,
,,,,,,,,,,,,,,,,,,,,,,,,,,,,,,,,,,,4,0,4,0,,,,,,,,,357.74350279103965,369.7635425408371,,,,,,,,,,,,,100001,001,2023-03-31_09h52.14.461,DMS_et_12-36,2022.2.4,None,
52,UNPRED,12,0.7292999756722155,0,images/picture_1.png,images/picture_1.png,0,"[-11.733433509789462, 11.733433509789464]",-11.733433509789462,11.733433509789464,images/picture_2.png,1,"[-11.733433509789466, -11.733433509789462]",-11.733433509789464,-11.733433509789462,images/picture_3.png,2,"[11.733433509789464, 11.733433509789462]",11.733433509789464,11.733433509789462,0,1,1,0.7292999756722155,1.7292999756722156,1.2707000243277844,3.0,1,1.4792999756722156,0,4.0,3.0,1,2,5,0,5,0,0,0,0,7,,,,,,,369.7635425408371,369.7635425408371,370.7648891250137,371.25094383303076,371.49834474991076,371.49834474991076,371.49834474991076,372.76487933285534,372.7840200830251,372.7840200830251,372.7840200830251,373.7835817078594,100001,001,2023-03-31_09h52.14.461,DMS_et_12-36,2022.2.4,None,
49,UNPRED,12,0.7292999756722155,2,images/picture_3.png,images/picture_1.png,0,"[-11.733433509789466, -11.733433509789462]",-11.733433509789464,-11.733433509789462,images/picture_2.png,1,"[11.733433509789462, -11.733433509789466]",11.733433509789462,-11.733433509789464,images/picture_3.png,2,"[-11.733433509789462, 11.733433509789464]",-11.733433509789462,11.733433509789464,0,1,1,0.7292999756722155,1.7292999756722156,1.2707000243277844,3.0,1,1.4792999756722156,0,4.0,3.0,1,2,5,0,5,0,0,1,1,4,,,,,,,373.7835817078594,373.7835817078594,374.7983981659636,375.26487349998206,375.4842623330187,375.4842623330187,375.4842623330187,376.7646913328208,376.7646913328208,376.7646913328208,376.7646913328208,377.7836505409796,100001,001,2023-03-31_09h52.14.461,DMS_et_12-36,2022.2.4,None,
47,UNPRED,12,0.7292999756722155,2,images/picture_3.png,images/picture_1.png,0,"[-11.733433509789462, 11.733433509789464]",-11.733433509789462,11.733433509789464,images/picture_2.png,1,"[11.733433509789464, 11.733433509789462]",11.733433509789464,11.733433509789462,images/picture_3.png,2,"[-11.733433509789466, -11.733433509789462]",-11.733433509789464,-11.733433509789462,0,1,1,0.7292999756722155,1.7292999756722156,1.2707000243277844,3.0,1,1.4792999756722156,0,4.0,3.0,1,2,5,0,5,0,0,2,2,2,,,,,,,377.7836505409796,377.7836505409796,378.79790324997157,379.26462716585957,379.48335316590965,379.48335316590965,379.48335316590965,380.7651314998511,380.7651314998511,380.7651314998511,380.7651314998511,381.76495941588655,100001,001,2023-03-31_09h52.14.461,DMS_et_12-36,2022.2.4,None,
50,UNPRED,12,0.7292999756722155,1,images/picture_2.png,images/picture_1.png,0,"[11.733433509789462, -11.733433509789466]",11.733433509789462,-11.733433509789464,images/picture_2.png,1,"[-11.733433509789462, 11.733433509789464]",-11.733433509789462,11.733433509789464,images/picture_3.png,2,"[11.733433509789464, 11.733433509789462]",11.733433509789464,11.733433509789462,0,1,1,0.7292999756722155,1.7292999756722156,1.2707000243277844,3.0,1,1.4792999756722156,0,4.0,3.0,1,2,5,0,5,0,0,3,3,5,,,,,,,381.76495941588655,381.76495941588655,382.7648900409695,383.2506172079593,383.4842606249731,383.4842606249731,383.4842606249731,384.7649263329804,384.7649263329804,384.7649263329804,384.7649263329804,385.7644787079189,100001,001,2023-03-31_09h52.14.461,DMS_et_12-36,2022.2.4,None,
48,UNPRED,12,0.7292999756722155,0,images/picture_1.png,images/picture_1.png,0,"[-11.733433509789462, 11.733433509789464]",-11.733433509789462,11.733433509789464,images/picture_2.png,1,"[11.733433509789462, -11.733433509789466]",11.733433509789462,-11.733433509789464,images/picture_3.png,2,"[-11.733433509789466, -11.733433509789462]",-11.733433509789464,-11.733433509789462,0,1,1,0.7292999756722155,1.7292999756722156,1.2707000243277844,3.0,1,1.4792999756722156,0,4.0,3.0,1,2,5,0,5,0,0,4,4,3,,,,,,,385.7644787079189,385.7644787079189,386.76460599992424,387.2501699998975,387.48368758289143,387.48368758289143,387.48368758289143,388.7648832499981,388.7648832499981,388.7648832499981,388.7648832499981,389.76448387489654,100001,001,2023-03-31_09h52.14.461,DMS_et_12-36,2022.2.4,None,
46,UNPRED,12,0.7292999756722155,1,images/picture_2.png,images/picture_1.png,0,"[11.733433509789464, 11.733433509789462]",11.733433509789464,11.733433509789462,images/picture_2.png,1,"[-11.733433509789462, 11.733433509789464]",-11.733433509789462,11.733433509789464,images/picture_3.png,2,"[11.733433509789462, -11.733433509789466]",11.733433509789462,-11.733433509789464,0,1,1,0.7292999756722155,1.7292999756722156,1.2707000243277844,3.0,1,1.4792999756722156,0,4.0,3.0,1,2,5,0,5,0,0,5,5,1,,,,,,,389.76448387489654,389.76448387489654,390.76502858288586,391.25114779081196,391.48446700000204,391.48446700000204,391.48446700000204,392.7649411659222,392.7649411659222,392.7649411659222,392.7649411659222,393.76439445791766,100001,001,2023-03-31_09h52.14.461,DMS_et_12-36,2022.2.4,None,
53,UNPRED,12,0.7292999756722155,0,images/picture_1.png,images/picture_1.png,0,"[-11.733433509789466, -11.733433509789462]",-11.733433509789464,-11.733433509789462,images/picture_2.png,1,"[11.733433509789462, -11.733433509789466]",11.733433509789462,-11.733433509789464,images/picture_3.png,2,"[-11.733433509789462, 11.733433509789464]",-11.733433509789462,11.733433509789464,0,1,1,0.7292999756722155,1.7292999756722156,1.2707000243277844,3.0,1,1.4792999756722156,0,4.0,3.0,1,2,5,0,5,0,0,6,6,8,,,,,,,393.76439445791766,393.76439445791766,394.7650775408838,395.2513313749805,395.4842977079097,395.4842977079097,395.4842977079097,396.7647411248181,396.7647411248181,396.7647411248181,396.7647411248181,397.76490954100154,100001,001,2023-03-31_09h52.14.461,DMS_et_12-36,2022.2.4,None,
51,UNPRED,12,0.7292999756722155,1,images/picture_2.png,images/picture_1.png,0,"[11.733433509789462, -11.733433509789466]",11.733433509789462,-11.733433509789464,images/picture_2.png,1,"[-11.733433509789466, -11.733433509789462]",-11.733433509789464,-11.733433509789462,images/picture_3.png,2,"[-11.733433509789462, 11.733433509789464]",-11.733433509789462,11.733433509789464,0,1,1,0.7292999756722155,1.7292999756722156,1.2707000243277844,3.0,1,1.4792999756722156,0,4.0,3.0,1,2,5,0,5,0,0,7,7,6,,,,,,,397.76490954100154,397.76490954100154,398.76515741599724,399.2512220828794,399.4844517079182,399.4844517079182,399.4844517079182,400.7651293328963,400.7651293328963,400.7651293328963,400.7651293328963,401.7843139579054,100001,001,2023-03-31_09h52.14.461,DMS_et_12-36,2022.2.4,None,
45,UNPRED,12,0.7292999756722155,2,images/picture_3.png,images/picture_1.png,0,"[-11.733433509789462, 11.733433509789464]",-11.733433509789462,11.733433509789464,images/picture_2.png,1,"[-11.733433509789466, -11.733433509789462]",-11.733433509789464,-11.733433509789462,images/picture_3.png,2,"[11.733433509789462, -11.733433509789466]",11.733433509789462,-11.733433509789464,0,1,1,0.7292999756722155,1.7292999756722156,1.2707000243277844,3.0,1,1.4792999756722156,0,4.0,3.0,1,2,5,0,5,0,0,8,8,0,,,,,,,401.7843139579054,401.7843139579054,402.7984122079797,403.26512579084374,403.48428108287044,403.48428108287044,403.48428108287044,404.76514483289793,404.76514483289793,404.76514483289793,404.76514483289793,405.83964204089716,100001,001,2023-03-31_09h52.14.461,DMS_et_12-36,2022.2.4,None,
,,,,,,,,,,,,,,,,,,,,,,,,,,,,,,,,,,,5,0,5,0,,,,,,,,,405.83964204089716,417.86037512496114,,,,,,,,,,,,,100001,001,2023-03-31_09h52.14.461,DMS_et_12-36,2022.2.4,None,
61,PRED,12,0.7292999756722155,2,images/picture_3.png,images/picture_1.png,0,"[-11.733433509789466, -11.733433509789462]",-11.733433509789464,-11.733433509789462,images/picture_2.png,1,"[11.733433509789462, -11.733433509789466]",11.733433509789462,-11.733433509789464,images/picture_3.png,2,"[11.733433509789464, 11.733433509789462]",11.733433509789464,11.733433509789462,0,1,1,0.7292999756722155,1.7292999756722156,1.2707000243277844,3.0,1,1.4792999756722156,0,4.0,3.0,1,2,6,0,6,0,0,0,0,7,,,,,,,417.86037512496114,417.86037512496114,418.8651649998501,419.351227582898,419.58447783300653,419.58447783300653,419.58447783300653,420.8510918749962,420.86534891603515,420.86534891603515,420.86534891603515,421.88478074991144,100001,001,2023-03-31_09h52.14.461,DMS_et_12-36,2022.2.4,None,
57,PRED,12,0.7292999756722155,2,images/picture_3.png,images/picture_1.png,0,"[-11.733433509789466, -11.733433509789462]",-11.733433509789464,-11.733433509789462,images/picture_2.png,1,"[11.733433509789462, -11.733433509789466]",11.733433509789462,-11.733433509789464,images/picture_3.png,2,"[11.733433509789464, 11.733433509789462]",11.733433509789464,11.733433509789462,0,1,1,0.7292999756722155,1.7292999756722156,1.2707000243277844,3.0,1,1.4792999756722156,0,4.0,3.0,1,2,6,0,6,0,0,1,1,3,,,,,,,421.88478074991144,421.88478074991144,422.8984333749395,423.36514595802873,423.58447191584855,423.58447191584855,423.58447191584855,424.86515012499876,424.86515012499876,424.86515012499876,424.86515012499876,425.8838338749483,100001,001,2023-03-31_09h52.14.461,DMS_et_12-36,2022.2.4,None,
59,PRED,12,0.7292999756722155,2,images/picture_3.png,images/picture_1.png,0,"[-11.733433509789462, 11.733433509789464]",-11.733433509789462,11.733433509789464,images/picture_2.png,1,"[-11.733433509789466, -11.733433509789462]",-11.733433509789464,-11.733433509789462,images/picture_3.png,2,"[11.733433509789464, 11.733433509789462]",11.733433509789464,11.733433509789462,0,1,1,0.7292999756722155,1.7292999756722156,1.2707000243277844,3.0,1,1.4792999756722156,0,4.0,3.0,1,2,6,0,6,0,0,2,2,5,,,,,,,425.8838338749483,425.8838338749483,426.8985722910147,427.36516470788047,427.58360195788555,427.58360195788555,427.58360195788555,428.86520737502724,428.86520737502724,428.86520737502724,428.86520737502724,429.8839236658532,100001,001,2023-03-31_09h52.14.461,DMS_et_12-36,2022.2.4,None,
58,PRED,12,0.7292999756722155,2,images/picture_3.png,images/picture_1.png,0,"[11.733433509789464, 11.733433509789462]",11.733433509789464,11.733433509789462,images/picture_2.png,1,"[-11.733433509789462, 11.733433509789464]",-11.733433509789462,11.733433509789464,images/picture_3.png,2,"[-11.733433509789466, -11.733433509789462]",-11.733433509789464,-11.733433509789462,0,1,1,0.7292999756722155,1.7292999756722156,1.2707000243277844,3.0,1,1.4792999756722156,0,4.0,3.0,1,2,6,0,6,0,0,3,3,4,,,,,,,429.8839236658532,429.8839236658532,430.898632416036,431.36536904098466,431.58445199998096,431.58445199998096,431.58445199998096,432.8651659160387,432.8651659160387,432.8651659160387,432.8651659160387,433.8840585409198,100001,001,2023-03-31_09h52.14.461,DMS_et_12-36,2022.2.4,None,
55,PRED,12,0.7292999756722155,2,images/picture_3.png,images/picture_1.png,0,"[-11.733433509789466, -11.733433509789462]",-11.733433509789464,-11.733433509789462,images/picture_2.png,1,"[-11.733433509789462, 11.733433509789464]",-11.733433509789462,11.733433509789464,images/picture_3.png,2,"[11.733433509789462, -11.733433509789466]",11.733433509789462,-11.733433509789464,0,1,1,0.7292999756722155,1.7292999756722156,1.2707000243277844,3.0,1,1.4792999756722156,0,4.0,3.0,1,2,6,0,6,0,0,4,4,1,,,,,,,433.8840585409198,433.8840585409198,434.8986380409915,435.36519541591406,435.5848589998204,435.5848589998204,435.5848589998204,436.86535574984737,436.86535574984737,436.86535574984737,436.86535574984737,437.86507075000554,100001,001,2023-03-31_09h52.14.461,DMS_et_12-36,2022.2.4,None,
,,,,,,,,,,,,,,,,,,,,,,,,,,,,,,,,,,,,,,,,,,,,,,,,,437.86507075000554,437.86507075000554,,,,,,,,,,,,,,,,,
