paradigm_name,trialNum,cue_onset,cue_dur,delayTime,delay_resp_period,rest_dur,trial_count,blockType,blockNum,delay_time,stimImage_i,stimImage,responseImage1,responseImage1_i,responseImage1_pos,responseImage1_X,responseImage1_Y,responseImage2,responseImage2_i,responseImage2_pos,responseImage2_X,responseImage2_Y,responseImage3,responseImage3_i,responseImage3_pos,responseImage3_X,responseImage3_Y,targImage,targImage_i,targImage_pos,targImage_X,targImage_Y,delay_onset,delay_dur,resp_onset,resp_dur,rest_onset,circle_dur,circle_onset,total_dur,cross_onset,cross_dur,blocks.thisRepN,blocks.thisTrialN,blocks.thisN,blocks.thisIndex,trials.thisRepN,trials.thisTrialN,trials.thisN,trials.thisIndex,key_resp.started,text.started,key_resp.keys,key_resp.rt,text_2.started,text_2.stopped,sample.started,Delay.started,sample.stopped,Delay.stopped,Response_1.started,Response_2.started,Response_3.started,roi.started,polygon.started,Response_1.stopped,Response_2.stopped,Response_3.stopped,roi.stopped,polygon.stopped,roi.numLooks,roi.timesOn,roi.timesOff,participant,session,date,expName,psychopyVersion,frameRate,
,,,,,,,,,,,,,,,,,,,,,,,,,,,,,,,,,,,,,,,,,,,,,,,,,,,17.51587912501418,17.51587912501418,t,6.743596084008459,,,,,,,,,,,,,,,,,,,,100001,001,2023-04-13_16h01.48.438,DMS_etROI_12-36_stimBlast,2022.2.4,59.80043100270544,
stimBlast2,36,0,0.1,0.3797027604789831,0.7,0.2,29,PRED,12,0.3797027604789831,2,images/picture_3.png,images/picture_1.png,0,"[11.733433509789462, -11.733433509789466]",11.733433509789462,-11.733433509789464,images/picture_2.png,1,"[-11.733433509789466, -11.733433509789462]",-11.733433509789464,-11.733433509789462,images/picture_3.png,2,"[11.733433509789464, 11.733433509789462]",11.733433509789464,11.733433509789462,images/picture_3.png,2,"[11.733433509789464, 11.733433509789462]","[11.733433509789464, 11.733433509789462]","[11.733433509789464, 11.733433509789462]",0.1,0.3797027604789831,0.4797027604789831,0.3202972395210169,0.8,0.2297027604789831,0,1.0,0.8,0.2,0,0,0,0,0,0,0,29,,,,,24.267528625001432,36.3183410410129,36.3183410410129,36.3183410410129,36.43354820800596,36.55051408300642,36.78450174999307,36.78450174999307,36.78450174999307,36.78450174999307,37.10122737500933,37.117399000009755,37.117399000009755,37.117399000009755,37.117399000009755,37.3183257500059,0,,,100001,001,2023-04-13_16h01.48.438,DMS_etROI_12-36_stimBlast,2022.2.4,59.80043100270544,
stimBlast2,36,0,0.1,0.3797027604789831,0.7,0.2,10,PRED,12,0.3797027604789831,2,images/picture_3.png,images/picture_1.png,0,"[11.733433509789462, -11.733433509789466]",11.733433509789462,-11.733433509789464,images/picture_2.png,1,"[-11.733433509789462, 11.733433509789464]",-11.733433509789462,11.733433509789464,images/picture_3.png,2,"[11.733433509789464, 11.733433509789462]",11.733433509789464,11.733433509789462,images/picture_3.png,2,"[11.733433509789464, 11.733433509789462]","[11.733433509789464, 11.733433509789462]","[11.733433509789464, 11.733433509789462]",0.1,0.3797027604789831,0.4797027604789831,0.3202972395210169,0.8,0.2297027604789831,0,1.0,0.8,0.2,0,0,0,0,0,1,1,10,,,,,,,37.3183257500059,37.3183257500059,37.41782083301223,37.55111004100763,37.78501070800121,37.78501070800121,37.78501070800121,37.78501070800121,38.10068770800717,38.117288415989606,38.117288415989606,38.117288415989606,38.117288415989606,38.30081808299292,0,,,100001,001,2023-04-13_16h01.48.438,DMS_etROI_12-36_stimBlast,2022.2.4,59.80043100270544,
stimBlast2,36,0,0.1,0.3797027604789831,0.7,0.2,20,PRED,12,0.3797027604789831,2,images/picture_3.png,images/picture_1.png,0,"[-11.733433509789462, 11.733433509789464]",-11.733433509789462,11.733433509789464,images/picture_2.png,1,"[-11.733433509789466, -11.733433509789462]",-11.733433509789464,-11.733433509789462,images/picture_3.png,2,"[11.733433509789462, -11.733433509789466]",11.733433509789462,-11.733433509789464,images/picture_3.png,2,"[11.733433509789462, -11.733433509789466]","[11.733433509789462, -11.733433509789466]","[11.733433509789462, -11.733433509789466]",0.1,0.3797027604789831,0.4797027604789831,0.3202972395210169,0.8,0.2297027604789831,0,1.0,0.8,0.2,0,0,0,0,0,2,2,20,,,,,,,38.30081808299292,38.30081808299292,38.400022290996276,38.534054499992635,38.76709804098937,38.76709804098937,38.76709804098937,38.76709804098937,39.100587207998615,39.100587207998615,39.100587207998615,39.100587207998615,39.100587207998615,39.312486957991496,0,,,100001,001,2023-04-13_16h01.48.438,DMS_etROI_12-36_stimBlast,2022.2.4,59.80043100270544,
stimBlast2,36,0,0.1,0.3797027604789831,0.7,0.2,24,PRED,12,0.3797027604789831,2,images/picture_3.png,images/picture_1.png,0,"[-11.733433509789466, -11.733433509789462]",-11.733433509789464,-11.733433509789462,images/picture_2.png,1,"[11.733433509789462, -11.733433509789466]",11.733433509789462,-11.733433509789464,images/picture_3.png,2,"[11.733433509789464, 11.733433509789462]",11.733433509789464,11.733433509789462,images/picture_3.png,2,"[11.733433509789464, 11.733433509789462]","[11.733433509789464, 11.733433509789462]","[11.733433509789464, 11.733433509789462]",0.1,0.3797027604789831,0.4797027604789831,0.3202972395210169,0.8,0.2297027604789831,0,1.0,0.8,0.2,0,0,0,0,0,3,3,24,,,,,,,39.312486957991496,39.312486957991496,39.41732062501251,39.550566457997775,39.76741604099516,39.76741604099516,39.76741604099516,39.76741604099516,40.10157479101326,40.10157479101326,40.10157479101326,40.10157479101326,40.10157479101326,40.31250687499414,0,,,100001,001,2023-04-13_16h01.48.438,DMS_etROI_12-36_stimBlast,2022.2.4,59.80043100270544,
stimBlast2,36,0,0.1,0.3797027604789831,0.7,0.2,19,PRED,12,0.3797027604789831,2,images/picture_3.png,images/picture_1.png,0,"[11.733433509789462, -11.733433509789466]",11.733433509789462,-11.733433509789464,images/picture_2.png,1,"[-11.733433509789462, 11.733433509789464]",-11.733433509789462,11.733433509789464,images/picture_3.png,2,"[-11.733433509789466, -11.733433509789462]",-11.733433509789464,-11.733433509789462,images/picture_3.png,2,"[-11.733433509789466, -11.733433509789462]","[-11.733433509789466, -11.733433509789462]","[-11.733433509789466, -11.733433509789462]",0.1,0.3797027604789831,0.4797027604789831,0.3202972395210169,0.8,0.2297027604789831,0,1.0,0.8,0.2,0,0,0,0,0,4,4,19,,,,,,,40.31250687499414,40.31250687499414,40.41742233300465,40.55143454100471,40.767480415990576,40.767480415990576,40.767480415990576,40.767480415990576,41.100969582999824,41.100969582999824,41.100969582999824,41.100969582999824,41.100969582999824,41.31139529100619,0,,,100001,001,2023-04-13_16h01.48.438,DMS_etROI_12-36_stimBlast,2022.2.4,59.80043100270544,
stimBlast2,36,0,0.1,0.3797027604789831,0.7,0.2,27,PRED,12,0.3797027604789831,2,images/picture_3.png,images/picture_1.png,0,"[11.733433509789462, -11.733433509789466]",11.733433509789462,-11.733433509789464,images/picture_2.png,1,"[-11.733433509789462, 11.733433509789464]",-11.733433509789462,11.733433509789464,images/picture_3.png,2,"[-11.733433509789466, -11.733433509789462]",-11.733433509789464,-11.733433509789462,images/picture_3.png,2,"[-11.733433509789466, -11.733433509789462]","[-11.733433509789466, -11.733433509789462]","[-11.733433509789466, -11.733433509789462]",0.1,0.3797027604789831,0.4797027604789831,0.3202972395210169,0.8,0.2297027604789831,0,1.0,0.8,0.2,0,0,0,0,0,5,5,27,,,,,,,41.31139529100619,41.31139529100619,41.41724158299621,41.550674416008405,41.76817937500891,41.76817937500891,41.76817937500891,41.76817937500891,42.10112616600236,42.10112616600236,42.10112616600236,42.10112616600236,42.10112616600236,42.31336554099107,0,,,100001,001,2023-04-13_16h01.48.438,DMS_etROI_12-36_stimBlast,2022.2.4,59.80043100270544,
stimBlast2,36,0,0.1,0.3797027604789831,0.7,0.2,5,PRED,12,0.3797027604789831,2,images/picture_3.png,images/picture_1.png,0,"[-11.733433509789462, 11.733433509789464]",-11.733433509789462,11.733433509789464,images/picture_2.png,1,"[-11.733433509789466, -11.733433509789462]",-11.733433509789464,-11.733433509789462,images/picture_3.png,2,"[11.733433509789462, -11.733433509789466]",11.733433509789462,-11.733433509789464,images/picture_3.png,2,"[11.733433509789462, -11.733433509789466]","[11.733433509789462, -11.733433509789466]","[11.733433509789462, -11.733433509789466]",0.1,0.3797027604789831,0.4797027604789831,0.3202972395210169,0.8,0.2297027604789831,0,1.0,0.8,0.2,0,0,0,0,0,6,6,5,,,,,,,42.31336554099107,42.31336554099107,42.41750729101477,42.551768416014966,42.767570541007444,42.767570541007444,42.767570541007444,42.767570541007444,43.10162187501555,43.10162187501555,43.10162187501555,43.10162187501555,43.10162187501555,43.3115367910068,0,,,100001,001,2023-04-13_16h01.48.438,DMS_etROI_12-36_stimBlast,2022.2.4,59.80043100270544,
stimBlast2,36,0,0.1,0.3797027604789831,0.7,0.2,25,PRED,12,0.3797027604789831,2,images/picture_3.png,images/picture_1.png,0,"[-11.733433509789462, 11.733433509789464]",-11.733433509789462,11.733433509789464,images/picture_2.png,1,"[11.733433509789462, -11.733433509789466]",11.733433509789462,-11.733433509789464,images/picture_3.png,2,"[-11.733433509789466, -11.733433509789462]",-11.733433509789464,-11.733433509789462,images/picture_3.png,2,"[-11.733433509789466, -11.733433509789462]","[-11.733433509789466, -11.733433509789462]","[-11.733433509789466, -11.733433509789462]",0.1,0.3797027604789831,0.4797027604789831,0.3202972395210169,0.8,0.2297027604789831,0,1.0,0.8,0.2,0,0,0,0,0,7,7,25,,,,,,,43.3115367910068,43.3115367910068,43.417400958016515,43.55096212500939,43.76807408299646,43.76807408299646,43.76807408299646,43.76807408299646,44.10098325001309,44.10098325001309,44.10098325001309,44.10098325001309,44.10098325001309,44.31075866598985,0,,,100001,001,2023-04-13_16h01.48.438,DMS_etROI_12-36_stimBlast,2022.2.4,59.80043100270544,
stimBlast2,36,0,0.1,0.3797027604789831,0.7,0.2,34,PRED,12,0.3797027604789831,2,images/picture_3.png,images/picture_1.png,0,"[11.733433509789462, -11.733433509789466]",11.733433509789462,-11.733433509789464,images/picture_2.png,1,"[11.733433509789464, 11.733433509789462]",11.733433509789464,11.733433509789462,images/picture_3.png,2,"[-11.733433509789466, -11.733433509789462]",-11.733433509789464,-11.733433509789462,images/picture_3.png,2,"[-11.733433509789466, -11.733433509789462]","[-11.733433509789466, -11.733433509789462]","[-11.733433509789466, -11.733433509789462]",0.1,0.3797027604789831,0.4797027604789831,0.3202972395210169,0.8,0.2297027604789831,0,1.0,0.8,0.2,0,0,0,0,0,8,8,34,,,,,,,44.31075866598985,44.31075866598985,44.41741454100702,44.55075812499854,44.767653040995356,44.767653040995356,44.767653040995356,44.767653040995356,45.1011753329949,45.1011753329949,45.1011753329949,45.1011753329949,45.1011753329949,45.31194941600552,0,,,100001,001,2023-04-13_16h01.48.438,DMS_etROI_12-36_stimBlast,2022.2.4,59.80043100270544,
stimBlast2,36,0,0.1,0.3797027604789831,0.7,0.2,15,PRED,12,0.3797027604789831,2,images/picture_3.png,images/picture_1.png,0,"[-11.733433509789466, -11.733433509789462]",-11.733433509789464,-11.733433509789462,images/picture_2.png,1,"[11.733433509789464, 11.733433509789462]",11.733433509789464,11.733433509789462,images/picture_3.png,2,"[11.733433509789462, -11.733433509789466]",11.733433509789462,-11.733433509789464,images/picture_3.png,2,"[11.733433509789462, -11.733433509789466]","[11.733433509789462, -11.733433509789466]","[11.733433509789462, -11.733433509789466]",0.1,0.3797027604789831,0.4797027604789831,0.3202972395210169,0.8,0.2297027604789831,0,1.0,0.8,0.2,0,0,0,0,0,9,9,15,,,,,,,45.31194941600552,45.31194941600552,45.418155249994015,45.551452624989906,45.76765491600963,45.76765491600963,45.76765491600963,45.76765491600963,46.1010512910143,46.1010512910143,46.1010512910143,46.1010512910143,46.1010512910143,46.31197437501396,0,,,100001,001,2023-04-13_16h01.48.438,DMS_etROI_12-36_stimBlast,2022.2.4,59.80043100270544,
stimBlast2,36,0,0.1,0.3797027604789831,0.7,0.2,23,PRED,12,0.3797027604789831,2,images/picture_3.png,images/picture_1.png,0,"[-11.733433509789462, 11.733433509789464]",-11.733433509789462,11.733433509789464,images/picture_2.png,1,"[-11.733433509789466, -11.733433509789462]",-11.733433509789464,-11.733433509789462,images/picture_3.png,2,"[11.733433509789462, -11.733433509789466]",11.733433509789462,-11.733433509789464,images/picture_3.png,2,"[11.733433509789462, -11.733433509789466]","[11.733433509789462, -11.733433509789466]","[11.733433509789462, -11.733433509789466]",0.1,0.3797027604789831,0.4797027604789831,0.3202972395210169,0.8,0.2297027604789831,0,1.0,0.8,0.2,0,0,0,0,0,10,10,23,,,,,,,46.31197437501396,46.31197437501396,46.41738150001038,46.550944916001754,46.767549208016135,46.767549208016135,46.767549208016135,46.767549208016135,47.10125700000208,47.10125700000208,47.10125700000208,47.10125700000208,47.10125700000208,47.31072795801447,0,,,100001,001,2023-04-13_16h01.48.438,DMS_etROI_12-36_stimBlast,2022.2.4,59.80043100270544,
stimBlast2,36,0,0.1,0.3797027604789831,0.7,0.2,0,PRED,12,0.3797027604789831,2,images/picture_3.png,images/picture_1.png,0,"[11.733433509789462, -11.733433509789466]",11.733433509789462,-11.733433509789464,images/picture_2.png,1,"[-11.733433509789462, 11.733433509789464]",-11.733433509789462,11.733433509789464,images/picture_3.png,2,"[11.733433509789464, 11.733433509789462]",11.733433509789464,11.733433509789462,images/picture_3.png,2,"[11.733433509789464, 11.733433509789462]","[11.733433509789464, 11.733433509789462]","[11.733433509789464, 11.733433509789462]",0.1,0.3797027604789831,0.4797027604789831,0.3202972395210169,0.8,0.2297027604789831,0,1.0,0.8,0.2,0,0,0,0,0,11,11,0,,,,,,,47.31072795801447,47.31072795801447,47.417419416015036,47.55091491600615,47.76754558298853,47.76754558298853,47.76754558298853,47.76754558298853,48.10194966601557,48.10194966601557,48.10194966601557,48.10194966601557,48.10194966601557,48.317309790989384,0,,,100001,001,2023-04-13_16h01.48.438,DMS_etROI_12-36_stimBlast,2022.2.4,59.80043100270544,
stimBlast2,36,0,0.1,0.3797027604789831,0.7,0.2,21,PRED,12,0.3797027604789831,2,images/picture_3.png,images/picture_1.png,0,"[11.733433509789464, 11.733433509789462]",11.733433509789464,11.733433509789462,images/picture_2.png,1,"[-11.733433509789462, 11.733433509789464]",-11.733433509789462,11.733433509789464,images/picture_3.png,2,"[11.733433509789462, -11.733433509789466]",11.733433509789462,-11.733433509789464,images/picture_3.png,2,"[11.733433509789462, -11.733433509789466]","[11.733433509789462, -11.733433509789466]","[11.733433509789462, -11.733433509789466]",0.1,0.3797027604789831,0.4797027604789831,0.3202972395210169,0.8,0.2297027604789831,0,1.0,0.8,0.2,0,0,0,0,0,12,12,21,,,,,,,48.317309790989384,48.317309790989384,48.41720279099536,48.550398833001964,48.78411158299423,48.78411158299423,48.78411158299423,48.78411158299423,49.11729304099572,49.11729304099572,49.11729304099572,49.11729304099572,49.11729304099572,49.332787749997806,0,,,100001,001,2023-04-13_16h01.48.438,DMS_etROI_12-36_stimBlast,2022.2.4,59.80043100270544,
stimBlast2,36,0,0.1,0.3797027604789831,0.7,0.2,9,PRED,12,0.3797027604789831,2,images/picture_3.png,images/picture_1.png,0,"[11.733433509789464, 11.733433509789462]",11.733433509789464,11.733433509789462,images/picture_2.png,1,"[-11.733433509789466, -11.733433509789462]",-11.733433509789464,-11.733433509789462,images/picture_3.png,2,"[-11.733433509789462, 11.733433509789464]",-11.733433509789462,11.733433509789464,images/picture_3.png,2,"[-11.733433509789462, 11.733433509789464]","[-11.733433509789462, 11.733433509789464]","[-11.733433509789462, 11.733433509789464]",0.1,0.3797027604789831,0.4797027604789831,0.3202972395210169,0.8,0.2297027604789831,0,1.0,0.8,0.2,0,0,0,0,0,13,13,9,,,,,,,49.332787749997806,49.332787749997806,49.433879958000034,49.56755620799959,49.784379415999865,49.784379415999865,49.784379415999865,49.784379415999865,50.10162987498916,50.117538666003384,50.117538666003384,50.117538666003384,50.117538666003384,50.311008999997284,0,,,100001,001,2023-04-13_16h01.48.438,DMS_etROI_12-36_stimBlast,2022.2.4,59.80043100270544,
stimBlast2,36,0,0.1,0.3797027604789831,0.7,0.2,1,PRED,12,0.3797027604789831,2,images/picture_3.png,images/picture_1.png,0,"[-11.733433509789466, -11.733433509789462]",-11.733433509789464,-11.733433509789462,images/picture_2.png,1,"[-11.733433509789462, 11.733433509789464]",-11.733433509789462,11.733433509789464,images/picture_3.png,2,"[11.733433509789464, 11.733433509789462]",11.733433509789464,11.733433509789462,images/picture_3.png,2,"[11.733433509789464, 11.733433509789462]","[11.733433509789464, 11.733433509789462]","[11.733433509789464, 11.733433509789462]",0.1,0.3797027604789831,0.4797027604789831,0.3202972395210169,0.8,0.2297027604789831,0,1.0,0.8,0.2,0,0,0,0,0,14,14,1,,,,,,,50.311008999997284,50.311008999997284,50.41769195799134,50.55125437499373,50.767554582998855,50.767554582998855,50.767554582998855,50.767554582998855,51.10124370799167,51.10124370799167,51.10124370799167,51.10124370799167,51.10124370799167,51.31298254101421,0,,,100001,001,2023-04-13_16h01.48.438,DMS_etROI_12-36_stimBlast,2022.2.4,59.80043100270544,
stimBlast2,36,0,0.1,0.3797027604789831,0.7,0.2,7,PRED,12,0.3797027604789831,2,images/picture_3.png,images/picture_1.png,0,"[-11.733433509789462, 11.733433509789464]",-11.733433509789462,11.733433509789464,images/picture_2.png,1,"[11.733433509789462, -11.733433509789466]",11.733433509789462,-11.733433509789464,images/picture_3.png,2,"[11.733433509789464, 11.733433509789462]",11.733433509789464,11.733433509789462,images/picture_3.png,2,"[11.733433509789464, 11.733433509789462]","[11.733433509789464, 11.733433509789462]","[11.733433509789464, 11.733433509789462]",0.1,0.3797027604789831,0.4797027604789831,0.3202972395210169,0.8,0.2297027604789831,0,1.0,0.8,0.2,0,0,0,0,0,15,15,7,,,,,,,51.31298254101421,51.31298254101421,51.41783150000265,51.55107937499997,51.76758904100279,51.76758904100279,51.76758904100279,51.76758904100279,52.100854832999175,52.100854832999175,52.100854832999175,52.100854832999175,52.100854832999175,52.31102737499168,0,,,100001,001,2023-04-13_16h01.48.438,DMS_etROI_12-36_stimBlast,2022.2.4,59.80043100270544,
stimBlast2,36,0,0.1,0.3797027604789831,0.7,0.2,22,PRED,12,0.3797027604789831,2,images/picture_3.png,images/picture_1.png,0,"[11.733433509789462, -11.733433509789466]",11.733433509789462,-11.733433509789464,images/picture_2.png,1,"[11.733433509789464, 11.733433509789462]",11.733433509789464,11.733433509789462,images/picture_3.png,2,"[-11.733433509789466, -11.733433509789462]",-11.733433509789464,-11.733433509789462,images/picture_3.png,2,"[-11.733433509789466, -11.733433509789462]","[-11.733433509789466, -11.733433509789462]","[-11.733433509789466, -11.733433509789462]",0.1,0.3797027604789831,0.4797027604789831,0.3202972395210169,0.8,0.2297027604789831,0,1.0,0.8,0.2,0,0,0,0,0,16,16,22,,,,,,,52.31102737499168,52.31102737499168,52.41802254100912,52.551183833013056,52.76745074999053,52.76745074999053,52.76745074999053,52.76745074999053,53.10129787499318,53.10129787499318,53.10129787499318,53.10129787499318,53.10129787499318,53.31263004100765,0,,,100001,001,2023-04-13_16h01.48.438,DMS_etROI_12-36_stimBlast,2022.2.4,59.80043100270544,
stimBlast2,36,0,0.1,0.3797027604789831,0.7,0.2,14,PRED,12,0.3797027604789831,2,images/picture_3.png,images/picture_1.png,0,"[11.733433509789464, 11.733433509789462]",11.733433509789464,11.733433509789462,images/picture_2.png,1,"[11.733433509789462, -11.733433509789466]",11.733433509789462,-11.733433509789464,images/picture_3.png,2,"[-11.733433509789462, 11.733433509789464]",-11.733433509789462,11.733433509789464,images/picture_3.png,2,"[-11.733433509789462, 11.733433509789464]","[-11.733433509789462, 11.733433509789464]","[-11.733433509789462, 11.733433509789464]",0.1,0.3797027604789831,0.4797027604789831,0.3202972395210169,0.8,0.2297027604789831,0,1.0,0.8,0.2,0,0,0,0,0,17,17,14,,,,,,,53.31263004100765,53.31263004100765,53.417891207995126,53.551057250006124,53.767768249992514,53.767768249992514,53.767768249992514,53.767768249992514,54.10109920799732,54.10109920799732,54.10109920799732,54.10109920799732,54.10109920799732,54.31091875000857,0,,,100001,001,2023-04-13_16h01.48.438,DMS_etROI_12-36_stimBlast,2022.2.4,59.80043100270544,
stimBlast2,36,0,0.1,0.3797027604789831,0.7,0.2,30,PRED,12,0.3797027604789831,2,images/picture_3.png,images/picture_1.png,0,"[11.733433509789462, -11.733433509789466]",11.733433509789462,-11.733433509789464,images/picture_2.png,1,"[11.733433509789464, 11.733433509789462]",11.733433509789464,11.733433509789462,images/picture_3.png,2,"[-11.733433509789462, 11.733433509789464]",-11.733433509789462,11.733433509789464,images/picture_3.png,2,"[-11.733433509789462, 11.733433509789464]","[-11.733433509789462, 11.733433509789464]","[-11.733433509789462, 11.733433509789464]",0.1,0.3797027604789831,0.4797027604789831,0.3202972395210169,0.8,0.2297027604789831,0,1.0,0.8,0.2,0,0,0,0,0,18,18,30,,,,,,,54.31091875000857,54.31091875000857,54.417698500008555,54.55091049999464,54.76762475000578,54.76762475000578,54.76762475000578,54.76762475000578,55.10102495801402,55.10102495801402,55.10102495801402,55.10102495801402,55.10102495801402,55.311066416004905,0,,,100001,001,2023-04-13_16h01.48.438,DMS_etROI_12-36_stimBlast,2022.2.4,59.80043100270544,
stimBlast2,36,0,0.1,0.3797027604789831,0.7,0.2,6,PRED,12,0.3797027604789831,2,images/picture_3.png,images/picture_1.png,0,"[11.733433509789462, -11.733433509789466]",11.733433509789462,-11.733433509789464,images/picture_2.png,1,"[11.733433509789464, 11.733433509789462]",11.733433509789464,11.733433509789462,images/picture_3.png,2,"[-11.733433509789462, 11.733433509789464]",-11.733433509789462,11.733433509789464,images/picture_3.png,2,"[-11.733433509789462, 11.733433509789464]","[-11.733433509789462, 11.733433509789464]","[-11.733433509789462, 11.733433509789464]",0.1,0.3797027604789831,0.4797027604789831,0.3202972395210169,0.8,0.2297027604789831,0,1.0,0.8,0.2,0,0,0,0,0,19,19,6,,,,,,,55.311066416004905,55.311066416004905,55.41759416600689,55.55123174999608,55.76762695799698,55.76762695799698,55.76762695799698,55.76762695799698,56.10103225000785,56.10103225000785,56.10103225000785,56.10103225000785,56.10103225000785,56.31149829100468,0,,,100001,001,2023-04-13_16h01.48.438,DMS_etROI_12-36_stimBlast,2022.2.4,59.80043100270544,
stimBlast2,36,0,0.1,0.3797027604789831,0.7,0.2,4,PRED,12,0.3797027604789831,2,images/picture_3.png,images/picture_1.png,0,"[-11.733433509789466, -11.733433509789462]",-11.733433509789464,-11.733433509789462,images/picture_2.png,1,"[11.733433509789464, 11.733433509789462]",11.733433509789464,11.733433509789462,images/picture_3.png,2,"[11.733433509789462, -11.733433509789466]",11.733433509789462,-11.733433509789464,images/picture_3.png,2,"[11.733433509789462, -11.733433509789466]","[11.733433509789462, -11.733433509789466]","[11.733433509789462, -11.733433509789466]",0.1,0.3797027604789831,0.4797027604789831,0.3202972395210169,0.8,0.2297027604789831,0,1.0,0.8,0.2,0,0,0,0,0,20,20,4,,,,,,,56.31149829100468,56.31149829100468,56.417641208012355,56.55117487499956,56.76818425001693,56.76818425001693,56.76818425001693,56.76818425001693,57.10095341599663,57.10095341599663,57.10095341599663,57.10095341599663,57.10095341599663,57.31163062501582,0,,,100001,001,2023-04-13_16h01.48.438,DMS_etROI_12-36_stimBlast,2022.2.4,59.80043100270544,
stimBlast2,36,0,0.1,0.3797027604789831,0.7,0.2,31,PRED,12,0.3797027604789831,2,images/picture_3.png,images/picture_1.png,0,"[-11.733433509789462, 11.733433509789464]",-11.733433509789462,11.733433509789464,images/picture_2.png,1,"[11.733433509789464, 11.733433509789462]",11.733433509789464,11.733433509789462,images/picture_3.png,2,"[-11.733433509789466, -11.733433509789462]",-11.733433509789464,-11.733433509789462,images/picture_3.png,2,"[-11.733433509789466, -11.733433509789462]","[-11.733433509789466, -11.733433509789462]","[-11.733433509789466, -11.733433509789462]",0.1,0.3797027604789831,0.4797027604789831,0.3202972395210169,0.8,0.2297027604789831,0,1.0,0.8,0.2,0,0,0,0,0,21,21,31,,,,,,,57.31163062501582,57.31163062501582,57.418038583011366,57.55086504100473,57.76797241601162,57.76797241601162,57.76797241601162,57.76797241601162,58.101240332995076,58.101240332995076,58.101240332995076,58.101240332995076,58.101240332995076,58.31210962499608,0,,,100001,001,2023-04-13_16h01.48.438,DMS_etROI_12-36_stimBlast,2022.2.4,59.80043100270544,
stimBlast2,36,0,0.1,0.3797027604789831,0.7,0.2,26,PRED,12,0.3797027604789831,2,images/picture_3.png,images/picture_1.png,0,"[-11.733433509789462, 11.733433509789464]",-11.733433509789462,11.733433509789464,images/picture_2.png,1,"[-11.733433509789466, -11.733433509789462]",-11.733433509789464,-11.733433509789462,images/picture_3.png,2,"[11.733433509789462, -11.733433509789466]",11.733433509789462,-11.733433509789464,images/picture_3.png,2,"[11.733433509789462, -11.733433509789466]","[11.733433509789462, -11.733433509789466]","[11.733433509789462, -11.733433509789466]",0.1,0.3797027604789831,0.4797027604789831,0.3202972395210169,0.8,0.2297027604789831,0,1.0,0.8,0.2,0,0,0,0,0,22,22,26,,,,,,,58.31210962499608,58.31210962499608,58.41715504101012,58.5503996250045,58.767470207996666,58.767470207996666,58.767470207996666,58.767470207996666,59.10084170801565,59.10084170801565,59.10084170801565,59.10084170801565,59.10084170801565,59.30025400000159,0,,,100001,001,2023-04-13_16h01.48.438,DMS_etROI_12-36_stimBlast,2022.2.4,59.80043100270544,
stimBlast2,36,0,0.1,0.3797027604789831,0.7,0.2,28,PRED,12,0.3797027604789831,2,images/picture_3.png,images/picture_1.png,0,"[11.733433509789464, 11.733433509789462]",11.733433509789464,11.733433509789462,images/picture_2.png,1,"[-11.733433509789466, -11.733433509789462]",-11.733433509789464,-11.733433509789462,images/picture_3.png,2,"[-11.733433509789462, 11.733433509789464]",-11.733433509789462,11.733433509789464,images/picture_3.png,2,"[-11.733433509789462, 11.733433509789464]","[-11.733433509789462, 11.733433509789464]","[-11.733433509789462, 11.733433509789464]",0.1,0.3797027604789831,0.4797027604789831,0.3202972395210169,0.8,0.2297027604789831,0,1.0,0.8,0.2,0,0,0,0,0,23,23,28,,,,,,,59.30025400000159,59.30025400000159,59.400230125000235,59.53410808299668,59.76767783300602,59.76767783300602,59.76767783300602,59.76767783300602,60.08429445800721,60.10146762500517,60.10146762500517,60.10146762500517,60.10146762500517,60.29539941600524,0,,,100001,001,2023-04-13_16h01.48.438,DMS_etROI_12-36_stimBlast,2022.2.4,59.80043100270544,
stimBlast2,36,0,0.1,0.3797027604789831,0.7,0.2,17,PRED,12,0.3797027604789831,2,images/picture_3.png,images/picture_1.png,0,"[11.733433509789462, -11.733433509789466]",11.733433509789462,-11.733433509789464,images/picture_2.png,1,"[11.733433509789464, 11.733433509789462]",11.733433509789464,11.733433509789462,images/picture_3.png,2,"[-11.733433509789466, -11.733433509789462]",-11.733433509789464,-11.733433509789462,images/picture_3.png,2,"[-11.733433509789466, -11.733433509789462]","[-11.733433509789466, -11.733433509789462]","[-11.733433509789466, -11.733433509789462]",0.1,0.3797027604789831,0.4797027604789831,0.3202972395210169,0.8,0.2297027604789831,0,1.0,0.8,0.2,0,0,0,0,0,24,24,17,,,,,,,60.29539941600524,60.29539941600524,60.40079962500022,60.535017540998524,60.751678791013546,60.751678791013546,60.751678791013546,60.751678791013546,61.08488025001134,61.08488025001134,61.08488025001134,61.08488025001134,61.08488025001134,61.29539400001522,0,,,100001,001,2023-04-13_16h01.48.438,DMS_etROI_12-36_stimBlast,2022.2.4,59.80043100270544,
stimBlast2,36,0,0.1,0.3797027604789831,0.7,0.2,12,PRED,12,0.3797027604789831,2,images/picture_3.png,images/picture_1.png,0,"[11.733433509789464, 11.733433509789462]",11.733433509789464,11.733433509789462,images/picture_2.png,1,"[-11.733433509789462, 11.733433509789464]",-11.733433509789462,11.733433509789464,images/picture_3.png,2,"[11.733433509789462, -11.733433509789466]",11.733433509789462,-11.733433509789464,images/picture_3.png,2,"[11.733433509789462, -11.733433509789466]","[11.733433509789462, -11.733433509789466]","[11.733433509789462, -11.733433509789466]",0.1,0.3797027604789831,0.4797027604789831,0.3202972395210169,0.8,0.2297027604789831,0,1.0,0.8,0.2,0,0,0,0,0,25,25,12,,,,,,,61.29539400001522,61.29539400001522,61.400869583012536,61.5342628750077,61.75169787500636,61.75169787500636,61.75169787500636,61.75169787500636,62.08427262501209,62.08427262501209,62.08427262501209,62.08427262501209,62.08427262501209,62.29518095799722,0,,,100001,001,2023-04-13_16h01.48.438,DMS_etROI_12-36_stimBlast,2022.2.4,59.80043100270544,
stimBlast2,36,0,0.1,0.3797027604789831,0.7,0.2,3,PRED,12,0.3797027604789831,2,images/picture_3.png,images/picture_1.png,0,"[-11.733433509789466, -11.733433509789462]",-11.733433509789464,-11.733433509789462,images/picture_2.png,1,"[11.733433509789464, 11.733433509789462]",11.733433509789464,11.733433509789462,images/picture_3.png,2,"[11.733433509789462, -11.733433509789466]",11.733433509789462,-11.733433509789464,images/picture_3.png,2,"[11.733433509789462, -11.733433509789466]","[11.733433509789462, -11.733433509789466]","[11.733433509789462, -11.733433509789466]",0.1,0.3797027604789831,0.4797027604789831,0.3202972395210169,0.8,0.2297027604789831,0,1.0,0.8,0.2,0,0,0,0,0,26,26,3,,,,,,,62.29518095799722,62.29518095799722,62.40133904101094,62.5345543329895,62.75130054101464,62.75130054101464,62.75130054101464,62.75130054101464,63.08445412499714,63.08445412499714,63.08445412499714,63.08445412499714,63.08445412499714,63.295743791008135,0,,,100001,001,2023-04-13_16h01.48.438,DMS_etROI_12-36_stimBlast,2022.2.4,59.80043100270544,
stimBlast2,36,0,0.1,0.3797027604789831,0.7,0.2,11,PRED,12,0.3797027604789831,2,images/picture_3.png,images/picture_1.png,0,"[-11.733433509789462, 11.733433509789464]",-11.733433509789462,11.733433509789464,images/picture_2.png,1,"[11.733433509789462, -11.733433509789466]",11.733433509789462,-11.733433509789464,images/picture_3.png,2,"[-11.733433509789466, -11.733433509789462]",-11.733433509789464,-11.733433509789462,images/picture_3.png,2,"[-11.733433509789466, -11.733433509789462]","[-11.733433509789466, -11.733433509789462]","[-11.733433509789466, -11.733433509789462]",0.1,0.3797027604789831,0.4797027604789831,0.3202972395210169,0.8,0.2297027604789831,0,1.0,0.8,0.2,0,0,0,0,0,27,27,11,,,,,,,63.295743791008135,63.295743791008135,63.400862957991194,63.53451504101395,63.854862458014395,63.854862458014395,63.854862458014395,63.854862458014395,64.08484058300382,64.18444916600129,64.18444916600129,64.18444916600129,64.18444916600129,64.29424670801382,0,,,100001,001,2023-04-13_16h01.48.438,DMS_etROI_12-36_stimBlast,2022.2.4,59.80043100270544,
stimBlast2,36,0,0.1,0.3797027604789831,0.7,0.2,18,PRED,12,0.3797027604789831,2,images/picture_3.png,images/picture_1.png,0,"[-11.733433509789462, 11.733433509789464]",-11.733433509789462,11.733433509789464,images/picture_2.png,1,"[-11.733433509789466, -11.733433509789462]",-11.733433509789464,-11.733433509789462,images/picture_3.png,2,"[11.733433509789462, -11.733433509789466]",11.733433509789462,-11.733433509789464,images/picture_3.png,2,"[11.733433509789462, -11.733433509789466]","[11.733433509789462, -11.733433509789466]","[11.733433509789462, -11.733433509789466]",0.1,0.3797027604789831,0.4797027604789831,0.3202972395210169,0.8,0.2297027604789831,0,1.0,0.8,0.2,0,0,0,0,0,28,28,18,,,,,,,64.29424670801382,64.29424670801382,64.40113449998898,64.53421395801706,64.75177137501305,64.75177137501305,64.75177137501305,64.75177137501305,65.08456345798913,65.08456345798913,65.08456345798913,65.08456345798913,65.08456345798913,65.29481870800373,0,,,100001,001,2023-04-13_16h01.48.438,DMS_etROI_12-36_stimBlast,2022.2.4,59.80043100270544,
stimBlast2,36,0,0.1,0.3797027604789831,0.7,0.2,35,PRED,12,0.3797027604789831,2,images/picture_3.png,images/picture_1.png,0,"[-11.733433509789466, -11.733433509789462]",-11.733433509789464,-11.733433509789462,images/picture_2.png,1,"[11.733433509789462, -11.733433509789466]",11.733433509789462,-11.733433509789464,images/picture_3.png,2,"[11.733433509789464, 11.733433509789462]",11.733433509789464,11.733433509789462,images/picture_3.png,2,"[11.733433509789464, 11.733433509789462]","[11.733433509789464, 11.733433509789462]","[11.733433509789464, 11.733433509789462]",0.1,0.3797027604789831,0.4797027604789831,0.3202972395210169,0.8,0.2297027604789831,0,1.0,0.8,0.2,0,0,0,0,0,29,29,35,,,,,,,65.29481870800373,65.29481870800373,65.40104766600416,65.53473616600968,65.75171145799686,65.75171145799686,65.75171145799686,65.75171145799686,66.08463183301501,66.08463183301501,66.08463183301501,66.08463183301501,66.08463183301501,66.29571583299548,0,,,100001,001,2023-04-13_16h01.48.438,DMS_etROI_12-36_stimBlast,2022.2.4,59.80043100270544,
stimBlast2,36,0,0.1,0.3797027604789831,0.7,0.2,16,PRED,12,0.3797027604789831,2,images/picture_3.png,images/picture_1.png,0,"[-11.733433509789466, -11.733433509789462]",-11.733433509789464,-11.733433509789462,images/picture_2.png,1,"[11.733433509789464, 11.733433509789462]",11.733433509789464,11.733433509789462,images/picture_3.png,2,"[-11.733433509789462, 11.733433509789464]",-11.733433509789462,11.733433509789464,images/picture_3.png,2,"[-11.733433509789462, 11.733433509789464]","[-11.733433509789462, 11.733433509789464]","[-11.733433509789462, 11.733433509789464]",0.1,0.3797027604789831,0.4797027604789831,0.3202972395210169,0.8,0.2297027604789831,0,1.0,0.8,0.2,0,0,0,0,0,30,30,16,,,,,,,66.29571583299548,66.29571583299548,66.40118537499802,66.53420616599033,66.75101587499375,66.75101587499375,66.75101587499375,66.75101587499375,67.08434187501553,67.08434187501553,67.08434187501553,67.08434187501553,67.08434187501553,67.29492841599858,0,,,100001,001,2023-04-13_16h01.48.438,DMS_etROI_12-36_stimBlast,2022.2.4,59.80043100270544,
stimBlast2,36,0,0.1,0.3797027604789831,0.7,0.2,2,PRED,12,0.3797027604789831,2,images/picture_3.png,images/picture_1.png,0,"[-11.733433509789462, 11.733433509789464]",-11.733433509789462,11.733433509789464,images/picture_2.png,1,"[11.733433509789462, -11.733433509789466]",11.733433509789462,-11.733433509789464,images/picture_3.png,2,"[11.733433509789464, 11.733433509789462]",11.733433509789464,11.733433509789462,images/picture_3.png,2,"[11.733433509789464, 11.733433509789462]","[11.733433509789464, 11.733433509789462]","[11.733433509789464, 11.733433509789462]",0.1,0.3797027604789831,0.4797027604789831,0.3202972395210169,0.8,0.2297027604789831,0,1.0,0.8,0.2,0,0,0,0,0,31,31,2,,,,,,,67.29492841599858,67.29492841599858,67.40154600000824,67.53445549999014,67.75160004099598,67.75160004099598,67.75160004099598,67.75160004099598,68.08451566600706,68.08451566600706,68.08451566600706,68.08451566600706,68.08451566600706,68.29449558301712,0,,,100001,001,2023-04-13_16h01.48.438,DMS_etROI_12-36_stimBlast,2022.2.4,59.80043100270544,
stimBlast2,36,0,0.1,0.3797027604789831,0.7,0.2,32,PRED,12,0.3797027604789831,2,images/picture_3.png,images/picture_1.png,0,"[11.733433509789462, -11.733433509789466]",11.733433509789462,-11.733433509789464,images/picture_2.png,1,"[11.733433509789464, 11.733433509789462]",11.733433509789464,11.733433509789462,images/picture_3.png,2,"[-11.733433509789462, 11.733433509789464]",-11.733433509789462,11.733433509789464,images/picture_3.png,2,"[-11.733433509789462, 11.733433509789464]","[-11.733433509789462, 11.733433509789464]","[-11.733433509789462, 11.733433509789464]",0.1,0.3797027604789831,0.4797027604789831,0.3202972395210169,0.8,0.2297027604789831,0,1.0,0.8,0.2,0,0,0,0,0,32,32,32,,,,,,,68.29449558301712,68.29449558301712,68.40110379099497,68.53421820799122,68.75081245799083,68.75081245799083,68.75081245799083,68.75081245799083,69.08421200001612,69.08421200001612,69.08421200001612,69.08421200001612,69.08421200001612,69.28382329101441,0,,,100001,001,2023-04-13_16h01.48.438,DMS_etROI_12-36_stimBlast,2022.2.4,59.80043100270544,
stimBlast2,36,0,0.1,0.3797027604789831,0.7,0.2,33,PRED,12,0.3797027604789831,2,images/picture_3.png,images/picture_1.png,0,"[-11.733433509789466, -11.733433509789462]",-11.733433509789464,-11.733433509789462,images/picture_2.png,1,"[11.733433509789462, -11.733433509789466]",11.733433509789462,-11.733433509789464,images/picture_3.png,2,"[-11.733433509789462, 11.733433509789464]",-11.733433509789462,11.733433509789464,images/picture_3.png,2,"[-11.733433509789462, 11.733433509789464]","[-11.733433509789462, 11.733433509789464]","[-11.733433509789462, 11.733433509789464]",0.1,0.3797027604789831,0.4797027604789831,0.3202972395210169,0.8,0.2297027604789831,0,1.0,0.8,0.2,0,0,0,0,0,33,33,33,,,,,,,69.28382329101441,69.28382329101441,69.38394804100972,69.51750650000758,69.75098208300187,69.75098208300187,69.75098208300187,69.75098208300187,70.0678033750155,70.08444199999212,70.08444199999212,70.08444199999212,70.08444199999212,70.27799541599234,0,,,100001,001,2023-04-13_16h01.48.438,DMS_etROI_12-36_stimBlast,2022.2.4,59.80043100270544,
stimBlast2,36,0,0.1,0.3797027604789831,0.7,0.2,8,PRED,12,0.3797027604789831,2,images/picture_3.png,images/picture_1.png,0,"[11.733433509789462, -11.733433509789466]",11.733433509789462,-11.733433509789464,images/picture_2.png,1,"[-11.733433509789462, 11.733433509789464]",-11.733433509789462,11.733433509789464,images/picture_3.png,2,"[11.733433509789464, 11.733433509789462]",11.733433509789464,11.733433509789462,images/picture_3.png,2,"[11.733433509789464, 11.733433509789462]","[11.733433509789464, 11.733433509789462]","[11.733433509789464, 11.733433509789462]",0.1,0.3797027604789831,0.4797027604789831,0.3202972395210169,0.8,0.2297027604789831,0,1.0,0.8,0.2,0,0,0,0,0,34,34,8,,,,,,,70.27799541599234,70.27799541599234,70.38463824999053,70.51808012500987,70.73508408298949,70.73508408298949,70.73508408298949,70.73508408298949,71.06757562499843,71.06757562499843,71.06757562499843,71.06757562499843,71.06757562499843,71.27804487501271,0,,,100001,001,2023-04-13_16h01.48.438,DMS_etROI_12-36_stimBlast,2022.2.4,59.80043100270544,
stimBlast2,36,0,0.1,0.3797027604789831,0.7,0.2,13,PRED,12,0.3797027604789831,2,images/picture_3.png,images/picture_1.png,0,"[-11.733433509789462, 11.733433509789464]",-11.733433509789462,11.733433509789464,images/picture_2.png,1,"[-11.733433509789466, -11.733433509789462]",-11.733433509789464,-11.733433509789462,images/picture_3.png,2,"[11.733433509789464, 11.733433509789462]",11.733433509789464,11.733433509789462,images/picture_3.png,2,"[11.733433509789464, 11.733433509789462]","[11.733433509789464, 11.733433509789462]","[11.733433509789464, 11.733433509789462]",0.1,0.3797027604789831,0.4797027604789831,0.3202972395210169,0.8,0.2297027604789831,0,1.0,0.8,0.2,0,0,0,0,0,35,35,13,,,,,,,71.27804487501271,71.27804487501271,71.38469883298967,71.5176323330088,71.73434220801573,71.73434220801573,71.73434220801573,71.73434220801573,72.06780837499537,72.06780837499537,72.06780837499537,72.06780837499537,72.06780837499537,72.41379062499618,0,,,100001,001,2023-04-13_16h01.48.438,DMS_etROI_12-36_stimBlast,2022.2.4,59.80043100270544,
,,,,,,,,,,,,,,,,,,,,,,,,,,,,,,,,,,,,,,,,,,,0,0,0,0,,,,,,,,,72.41379062499618,84.45663745800266,,,,,,,,,,,,,,,,,,100001,001,2023-04-13_16h01.48.438,DMS_etROI_12-36_stimBlast,2022.2.4,59.80043100270544,
stimBlast2,36,0,0.1,0.3797027604789831,0.7,0.2,39,UNPRED,12,0.3797027604789831,1,images/picture_2.png,images/picture_1.png,0,"[11.733433509789462, -11.733433509789466]",11.733433509789462,-11.733433509789464,images/picture_2.png,1,"[-11.733433509789462, 11.733433509789464]",-11.733433509789462,11.733433509789464,images/picture_3.png,2,"[11.733433509789464, 11.733433509789462]",11.733433509789464,11.733433509789462,images/picture_2.png,1,"[-11.733433509789462, 11.733433509789464]","[-11.733433509789462, 11.733433509789464]","[-11.733433509789462, 11.733433509789464]",0.1,0.3797027604789831,0.4797027604789831,0.3202972395210169,0.8,0.2297027604789831,0,1.0,0.8,0.2,1,0,1,0,0,0,0,3,,,,,,,84.45663745800266,84.45663745800266,84.56805145801627,84.7016137909959,84.93451333299163,84.93451333299163,84.93451333299163,84.93451333299163,85.25135037500877,85.26806341600604,85.26806341600604,85.26806341600604,85.26806341600604,85.46211470800336,0,,,100001,001,2023-04-13_16h01.48.438,DMS_etROI_12-36_stimBlast,2022.2.4,59.80043100270544,
stimBlast2,36,0,0.1,0.3797027604789831,0.7,0.2,62,UNPRED,12,0.3797027604789831,2,images/picture_3.png,images/picture_1.png,0,"[-11.733433509789466, -11.733433509789462]",-11.733433509789464,-11.733433509789462,images/picture_2.png,1,"[11.733433509789464, 11.733433509789462]",11.733433509789464,11.733433509789462,images/picture_3.png,2,"[11.733433509789462, -11.733433509789466]",11.733433509789462,-11.733433509789464,images/picture_3.png,2,"[11.733433509789462, -11.733433509789466]","[11.733433509789462, -11.733433509789466]","[11.733433509789462, -11.733433509789466]",0.1,0.3797027604789831,0.4797027604789831,0.3202972395210169,0.8,0.2297027604789831,0,1.0,0.8,0.2,1,0,1,0,0,1,1,26,,,,,,,85.46211470800336,85.46211470800336,85.56714058300713,85.70147670799633,85.93475841599866,85.93475841599866,85.93475841599866,85.93475841599866,86.25173270801315,86.26814820800791,86.26814820800791,86.26814820800791,86.26814820800791,86.46657716599293,0,,,100001,001,2023-04-13_16h01.48.438,DMS_etROI_12-36_stimBlast,2022.2.4,59.80043100270544,
stimBlast2,36,0,0.1,0.3797027604789831,0.7,0.2,64,UNPRED,12,0.3797027604789831,0,images/picture_1.png,images/picture_1.png,0,"[-11.733433509789462, 11.733433509789464]",-11.733433509789462,11.733433509789464,images/picture_2.png,1,"[11.733433509789462, -11.733433509789466]",11.733433509789462,-11.733433509789464,images/picture_3.png,2,"[-11.733433509789466, -11.733433509789462]",-11.733433509789464,-11.733433509789462,images/picture_1.png,0,"[-11.733433509789462, 11.733433509789464]","[-11.733433509789462, 11.733433509789464]","[-11.733433509789462, 11.733433509789464]",0.1,0.3797027604789831,0.4797027604789831,0.3202972395210169,0.8,0.2297027604789831,0,1.0,0.8,0.2,1,0,1,0,0,2,2,28,,,,,,,86.46657716599293,86.46657716599293,86.56844550001551,86.70187900000019,86.91789908299688,86.91789908299688,86.91789908299688,86.91789908299688,87.25148491599248,87.25148491599248,87.25148491599248,87.25148491599248,87.25148491599248,87.4506454160146,0,,,100001,001,2023-04-13_16h01.48.438,DMS_etROI_12-36_stimBlast,2022.2.4,59.80043100270544,
stimBlast2,36,0,0.1,0.3797027604789831,0.7,0.2,46,UNPRED,12,0.3797027604789831,0,images/picture_1.png,images/picture_1.png,0,"[-11.733433509789466, -11.733433509789462]",-11.733433509789464,-11.733433509789462,images/picture_2.png,1,"[11.733433509789464, 11.733433509789462]",11.733433509789464,11.733433509789462,images/picture_3.png,2,"[-11.733433509789462, 11.733433509789464]",-11.733433509789462,11.733433509789464,images/picture_1.png,0,"[-11.733433509789466, -11.733433509789462]","[-11.733433509789466, -11.733433509789462]","[-11.733433509789466, -11.733433509789462]",0.1,0.3797027604789831,0.4797027604789831,0.3202972395210169,0.8,0.2297027604789831,0,1.0,0.8,0.2,1,0,1,0,0,3,3,10,,,,,,,87.4506454160146,87.4506454160146,87.55148766600178,87.68474745799904,87.91893625000375,87.91893625000375,87.91893625000375,87.91893625000375,88.25135879099253,88.25135879099253,88.25135879099253,88.25135879099253,88.25135879099253,88.45089199999347,0,,,100001,001,2023-04-13_16h01.48.438,DMS_etROI_12-36_stimBlast,2022.2.4,59.80043100270544,
stimBlast2,36,0,0.1,0.3797027604789831,0.7,0.2,61,UNPRED,12,0.3797027604789831,0,images/picture_1.png,images/picture_1.png,0,"[11.733433509789462, -11.733433509789466]",11.733433509789462,-11.733433509789464,images/picture_2.png,1,"[-11.733433509789462, 11.733433509789464]",-11.733433509789462,11.733433509789464,images/picture_3.png,2,"[11.733433509789464, 11.733433509789462]",11.733433509789464,11.733433509789462,images/picture_1.png,0,"[11.733433509789462, -11.733433509789466]","[11.733433509789462, -11.733433509789466]","[11.733433509789462, -11.733433509789466]",0.1,0.3797027604789831,0.4797027604789831,0.3202972395210169,0.8,0.2297027604789831,0,1.0,0.8,0.2,1,0,1,0,0,4,4,25,,,,,,,88.45089199999347,88.45089199999347,88.55129029101226,88.68525549999322,88.91781029099366,88.91781029099366,88.91781029099366,88.91781029099366,89.25055925000925,89.25055925000925,89.25055925000925,89.25055925000925,89.25055925000925,89.45056166601717,0,,,100001,001,2023-04-13_16h01.48.438,DMS_etROI_12-36_stimBlast,2022.2.4,59.80043100270544,
stimBlast2,36,0,0.1,0.3797027604789831,0.7,0.2,51,UNPRED,12,0.3797027604789831,0,images/picture_1.png,images/picture_1.png,0,"[11.733433509789462, -11.733433509789466]",11.733433509789462,-11.733433509789464,images/picture_2.png,1,"[-11.733433509789466, -11.733433509789462]",-11.733433509789464,-11.733433509789462,images/picture_3.png,2,"[-11.733433509789462, 11.733433509789464]",-11.733433509789462,11.733433509789464,images/picture_1.png,0,"[11.733433509789462, -11.733433509789466]","[11.733433509789462, -11.733433509789466]","[11.733433509789462, -11.733433509789466]",0.1,0.3797027604789831,0.4797027604789831,0.3202972395210169,0.8,0.2297027604789831,0,1.0,0.8,0.2,1,0,1,0,0,5,5,15,,,,,,,89.45056166601717,89.45056166601717,89.55095020800945,89.68428658301127,89.91742758301552,89.91742758301552,89.91742758301552,89.91742758301552,90.23470058300882,90.2512711250165,90.2512711250165,90.2512711250165,90.2512711250165,90.4342632080079,0,,,100001,001,2023-04-13_16h01.48.438,DMS_etROI_12-36_stimBlast,2022.2.4,59.80043100270544,
stimBlast2,36,0,0.1,0.3797027604789831,0.7,0.2,71,UNPRED,12,0.3797027604789831,0,images/picture_1.png,images/picture_1.png,0,"[11.733433509789462, -11.733433509789466]",11.733433509789462,-11.733433509789464,images/picture_2.png,1,"[11.733433509789464, 11.733433509789462]",11.733433509789464,11.733433509789462,images/picture_3.png,2,"[-11.733433509789466, -11.733433509789462]",-11.733433509789464,-11.733433509789462,images/picture_1.png,0,"[11.733433509789462, -11.733433509789466]","[11.733433509789462, -11.733433509789466]","[11.733433509789462, -11.733433509789466]",0.1,0.3797027604789831,0.4797027604789831,0.3202972395210169,0.8,0.2297027604789831,0,1.0,0.8,0.2,1,0,1,0,0,6,6,35,,,,,,,90.4342632080079,90.4342632080079,90.53497687500203,90.66878216600162,90.90169666599832,90.90169666599832,90.90169666599832,90.90169666599832,91.23473533301149,91.23473533301149,91.23473533301149,91.23473533301149,91.23473533301149,91.44702508300543,0,,,100001,001,2023-04-13_16h01.48.438,DMS_etROI_12-36_stimBlast,2022.2.4,59.80043100270544,
stimBlast2,36,0,0.1,0.3797027604789831,0.7,0.2,43,UNPRED,12,0.3797027604789831,2,images/picture_3.png,images/picture_1.png,0,"[-11.733433509789466, -11.733433509789462]",-11.733433509789464,-11.733433509789462,images/picture_2.png,1,"[11.733433509789462, -11.733433509789466]",11.733433509789462,-11.733433509789464,images/picture_3.png,2,"[11.733433509789464, 11.733433509789462]",11.733433509789464,11.733433509789462,images/picture_3.png,2,"[11.733433509789464, 11.733433509789462]","[11.733433509789464, 11.733433509789462]","[11.733433509789464, 11.733433509789462]",0.1,0.3797027604789831,0.4797027604789831,0.3202972395210169,0.8,0.2297027604789831,0,1.0,0.8,0.2,1,0,1,0,0,7,7,7,,,,,,,91.44702508300543,91.44702508300543,91.55211004099692,91.684846499993,91.90173345801304,91.90173345801304,91.90173345801304,91.90173345801304,92.23522537501412,92.23522537501412,92.23522537501412,92.23522537501412,92.23522537501412,92.44619270801195,0,,,100001,001,2023-04-13_16h01.48.438,DMS_etROI_12-36_stimBlast,2022.2.4,59.80043100270544,
stimBlast2,36,0,0.1,0.3797027604789831,0.7,0.2,67,UNPRED,12,0.3797027604789831,2,images/picture_3.png,images/picture_1.png,0,"[11.733433509789464, 11.733433509789462]",11.733433509789464,11.733433509789462,images/picture_2.png,1,"[11.733433509789462, -11.733433509789466]",11.733433509789462,-11.733433509789464,images/picture_3.png,2,"[-11.733433509789462, 11.733433509789464]",-11.733433509789462,11.733433509789464,images/picture_3.png,2,"[-11.733433509789462, 11.733433509789464]","[-11.733433509789462, 11.733433509789464]","[-11.733433509789462, 11.733433509789464]",0.1,0.3797027604789831,0.4797027604789831,0.3202972395210169,0.8,0.2297027604789831,0,1.0,0.8,0.2,1,0,1,0,0,8,8,31,,,,,,,92.44619270801195,92.44619270801195,92.5511948330095,92.68529083300382,92.90187866601627,92.90187866601627,92.90187866601627,92.90187866601627,93.23519858301734,93.23519858301734,93.23519858301734,93.23519858301734,93.23519858301734,93.43418037501397,0,,,100001,001,2023-04-13_16h01.48.438,DMS_etROI_12-36_stimBlast,2022.2.4,59.80043100270544,
stimBlast2,36,0,0.1,0.3797027604789831,0.7,0.2,70,UNPRED,12,0.3797027604789831,0,images/picture_1.png,images/picture_1.png,0,"[11.733433509789464, 11.733433509789462]",11.733433509789464,11.733433509789462,images/picture_2.png,1,"[11.733433509789462, -11.733433509789466]",11.733433509789462,-11.733433509789464,images/picture_3.png,2,"[-11.733433509789466, -11.733433509789462]",-11.733433509789464,-11.733433509789462,images/picture_1.png,0,"[11.733433509789464, 11.733433509789462]","[11.733433509789464, 11.733433509789462]","[11.733433509789464, 11.733433509789462]",0.1,0.3797027604789831,0.4797027604789831,0.3202972395210169,0.8,0.2297027604789831,0,1.0,0.8,0.2,1,0,1,0,0,9,9,34,,,,,,,93.43418037501397,93.43418037501397,93.53466020800988,93.66814075000002,93.90190462500323,93.90190462500323,93.90190462500323,93.90190462500323,94.23489437499666,94.23489437499666,94.23489437499666,94.23489437499666,94.23489437499666,94.434224541008,0,,,100001,001,2023-04-13_16h01.48.438,DMS_etROI_12-36_stimBlast,2022.2.4,59.80043100270544,
stimBlast2,36,0,0.1,0.3797027604789831,0.7,0.2,52,UNPRED,12,0.3797027604789831,1,images/picture_2.png,images/picture_1.png,0,"[-11.733433509789462, 11.733433509789464]",-11.733433509789462,11.733433509789464,images/picture_2.png,1,"[11.733433509789464, 11.733433509789462]",11.733433509789464,11.733433509789462,images/picture_3.png,2,"[11.733433509789462, -11.733433509789466]",11.733433509789462,-11.733433509789464,images/picture_2.png,1,"[11.733433509789464, 11.733433509789462]","[11.733433509789464, 11.733433509789462]","[11.733433509789464, 11.733433509789462]",0.1,0.3797027604789831,0.4797027604789831,0.3202972395210169,0.8,0.2297027604789831,0,1.0,0.8,0.2,1,0,1,0,0,10,10,16,,,,,,,94.434224541008,94.434224541008,94.53449912500218,94.66839095801697,94.90139629101031,94.90139629101031,94.90139629101031,94.90139629101031,95.23470279100002,95.23470279100002,95.23470279100002,95.23470279100002,95.23470279100002,95.43452937499387,0,,,100001,001,2023-04-13_16h01.48.438,DMS_etROI_12-36_stimBlast,2022.2.4,59.80043100270544,
stimBlast2,36,0,0.1,0.3797027604789831,0.7,0.2,68,UNPRED,12,0.3797027604789831,0,images/picture_1.png,images/picture_1.png,0,"[11.733433509789464, 11.733433509789462]",11.733433509789464,11.733433509789462,images/picture_2.png,1,"[-11.733433509789462, 11.733433509789464]",-11.733433509789462,11.733433509789464,images/picture_3.png,2,"[-11.733433509789466, -11.733433509789462]",-11.733433509789464,-11.733433509789462,images/picture_1.png,0,"[11.733433509789464, 11.733433509789462]","[11.733433509789464, 11.733433509789462]","[11.733433509789464, 11.733433509789462]",0.1,0.3797027604789831,0.4797027604789831,0.3202972395210169,0.8,0.2297027604789831,0,1.0,0.8,0.2,1,0,1,0,0,11,11,32,,,,,,,95.43452937499387,95.43452937499387,95.53407824999886,95.6678950409987,95.90194004098885,95.90194004098885,95.90194004098885,95.90194004098885,96.23539487499511,96.23539487499511,96.23539487499511,96.23539487499511,96.23539487499511,96.4340602500015,0,,,100001,001,2023-04-13_16h01.48.438,DMS_etROI_12-36_stimBlast,2022.2.4,59.80043100270544,
stimBlast2,36,0,0.1,0.3797027604789831,0.7,0.2,48,UNPRED,12,0.3797027604789831,0,images/picture_1.png,images/picture_1.png,0,"[-11.733433509789462, 11.733433509789464]",-11.733433509789462,11.733433509789464,images/picture_2.png,1,"[-11.733433509789466, -11.733433509789462]",-11.733433509789464,-11.733433509789462,images/picture_3.png,2,"[11.733433509789462, -11.733433509789466]",11.733433509789462,-11.733433509789464,images/picture_1.png,0,"[-11.733433509789462, 11.733433509789464]","[-11.733433509789462, 11.733433509789464]","[-11.733433509789462, 11.733433509789464]",0.1,0.3797027604789831,0.4797027604789831,0.3202972395210169,0.8,0.2297027604789831,0,1.0,0.8,0.2,1,0,1,0,0,12,12,12,,,,,,,96.4340602500015,96.4340602500015,96.53422187501565,96.66836404099013,96.90142937499331,96.90142937499331,96.90142937499331,96.90142937499331,97.23514333300409,97.23514333300409,97.23514333300409,97.23514333300409,97.23514333300409,97.43463920798968,0,,,100001,001,2023-04-13_16h01.48.438,DMS_etROI_12-36_stimBlast,2022.2.4,59.80043100270544,
stimBlast2,36,0,0.1,0.3797027604789831,0.7,0.2,37,UNPRED,12,0.3797027604789831,1,images/picture_2.png,images/picture_1.png,0,"[11.733433509789464, 11.733433509789462]",11.733433509789464,11.733433509789462,images/picture_2.png,1,"[-11.733433509789462, 11.733433509789464]",-11.733433509789462,11.733433509789464,images/picture_3.png,2,"[-11.733433509789466, -11.733433509789462]",-11.733433509789464,-11.733433509789462,images/picture_2.png,1,"[-11.733433509789462, 11.733433509789464]","[-11.733433509789462, 11.733433509789464]","[-11.733433509789462, 11.733433509789464]",0.1,0.3797027604789831,0.4797027604789831,0.3202972395210169,0.8,0.2297027604789831,0,1.0,0.8,0.2,1,0,1,0,0,13,13,1,,,,,,,97.43463920798968,97.43463920798968,97.53442604100564,97.66816637499142,97.90170300001046,97.90170300001046,97.90170300001046,97.90170300001046,98.23490966600366,98.23490966600366,98.23490966600366,98.23490966600366,98.23490966600366,98.43414354100241,0,,,100001,001,2023-04-13_16h01.48.438,DMS_etROI_12-36_stimBlast,2022.2.4,59.80043100270544,
stimBlast2,36,0,0.1,0.3797027604789831,0.7,0.2,69,UNPRED,12,0.3797027604789831,0,images/picture_1.png,images/picture_1.png,0,"[11.733433509789462, -11.733433509789466]",11.733433509789462,-11.733433509789464,images/picture_2.png,1,"[-11.733433509789466, -11.733433509789462]",-11.733433509789464,-11.733433509789462,images/picture_3.png,2,"[-11.733433509789462, 11.733433509789464]",-11.733433509789462,11.733433509789464,images/picture_1.png,0,"[11.733433509789462, -11.733433509789466]","[11.733433509789462, -11.733433509789466]","[11.733433509789462, -11.733433509789466]",0.1,0.3797027604789831,0.4797027604789831,0.3202972395210169,0.8,0.2297027604789831,0,1.0,0.8,0.2,1,0,1,0,0,14,14,33,,,,,,,98.43414354100241,98.43414354100241,98.53432470801636,98.66753166599665,98.90135712499614,98.90135712499614,98.90135712499614,98.90135712499614,99.23445250000805,99.23445250000805,99.23445250000805,99.23445250000805,99.23445250000805,99.45306320799864,0,,,100001,001,2023-04-13_16h01.48.438,DMS_etROI_12-36_stimBlast,2022.2.4,59.80043100270544,
stimBlast2,36,0,0.1,0.3797027604789831,0.7,0.2,56,UNPRED,12,0.3797027604789831,1,images/picture_2.png,images/picture_1.png,0,"[11.733433509789464, 11.733433509789462]",11.733433509789464,11.733433509789462,images/picture_2.png,1,"[11.733433509789462, -11.733433509789466]",11.733433509789462,-11.733433509789464,images/picture_3.png,2,"[-11.733433509789462, 11.733433509789464]",-11.733433509789462,11.733433509789464,images/picture_2.png,1,"[11.733433509789462, -11.733433509789466]","[11.733433509789462, -11.733433509789466]","[11.733433509789462, -11.733433509789466]",0.1,0.3797027604789831,0.4797027604789831,0.3202972395210169,0.8,0.2297027604789831,0,1.0,0.8,0.2,1,0,1,0,0,15,15,20,,,,,,,99.45306320799864,99.45306320799864,99.56703274999745,99.68417349999072,99.91747491600108,99.91747491600108,99.91747491600108,99.91747491600108,100.23430654100957,100.25112787500257,100.25112787500257,100.25112787500257,100.25112787500257,100.44692937500076,0,,,100001,001,2023-04-13_16h01.48.438,DMS_etROI_12-36_stimBlast,2022.2.4,59.80043100270544,
stimBlast2,36,0,0.1,0.3797027604789831,0.7,0.2,47,UNPRED,12,0.3797027604789831,2,images/picture_3.png,images/picture_1.png,0,"[11.733433509789464, 11.733433509789462]",11.733433509789464,11.733433509789462,images/picture_2.png,1,"[-11.733433509789462, 11.733433509789464]",-11.733433509789462,11.733433509789464,images/picture_3.png,2,"[-11.733433509789466, -11.733433509789462]",-11.733433509789464,-11.733433509789462,images/picture_3.png,2,"[-11.733433509789466, -11.733433509789462]","[-11.733433509789466, -11.733433509789462]","[-11.733433509789466, -11.733433509789462]",0.1,0.3797027604789831,0.4797027604789831,0.3202972395210169,0.8,0.2297027604789831,0,1.0,0.8,0.2,1,0,1,0,0,16,16,11,,,,,,,100.44692937500076,100.44692937500076,100.55120354099199,100.68432925001252,100.90147295800853,100.90147295800853,100.90147295800853,100.90147295800853,101.2347788749903,101.2347788749903,101.2347788749903,101.2347788749903,101.2347788749903,101.43501683301292,0,,,100001,001,2023-04-13_16h01.48.438,DMS_etROI_12-36_stimBlast,2022.2.4,59.80043100270544,
stimBlast2,36,0,0.1,0.3797027604789831,0.7,0.2,53,UNPRED,12,0.3797027604789831,1,images/picture_2.png,images/picture_1.png,0,"[-11.733433509789462, 11.733433509789464]",-11.733433509789462,11.733433509789464,images/picture_2.png,1,"[11.733433509789462, -11.733433509789466]",11.733433509789462,-11.733433509789464,images/picture_3.png,2,"[-11.733433509789466, -11.733433509789462]",-11.733433509789464,-11.733433509789462,images/picture_2.png,1,"[11.733433509789462, -11.733433509789466]","[11.733433509789462, -11.733433509789466]","[11.733433509789462, -11.733433509789466]",0.1,0.3797027604789831,0.4797027604789831,0.3202972395210169,0.8,0.2297027604789831,0,1.0,0.8,0.2,1,0,1,0,0,17,17,17,,,,,,,101.43501683301292,101.43501683301292,101.53468958300073,101.66809962500702,101.90143749999697,101.90143749999697,101.90143749999697,101.90143749999697,102.23484066600213,102.23484066600213,102.23484066600213,102.23484066600213,102.23484066600213,102.43428237500484,0,,,100001,001,2023-04-13_16h01.48.438,DMS_etROI_12-36_stimBlast,2022.2.4,59.80043100270544,
stimBlast2,36,0,0.1,0.3797027604789831,0.7,0.2,55,UNPRED,12,0.3797027604789831,1,images/picture_2.png,images/picture_1.png,0,"[11.733433509789462, -11.733433509789466]",11.733433509789462,-11.733433509789464,images/picture_2.png,1,"[-11.733433509789462, 11.733433509789464]",-11.733433509789462,11.733433509789464,images/picture_3.png,2,"[-11.733433509789466, -11.733433509789462]",-11.733433509789464,-11.733433509789462,images/picture_2.png,1,"[-11.733433509789462, 11.733433509789464]","[-11.733433509789462, 11.733433509789464]","[-11.733433509789462, 11.733433509789464]",0.1,0.3797027604789831,0.4797027604789831,0.3202972395210169,0.8,0.2297027604789831,0,1.0,0.8,0.2,1,0,1,0,0,18,18,19,,,,,,,102.43428237500484,102.43428237500484,102.5356914580043,102.6678672080161,102.90170200000284,102.90170200000284,102.90170200000284,102.90170200000284,103.2353148330003,103.2353148330003,103.2353148330003,103.2353148330003,103.2353148330003,103.44805037500919,0,,,100001,001,2023-04-13_16h01.48.438,DMS_etROI_12-36_stimBlast,2022.2.4,59.80043100270544,
stimBlast2,36,0,0.1,0.3797027604789831,0.7,0.2,49,UNPRED,12,0.3797027604789831,2,images/picture_3.png,images/picture_1.png,0,"[-11.733433509789462, 11.733433509789464]",-11.733433509789462,11.733433509789464,images/picture_2.png,1,"[11.733433509789462, -11.733433509789466]",11.733433509789462,-11.733433509789464,images/picture_3.png,2,"[11.733433509789464, 11.733433509789462]",11.733433509789464,11.733433509789462,images/picture_3.png,2,"[11.733433509789464, 11.733433509789462]","[11.733433509789464, 11.733433509789462]","[11.733433509789464, 11.733433509789462]",0.1,0.3797027604789831,0.4797027604789831,0.3202972395210169,0.8,0.2297027604789831,0,1.0,0.8,0.2,1,0,1,0,0,19,19,13,,,,,,,103.44805037500919,103.44805037500919,103.55132050000248,103.68441449999227,103.90122629099642,103.90122629099642,103.90122629099642,103.90122629099642,104.23509891598951,104.23509891598951,104.23509891598951,104.23509891598951,104.23509891598951,104.43493279101676,0,,,100001,001,2023-04-13_16h01.48.438,DMS_etROI_12-36_stimBlast,2022.2.4,59.80043100270544,
stimBlast2,36,0,0.1,0.3797027604789831,0.7,0.2,63,UNPRED,12,0.3797027604789831,1,images/picture_2.png,images/picture_1.png,0,"[11.733433509789464, 11.733433509789462]",11.733433509789464,11.733433509789462,images/picture_2.png,1,"[-11.733433509789466, -11.733433509789462]",-11.733433509789464,-11.733433509789462,images/picture_3.png,2,"[11.733433509789462, -11.733433509789466]",11.733433509789462,-11.733433509789464,images/picture_2.png,1,"[-11.733433509789466, -11.733433509789462]","[-11.733433509789466, -11.733433509789462]","[-11.733433509789466, -11.733433509789462]",0.1,0.3797027604789831,0.4797027604789831,0.3202972395210169,0.8,0.2297027604789831,0,1.0,0.8,0.2,1,0,1,0,0,20,20,27,,,,,,,104.43493279101676,104.43493279101676,104.53463874998852,104.66827704099705,104.90125324999099,104.90125324999099,104.90125324999099,104.90125324999099,105.23486799999955,105.23486799999955,105.23486799999955,105.23486799999955,105.23486799999955,105.43409125000471,0,,,100001,001,2023-04-13_16h01.48.438,DMS_etROI_12-36_stimBlast,2022.2.4,59.80043100270544,
stimBlast2,36,0,0.1,0.3797027604789831,0.7,0.2,58,UNPRED,12,0.3797027604789831,1,images/picture_2.png,images/picture_1.png,0,"[11.733433509789464, 11.733433509789462]",11.733433509789464,11.733433509789462,images/picture_2.png,1,"[-11.733433509789466, -11.733433509789462]",-11.733433509789464,-11.733433509789462,images/picture_3.png,2,"[11.733433509789462, -11.733433509789466]",11.733433509789462,-11.733433509789464,images/picture_2.png,1,"[-11.733433509789466, -11.733433509789462]","[-11.733433509789466, -11.733433509789462]","[-11.733433509789466, -11.733433509789462]",0.1,0.3797027604789831,0.4797027604789831,0.3202972395210169,0.8,0.2297027604789831,0,1.0,0.8,0.2,1,0,1,0,0,21,21,22,,,,,,,105.43409125000471,105.43409125000471,105.53441558300983,105.66796737498953,105.90152470799512,105.90152470799512,105.90152470799512,105.90152470799512,106.23484824999468,106.23484824999468,106.23484824999468,106.23484824999468,106.23484824999468,106.44752583300578,0,,,100001,001,2023-04-13_16h01.48.438,DMS_etROI_12-36_stimBlast,2022.2.4,59.80043100270544,
stimBlast2,36,0,0.1,0.3797027604789831,0.7,0.2,65,UNPRED,12,0.3797027604789831,2,images/picture_3.png,images/picture_1.png,0,"[-11.733433509789462, 11.733433509789464]",-11.733433509789462,11.733433509789464,images/picture_2.png,1,"[11.733433509789462, -11.733433509789466]",11.733433509789462,-11.733433509789464,images/picture_3.png,2,"[-11.733433509789466, -11.733433509789462]",-11.733433509789464,-11.733433509789462,images/picture_3.png,2,"[-11.733433509789466, -11.733433509789462]","[-11.733433509789466, -11.733433509789462]","[-11.733433509789466, -11.733433509789462]",0.1,0.3797027604789831,0.4797027604789831,0.3202972395210169,0.8,0.2297027604789831,0,1.0,0.8,0.2,1,0,1,0,0,22,22,29,,,,,,,106.44752583300578,106.44752583300578,106.55164049999439,106.68452091599465,106.90208979099407,106.90208979099407,106.90208979099407,106.90208979099407,107.23478791600792,107.23478791600792,107.23478791600792,107.23478791600792,107.23478791600792,107.44477208299213,0,,,100001,001,2023-04-13_16h01.48.438,DMS_etROI_12-36_stimBlast,2022.2.4,59.80043100270544,
stimBlast2,36,0,0.1,0.3797027604789831,0.7,0.2,36,UNPRED,12,0.3797027604789831,2,images/picture_3.png,images/picture_1.png,0,"[11.733433509789462, -11.733433509789466]",11.733433509789462,-11.733433509789464,images/picture_2.png,1,"[-11.733433509789462, 11.733433509789464]",-11.733433509789462,11.733433509789464,images/picture_3.png,2,"[-11.733433509789466, -11.733433509789462]",-11.733433509789464,-11.733433509789462,images/picture_3.png,2,"[-11.733433509789466, -11.733433509789462]","[-11.733433509789466, -11.733433509789462]","[-11.733433509789466, -11.733433509789462]",0.1,0.3797027604789831,0.4797027604789831,0.3202972395210169,0.8,0.2297027604789831,0,1.0,0.8,0.2,1,0,1,0,0,23,23,0,,,,,,,107.44477208299213,107.44477208299213,107.55116970799281,107.68564524999238,107.90194679101114,107.90194679101114,107.90194679101114,107.90194679101114,108.23451949999435,108.23451949999435,108.23451949999435,108.23451949999435,108.23451949999435,108.43473312500282,0,,,100001,001,2023-04-13_16h01.48.438,DMS_etROI_12-36_stimBlast,2022.2.4,59.80043100270544,
stimBlast2,36,0,0.1,0.3797027604789831,0.7,0.2,44,UNPRED,12,0.3797027604789831,1,images/picture_2.png,images/picture_1.png,0,"[-11.733433509789462, 11.733433509789464]",-11.733433509789462,11.733433509789464,images/picture_2.png,1,"[-11.733433509789466, -11.733433509789462]",-11.733433509789464,-11.733433509789462,images/picture_3.png,2,"[11.733433509789462, -11.733433509789466]",11.733433509789462,-11.733433509789464,images/picture_2.png,1,"[-11.733433509789466, -11.733433509789462]","[-11.733433509789466, -11.733433509789462]","[-11.733433509789466, -11.733433509789462]",0.1,0.3797027604789831,0.4797027604789831,0.3202972395210169,0.8,0.2297027604789831,0,1.0,0.8,0.2,1,0,1,0,0,24,24,8,,,,,,,108.43473312500282,108.43473312500282,108.53461741600768,108.6676369580091,108.90187304100255,108.90187304100255,108.90187304100255,108.90187304100255,109.23487091599964,109.23487091599964,109.23487091599964,109.23487091599964,109.23487091599964,109.43424999999115,0,,,100001,001,2023-04-13_16h01.48.438,DMS_etROI_12-36_stimBlast,2022.2.4,59.80043100270544,
stimBlast2,36,0,0.1,0.3797027604789831,0.7,0.2,54,UNPRED,12,0.3797027604789831,1,images/picture_2.png,images/picture_1.png,0,"[11.733433509789462, -11.733433509789466]",11.733433509789462,-11.733433509789464,images/picture_2.png,1,"[-11.733433509789462, 11.733433509789464]",-11.733433509789462,11.733433509789464,images/picture_3.png,2,"[-11.733433509789466, -11.733433509789462]",-11.733433509789464,-11.733433509789462,images/picture_2.png,1,"[-11.733433509789462, 11.733433509789464]","[-11.733433509789462, 11.733433509789464]","[-11.733433509789462, 11.733433509789464]",0.1,0.3797027604789831,0.4797027604789831,0.3202972395210169,0.8,0.2297027604789831,0,1.0,0.8,0.2,1,0,1,0,0,25,25,18,,,,,,,109.43424999999115,109.43424999999115,109.53430337499594,109.66765537500032,109.90073812499759,109.90073812499759,109.90073812499759,109.90073812499759,110.23435737501131,110.23435737501131,110.23435737501131,110.23435737501131,110.23435737501131,110.43438049999531,0,,,100001,001,2023-04-13_16h01.48.438,DMS_etROI_12-36_stimBlast,2022.2.4,59.80043100270544,
stimBlast2,36,0,0.1,0.3797027604789831,0.7,0.2,57,UNPRED,12,0.3797027604789831,1,images/picture_2.png,images/picture_1.png,0,"[-11.733433509789462, 11.733433509789464]",-11.733433509789462,11.733433509789464,images/picture_2.png,1,"[11.733433509789464, 11.733433509789462]",11.733433509789464,11.733433509789462,images/picture_3.png,2,"[11.733433509789462, -11.733433509789466]",11.733433509789462,-11.733433509789464,images/picture_2.png,1,"[11.733433509789464, 11.733433509789462]","[11.733433509789464, 11.733433509789462]","[11.733433509789464, 11.733433509789462]",0.1,0.3797027604789831,0.4797027604789831,0.3202972395210169,0.8,0.2297027604789831,0,1.0,0.8,0.2,1,0,1,0,0,26,26,21,,,,,,,110.43438049999531,110.43438049999531,110.5342464580026,110.66808837500867,110.90198762499494,110.90198762499494,110.90198762499494,110.90198762499494,111.21799991599983,111.2347554579901,111.2347554579901,111.2347554579901,111.2347554579901,111.41799820799497,0,,,100001,001,2023-04-13_16h01.48.438,DMS_etROI_12-36_stimBlast,2022.2.4,59.80043100270544,
stimBlast2,36,0,0.1,0.3797027604789831,0.7,0.2,60,UNPRED,12,0.3797027604789831,1,images/picture_2.png,images/picture_1.png,0,"[-11.733433509789462, 11.733433509789464]",-11.733433509789462,11.733433509789464,images/picture_2.png,1,"[11.733433509789462, -11.733433509789466]",11.733433509789462,-11.733433509789464,images/picture_3.png,2,"[11.733433509789464, 11.733433509789462]",11.733433509789464,11.733433509789462,images/picture_2.png,1,"[11.733433509789462, -11.733433509789466]","[11.733433509789462, -11.733433509789466]","[11.733433509789462, -11.733433509789466]",0.1,0.3797027604789831,0.4797027604789831,0.3202972395210169,0.8,0.2297027604789831,0,1.0,0.8,0.2,1,0,1,0,0,27,27,24,,,,,,,111.41799820799497,111.41799820799497,111.51835349999601,111.65151170801255,111.88453241600655,111.88453241600655,111.88453241600655,111.88453241600655,112.21821550000459,112.21821550000459,112.21821550000459,112.21821550000459,112.21821550000459,112.41745433301548,0,,,100001,001,2023-04-13_16h01.48.438,DMS_etROI_12-36_stimBlast,2022.2.4,59.80043100270544,
stimBlast2,36,0,0.1,0.3797027604789831,0.7,0.2,45,UNPRED,12,0.3797027604789831,1,images/picture_2.png,images/picture_1.png,0,"[11.733433509789464, 11.733433509789462]",11.733433509789464,11.733433509789462,images/picture_2.png,1,"[-11.733433509789466, -11.733433509789462]",-11.733433509789464,-11.733433509789462,images/picture_3.png,2,"[-11.733433509789462, 11.733433509789464]",-11.733433509789462,11.733433509789464,images/picture_2.png,1,"[-11.733433509789466, -11.733433509789462]","[-11.733433509789466, -11.733433509789462]","[-11.733433509789466, -11.733433509789462]",0.1,0.3797027604789831,0.4797027604789831,0.3202972395210169,0.8,0.2297027604789831,0,1.0,0.8,0.2,1,0,1,0,0,28,28,9,,,,,,,112.41745433301548,112.41745433301548,112.51780712499749,112.65140045800945,112.88509504101239,112.88509504101239,112.88509504101239,112.88509504101239,113.21828295799787,113.21828295799787,113.21828295799787,113.21828295799787,113.21828295799787,113.418250000017,0,,,100001,001,2023-04-13_16h01.48.438,DMS_etROI_12-36_stimBlast,2022.2.4,59.80043100270544,
stimBlast2,36,0,0.1,0.3797027604789831,0.7,0.2,59,UNPRED,12,0.3797027604789831,1,images/picture_2.png,images/picture_1.png,0,"[11.733433509789464, 11.733433509789462]",11.733433509789464,11.733433509789462,images/picture_2.png,1,"[-11.733433509789466, -11.733433509789462]",-11.733433509789464,-11.733433509789462,images/picture_3.png,2,"[-11.733433509789462, 11.733433509789464]",-11.733433509789462,11.733433509789464,images/picture_2.png,1,"[-11.733433509789466, -11.733433509789462]","[-11.733433509789466, -11.733433509789462]","[-11.733433509789466, -11.733433509789462]",0.1,0.3797027604789831,0.4797027604789831,0.3202972395210169,0.8,0.2297027604789831,0,1.0,0.8,0.2,1,0,1,0,0,29,29,23,,,,,,,113.418250000017,113.418250000017,113.51806970799225,113.65119008300826,113.90184649999719,113.90184649999719,113.90184649999719,113.90184649999719,114.21890712500317,114.2353938750166,114.2353938750166,114.2353938750166,114.2353938750166,114.4173849580111,0,,,100001,001,2023-04-13_16h01.48.438,DMS_etROI_12-36_stimBlast,2022.2.4,59.80043100270544,
stimBlast2,36,0,0.1,0.3797027604789831,0.7,0.2,66,UNPRED,12,0.3797027604789831,1,images/picture_2.png,images/picture_1.png,0,"[11.733433509789462, -11.733433509789466]",11.733433509789462,-11.733433509789464,images/picture_2.png,1,"[-11.733433509789466, -11.733433509789462]",-11.733433509789464,-11.733433509789462,images/picture_3.png,2,"[-11.733433509789462, 11.733433509789464]",-11.733433509789462,11.733433509789464,images/picture_2.png,1,"[-11.733433509789466, -11.733433509789462]","[-11.733433509789466, -11.733433509789462]","[-11.733433509789466, -11.733433509789462]",0.1,0.3797027604789831,0.4797027604789831,0.3202972395210169,0.8,0.2297027604789831,0,1.0,0.8,0.2,1,0,1,0,0,30,30,30,,,,,,,114.4173849580111,114.4173849580111,114.51807550000376,114.65191612500348,114.88490412500687,114.88490412500687,114.88490412500687,114.88490412500687,115.21840941600385,115.21840941600385,115.21840941600385,115.21840941600385,115.21840941600385,115.41762470800313,0,,,100001,001,2023-04-13_16h01.48.438,DMS_etROI_12-36_stimBlast,2022.2.4,59.80043100270544,
stimBlast2,36,0,0.1,0.3797027604789831,0.7,0.2,42,UNPRED,12,0.3797027604789831,0,images/picture_1.png,images/picture_1.png,0,"[11.733433509789462, -11.733433509789466]",11.733433509789462,-11.733433509789464,images/picture_2.png,1,"[-11.733433509789462, 11.733433509789464]",-11.733433509789462,11.733433509789464,images/picture_3.png,2,"[11.733433509789464, 11.733433509789462]",11.733433509789464,11.733433509789462,images/picture_1.png,0,"[11.733433509789462, -11.733433509789466]","[11.733433509789462, -11.733433509789466]","[11.733433509789462, -11.733433509789466]",0.1,0.3797027604789831,0.4797027604789831,0.3202972395210169,0.8,0.2297027604789831,0,1.0,0.8,0.2,1,0,1,0,0,31,31,6,,,,,,,115.41762470800313,115.41762470800313,115.51850745800766,115.65111616600188,115.88478779100114,115.88478779100114,115.88478779100114,115.88478779100114,116.21820562501671,116.21820562501671,116.21820562501671,116.21820562501671,116.21820562501671,116.41716604100657,0,,,100001,001,2023-04-13_16h01.48.438,DMS_etROI_12-36_stimBlast,2022.2.4,59.80043100270544,
stimBlast2,36,0,0.1,0.3797027604789831,0.7,0.2,50,UNPRED,12,0.3797027604789831,0,images/picture_1.png,images/picture_1.png,0,"[11.733433509789462, -11.733433509789466]",11.733433509789462,-11.733433509789464,images/picture_2.png,1,"[11.733433509789464, 11.733433509789462]",11.733433509789464,11.733433509789462,images/picture_3.png,2,"[-11.733433509789462, 11.733433509789464]",-11.733433509789462,11.733433509789464,images/picture_1.png,0,"[11.733433509789462, -11.733433509789466]","[11.733433509789462, -11.733433509789466]","[11.733433509789462, -11.733433509789466]",0.1,0.3797027604789831,0.4797027604789831,0.3202972395210169,0.8,0.2297027604789831,0,1.0,0.8,0.2,1,0,1,0,0,32,32,14,,,,,,,116.41716604100657,116.41716604100657,116.51866866601631,116.65117162500974,116.88483908300987,116.88483908300987,116.88483908300987,116.88483908300987,117.21790233300999,117.21790233300999,117.21790233300999,117.21790233300999,117.21790233300999,117.41728429100476,0,,,100001,001,2023-04-13_16h01.48.438,DMS_etROI_12-36_stimBlast,2022.2.4,59.80043100270544,
stimBlast2,36,0,0.1,0.3797027604789831,0.7,0.2,41,UNPRED,12,0.3797027604789831,0,images/picture_1.png,images/picture_1.png,0,"[11.733433509789462, -11.733433509789466]",11.733433509789462,-11.733433509789464,images/picture_2.png,1,"[-11.733433509789466, -11.733433509789462]",-11.733433509789464,-11.733433509789462,images/picture_3.png,2,"[11.733433509789464, 11.733433509789462]",11.733433509789464,11.733433509789462,images/picture_1.png,0,"[11.733433509789462, -11.733433509789466]","[11.733433509789462, -11.733433509789466]","[11.733433509789462, -11.733433509789466]",0.1,0.3797027604789831,0.4797027604789831,0.3202972395210169,0.8,0.2297027604789831,0,1.0,0.8,0.2,1,0,1,0,0,33,33,5,,,,,,,117.41728429100476,117.41728429100476,117.51813899999252,117.65161445800913,117.88479275000282,117.88479275000282,117.88479275000282,117.88479275000282,118.21827516600024,118.21827516600024,118.21827516600024,118.21827516600024,118.21827516600024,118.41762162500527,0,,,100001,001,2023-04-13_16h01.48.438,DMS_etROI_12-36_stimBlast,2022.2.4,59.80043100270544,
stimBlast2,36,0,0.1,0.3797027604789831,0.7,0.2,40,UNPRED,12,0.3797027604789831,1,images/picture_2.png,images/picture_1.png,0,"[11.733433509789462, -11.733433509789466]",11.733433509789462,-11.733433509789464,images/picture_2.png,1,"[-11.733433509789462, 11.733433509789464]",-11.733433509789462,11.733433509789464,images/picture_3.png,2,"[11.733433509789464, 11.733433509789462]",11.733433509789464,11.733433509789462,images/picture_2.png,1,"[-11.733433509789462, 11.733433509789464]","[-11.733433509789462, 11.733433509789464]","[-11.733433509789462, 11.733433509789464]",0.1,0.3797027604789831,0.4797027604789831,0.3202972395210169,0.8,0.2297027604789831,0,1.0,0.8,0.2,1,0,1,0,0,34,34,4,,,,,,,118.41762162500527,118.41762162500527,118.51812929101288,118.65153904099134,118.88537291600369,118.88537291600369,118.88537291600369,118.88537291600369,119.21818191598868,119.21818191598868,119.21818191598868,119.21818191598868,119.21818191598868,119.41756241599796,0,,,100001,001,2023-04-13_16h01.48.438,DMS_etROI_12-36_stimBlast,2022.2.4,59.80043100270544,
stimBlast2,36,0,0.1,0.3797027604789831,0.7,0.2,38,UNPRED,12,0.3797027604789831,1,images/picture_2.png,images/picture_1.png,0,"[11.733433509789464, 11.733433509789462]",11.733433509789464,11.733433509789462,images/picture_2.png,1,"[11.733433509789462, -11.733433509789466]",11.733433509789462,-11.733433509789464,images/picture_3.png,2,"[-11.733433509789462, 11.733433509789464]",-11.733433509789462,11.733433509789464,images/picture_2.png,1,"[11.733433509789462, -11.733433509789466]","[11.733433509789462, -11.733433509789466]","[11.733433509789462, -11.733433509789466]",0.1,0.3797027604789831,0.4797027604789831,0.3202972395210169,0.8,0.2297027604789831,0,1.0,0.8,0.2,1,0,1,0,0,35,35,2,,,,,,,119.41756241599796,119.41756241599796,119.51789137499873,119.65122341600363,119.88414137499058,119.88414137499058,119.88414137499058,119.88414137499058,120.21768762500142,120.21768762500142,120.21768762500142,120.21768762500142,120.21768762500142,120.74835954100126,0,,,100001,001,2023-04-13_16h01.48.438,DMS_etROI_12-36_stimBlast,2022.2.4,59.80043100270544,
,,,,,,,,,,,,,,,,,,,,,,,,,,,,,,,,,,,,,,,,,,,1,0,1,0,,,,,,,,,120.74835954100126,132.79473270798917,,,,,,,,,,,,,,,,,,100001,001,2023-04-13_16h01.48.438,DMS_etROI_12-36_stimBlast,2022.2.4,59.80043100270544,
stimBlast2,36,0,0.1,0.3797027604789831,0.7,0.2,98,PRED,12,0.3797027604789831,0,images/picture_1.png,images/picture_1.png,0,"[11.733433509789464, 11.733433509789462]",11.733433509789464,11.733433509789462,images/picture_2.png,1,"[11.733433509789462, -11.733433509789466]",11.733433509789462,-11.733433509789464,images/picture_3.png,2,"[-11.733433509789462, 11.733433509789464]",-11.733433509789462,11.733433509789464,images/picture_1.png,0,"[11.733433509789464, 11.733433509789462]","[11.733433509789464, 11.733433509789462]","[11.733433509789464, 11.733433509789462]",0.1,0.3797027604789831,0.4797027604789831,0.3202972395210169,0.8,0.2297027604789831,0,1.0,0.8,0.2,2,0,2,0,0,0,0,26,,,,,,,132.79473270798917,132.79473270798917,132.9019574999984,133.03535175000434,133.26894841599278,133.26894841599278,133.26894841599278,133.26894841599278,133.6019454160123,133.6019454160123,133.6019454160123,133.6019454160123,133.6019454160123,133.8011629160028,0,,,100001,001,2023-04-13_16h01.48.438,DMS_etROI_12-36_stimBlast,2022.2.4,59.80043100270544,
stimBlast2,36,0,0.1,0.3797027604789831,0.7,0.2,95,PRED,12,0.3797027604789831,0,images/picture_1.png,images/picture_1.png,0,"[11.733433509789464, 11.733433509789462]",11.733433509789464,11.733433509789462,images/picture_2.png,1,"[-11.733433509789462, 11.733433509789464]",-11.733433509789462,11.733433509789464,images/picture_3.png,2,"[-11.733433509789466, -11.733433509789462]",-11.733433509789464,-11.733433509789462,images/picture_1.png,0,"[11.733433509789464, 11.733433509789462]","[11.733433509789464, 11.733433509789462]","[11.733433509789464, 11.733433509789462]",0.1,0.3797027604789831,0.4797027604789831,0.3202972395210169,0.8,0.2297027604789831,0,1.0,0.8,0.2,2,0,2,0,0,1,1,23,,,,,,,133.8011629160028,133.8011629160028,133.90184229100123,134.03483512499952,134.28513487501186,134.28513487501186,134.28513487501186,134.28513487501186,134.6015689999913,134.61862591601675,134.61862591601675,134.61862591601675,134.61862591601675,134.80074120798963,0,,,100001,001,2023-04-13_16h01.48.438,DMS_etROI_12-36_stimBlast,2022.2.4,59.80043100270544,
stimBlast2,36,0,0.1,0.3797027604789831,0.7,0.2,94,PRED,12,0.3797027604789831,0,images/picture_1.png,images/picture_1.png,0,"[-11.733433509789466, -11.733433509789462]",-11.733433509789464,-11.733433509789462,images/picture_2.png,1,"[11.733433509789464, 11.733433509789462]",11.733433509789464,11.733433509789462,images/picture_3.png,2,"[-11.733433509789462, 11.733433509789464]",-11.733433509789462,11.733433509789464,images/picture_1.png,0,"[-11.733433509789466, -11.733433509789462]","[-11.733433509789466, -11.733433509789462]","[-11.733433509789466, -11.733433509789462]",0.1,0.3797027604789831,0.4797027604789831,0.3202972395210169,0.8,0.2297027604789831,0,1.0,0.8,0.2,2,0,2,0,0,2,2,22,,,,,,,134.80074120798963,134.80074120798963,134.90106095801457,135.0353802079917,135.26820179101196,135.26820179101196,135.26820179101196,135.26820179101196,135.58528679099982,135.60142262501176,135.60142262501176,135.60142262501176,135.60142262501176,135.78485737499432,0,,,100001,001,2023-04-13_16h01.48.438,DMS_etROI_12-36_stimBlast,2022.2.4,59.80043100270544,
stimBlast2,36,0,0.1,0.3797027604789831,0.7,0.2,96,PRED,12,0.3797027604789831,0,images/picture_1.png,images/picture_1.png,0,"[-11.733433509789466, -11.733433509789462]",-11.733433509789464,-11.733433509789462,images/picture_2.png,1,"[11.733433509789462, -11.733433509789466]",11.733433509789462,-11.733433509789464,images/picture_3.png,2,"[-11.733433509789462, 11.733433509789464]",-11.733433509789462,11.733433509789464,images/picture_1.png,0,"[-11.733433509789466, -11.733433509789462]","[-11.733433509789466, -11.733433509789462]","[-11.733433509789466, -11.733433509789462]",0.1,0.3797027604789831,0.4797027604789831,0.3202972395210169,0.8,0.2297027604789831,0,1.0,0.8,0.2,2,0,2,0,0,3,3,24,,,,,,,135.78485737499432,135.78485737499432,135.88546670801588,136.01820945800864,136.25189183300245,136.25189183300245,136.25189183300245,136.25189183300245,136.58486633299617,136.58486633299617,136.58486633299617,136.58486633299617,136.58486633299617,136.78410166600952,0,,,100001,001,2023-04-13_16h01.48.438,DMS_etROI_12-36_stimBlast,2022.2.4,59.80043100270544,
stimBlast2,36,0,0.1,0.3797027604789831,0.7,0.2,80,PRED,12,0.3797027604789831,0,images/picture_1.png,images/picture_1.png,0,"[-11.733433509789466, -11.733433509789462]",-11.733433509789464,-11.733433509789462,images/picture_2.png,1,"[11.733433509789462, -11.733433509789466]",11.733433509789462,-11.733433509789464,images/picture_3.png,2,"[-11.733433509789462, 11.733433509789464]",-11.733433509789462,11.733433509789464,images/picture_1.png,0,"[-11.733433509789466, -11.733433509789462]","[-11.733433509789466, -11.733433509789462]","[-11.733433509789466, -11.733433509789462]",0.1,0.3797027604789831,0.4797027604789831,0.3202972395210169,0.8,0.2297027604789831,0,1.0,0.8,0.2,2,0,2,0,0,4,4,8,,,,,,,136.78410166600952,136.78410166600952,136.88485720800236,137.01812670798972,137.25181420799345,137.25181420799345,137.25181420799345,137.25181420799345,137.58481475000735,137.58481475000735,137.58481475000735,137.58481475000735,137.58481475000735,137.78415666599176,0,,,100001,001,2023-04-13_16h01.48.438,DMS_etROI_12-36_stimBlast,2022.2.4,59.80043100270544,
stimBlast2,36,0,0.1,0.3797027604789831,0.7,0.2,72,PRED,12,0.3797027604789831,0,images/picture_1.png,images/picture_1.png,0,"[-11.733433509789466, -11.733433509789462]",-11.733433509789464,-11.733433509789462,images/picture_2.png,1,"[11.733433509789464, 11.733433509789462]",11.733433509789464,11.733433509789462,images/picture_3.png,2,"[-11.733433509789462, 11.733433509789464]",-11.733433509789462,11.733433509789464,images/picture_1.png,0,"[-11.733433509789466, -11.733433509789462]","[-11.733433509789466, -11.733433509789462]","[-11.733433509789466, -11.733433509789462]",0.1,0.3797027604789831,0.4797027604789831,0.3202972395210169,0.8,0.2297027604789831,0,1.0,0.8,0.2,2,0,2,0,0,5,5,0,,,,,,,137.78415666599176,137.78415666599176,137.88496720799594,138.01816304100794,138.25176975000068,138.25176975000068,138.25176975000068,138.25176975000068,138.5855162910011,138.5855162910011,138.5855162910011,138.5855162910011,138.5855162910011,138.78407304099528,0,,,100001,001,2023-04-13_16h01.48.438,DMS_etROI_12-36_stimBlast,2022.2.4,59.80043100270544,
stimBlast2,36,0,0.1,0.3797027604789831,0.7,0.2,100,PRED,12,0.3797027604789831,0,images/picture_1.png,images/picture_1.png,0,"[-11.733433509789466, -11.733433509789462]",-11.733433509789464,-11.733433509789462,images/picture_2.png,1,"[11.733433509789464, 11.733433509789462]",11.733433509789464,11.733433509789462,images/picture_3.png,2,"[-11.733433509789462, 11.733433509789464]",-11.733433509789462,11.733433509789464,images/picture_1.png,0,"[-11.733433509789466, -11.733433509789462]","[-11.733433509789466, -11.733433509789462]","[-11.733433509789466, -11.733433509789462]",0.1,0.3797027604789831,0.4797027604789831,0.3202972395210169,0.8,0.2297027604789831,0,1.0,0.8,0.2,2,0,2,0,0,6,6,28,,,,,,,138.78407304099528,138.78407304099528,138.8848316660151,139.01826174999587,139.25153716601199,139.25153716601199,139.25153716601199,139.25153716601199,139.58506312500685,139.58506312500685,139.58506312500685,139.58506312500685,139.58506312500685,139.78391787500004,0,,,100001,001,2023-04-13_16h01.48.438,DMS_etROI_12-36_stimBlast,2022.2.4,59.80043100270544,
stimBlast2,36,0,0.1,0.3797027604789831,0.7,0.2,92,PRED,12,0.3797027604789831,0,images/picture_1.png,images/picture_1.png,0,"[-11.733433509789466, -11.733433509789462]",-11.733433509789464,-11.733433509789462,images/picture_2.png,1,"[-11.733433509789462, 11.733433509789464]",-11.733433509789462,11.733433509789464,images/picture_3.png,2,"[11.733433509789464, 11.733433509789462]",11.733433509789464,11.733433509789462,images/picture_1.png,0,"[-11.733433509789466, -11.733433509789462]","[-11.733433509789466, -11.733433509789462]","[-11.733433509789466, -11.733433509789462]",0.1,0.3797027604789831,0.4797027604789831,0.3202972395210169,0.8,0.2297027604789831,0,1.0,0.8,0.2,2,0,2,0,0,7,7,20,,,,,,,139.78391787500004,139.78391787500004,139.88470095800585,140.01808416598942,140.25107829101034,140.25107829101034,140.25107829101034,140.25107829101034,140.58447737499955,140.58447737499955,140.58447737499955,140.58447737499955,140.58447737499955,140.78417091601295,0,,,100001,001,2023-04-13_16h01.48.438,DMS_etROI_12-36_stimBlast,2022.2.4,59.80043100270544,
stimBlast2,36,0,0.1,0.3797027604789831,0.7,0.2,83,PRED,12,0.3797027604789831,0,images/picture_1.png,images/picture_1.png,0,"[-11.733433509789466, -11.733433509789462]",-11.733433509789464,-11.733433509789462,images/picture_2.png,1,"[-11.733433509789462, 11.733433509789464]",-11.733433509789462,11.733433509789464,images/picture_3.png,2,"[11.733433509789462, -11.733433509789466]",11.733433509789462,-11.733433509789464,images/picture_1.png,0,"[-11.733433509789466, -11.733433509789462]","[-11.733433509789466, -11.733433509789462]","[-11.733433509789466, -11.733433509789462]",0.1,0.3797027604789831,0.4797027604789831,0.3202972395210169,0.8,0.2297027604789831,0,1.0,0.8,0.2,2,0,2,0,0,8,8,11,,,,,,,140.78417091601295,140.78417091601295,140.88463083299575,141.01798649999546,141.25152950000484,141.25152950000484,141.25152950000484,141.25152950000484,141.5683975830034,141.5849820410076,141.5849820410076,141.5849820410076,141.5849820410076,141.76784941600636,0,,,100001,001,2023-04-13_16h01.48.438,DMS_etROI_12-36_stimBlast,2022.2.4,59.80043100270544,
stimBlast2,36,0,0.1,0.3797027604789831,0.7,0.2,78,PRED,12,0.3797027604789831,0,images/picture_1.png,images/picture_1.png,0,"[-11.733433509789466, -11.733433509789462]",-11.733433509789464,-11.733433509789462,images/picture_2.png,1,"[11.733433509789462, -11.733433509789466]",11.733433509789462,-11.733433509789464,images/picture_3.png,2,"[-11.733433509789462, 11.733433509789464]",-11.733433509789462,11.733433509789464,images/picture_1.png,0,"[-11.733433509789466, -11.733433509789462]","[-11.733433509789466, -11.733433509789462]","[-11.733433509789466, -11.733433509789462]",0.1,0.3797027604789831,0.4797027604789831,0.3202972395210169,0.8,0.2297027604789831,0,1.0,0.8,0.2,2,0,2,0,0,9,9,6,,,,,,,141.76784941600636,141.76784941600636,141.86806366601377,142.0020590829954,142.2353927080112,142.2353927080112,142.2353927080112,142.2353927080112,142.5680602079956,142.5680602079956,142.5680602079956,142.5680602079956,142.5680602079956,142.7676862500084,0,,,100001,001,2023-04-13_16h01.48.438,DMS_etROI_12-36_stimBlast,2022.2.4,59.80043100270544,
stimBlast2,36,0,0.1,0.3797027604789831,0.7,0.2,75,PRED,12,0.3797027604789831,0,images/picture_1.png,images/picture_1.png,0,"[11.733433509789464, 11.733433509789462]",11.733433509789464,11.733433509789462,images/picture_2.png,1,"[11.733433509789462, -11.733433509789466]",11.733433509789462,-11.733433509789464,images/picture_3.png,2,"[-11.733433509789462, 11.733433509789464]",-11.733433509789462,11.733433509789464,images/picture_1.png,0,"[11.733433509789464, 11.733433509789462]","[11.733433509789464, 11.733433509789462]","[11.733433509789464, 11.733433509789462]",0.1,0.3797027604789831,0.4797027604789831,0.3202972395210169,0.8,0.2297027604789831,0,1.0,0.8,0.2,2,0,2,0,0,10,10,3,,,,,,,142.7676862500084,142.7676862500084,142.867987250007,143.0017598750128,143.25148870798876,143.25148870798876,143.25148870798876,143.25148870798876,143.56850712499,143.58557966598892,143.58557966598892,143.58557966598892,143.58557966598892,143.76783191598952,0,,,100001,001,2023-04-13_16h01.48.438,DMS_etROI_12-36_stimBlast,2022.2.4,59.80043100270544,
stimBlast2,36,0,0.1,0.3797027604789831,0.7,0.2,86,PRED,12,0.3797027604789831,0,images/picture_1.png,images/picture_1.png,0,"[-11.733433509789466, -11.733433509789462]",-11.733433509789464,-11.733433509789462,images/picture_2.png,1,"[-11.733433509789462, 11.733433509789464]",-11.733433509789462,11.733433509789464,images/picture_3.png,2,"[11.733433509789462, -11.733433509789466]",11.733433509789462,-11.733433509789464,images/picture_1.png,0,"[-11.733433509789466, -11.733433509789462]","[-11.733433509789466, -11.733433509789462]","[-11.733433509789466, -11.733433509789462]",0.1,0.3797027604789831,0.4797027604789831,0.3202972395210169,0.8,0.2297027604789831,0,1.0,0.8,0.2,2,0,2,0,0,11,11,14,,,,,,,143.76783191598952,143.76783191598952,143.86878604101366,144.0024557079887,144.23543733300176,144.23543733300176,144.23543733300176,144.23543733300176,144.56832758299424,144.56832758299424,144.56832758299424,144.56832758299424,144.56832758299424,144.76784095799667,0,,,100001,001,2023-04-13_16h01.48.438,DMS_etROI_12-36_stimBlast,2022.2.4,59.80043100270544,
stimBlast2,36,0,0.1,0.3797027604789831,0.7,0.2,107,PRED,12,0.3797027604789831,0,images/picture_1.png,images/picture_1.png,0,"[11.733433509789462, -11.733433509789466]",11.733433509789462,-11.733433509789464,images/picture_2.png,1,"[-11.733433509789466, -11.733433509789462]",-11.733433509789464,-11.733433509789462,images/picture_3.png,2,"[-11.733433509789462, 11.733433509789464]",-11.733433509789462,11.733433509789464,images/picture_1.png,0,"[11.733433509789462, -11.733433509789466]","[11.733433509789462, -11.733433509789466]","[11.733433509789462, -11.733433509789466]",0.1,0.3797027604789831,0.4797027604789831,0.3202972395210169,0.8,0.2297027604789831,0,1.0,0.8,0.2,2,0,2,0,0,12,12,35,,,,,,,144.76784095799667,144.76784095799667,144.86845104099484,145.00169512501452,145.23510583300958,145.23510583300958,145.23510583300958,145.23510583300958,145.5686754999915,145.5686754999915,145.5686754999915,145.5686754999915,145.5686754999915,145.7677847080049,0,,,100001,001,2023-04-13_16h01.48.438,DMS_etROI_12-36_stimBlast,2022.2.4,59.80043100270544,
stimBlast2,36,0,0.1,0.3797027604789831,0.7,0.2,85,PRED,12,0.3797027604789831,0,images/picture_1.png,images/picture_1.png,0,"[-11.733433509789462, 11.733433509789464]",-11.733433509789462,11.733433509789464,images/picture_2.png,1,"[11.733433509789462, -11.733433509789466]",11.733433509789462,-11.733433509789464,images/picture_3.png,2,"[11.733433509789464, 11.733433509789462]",11.733433509789464,11.733433509789462,images/picture_1.png,0,"[-11.733433509789462, 11.733433509789464]","[-11.733433509789462, 11.733433509789464]","[-11.733433509789462, 11.733433509789464]",0.1,0.3797027604789831,0.4797027604789831,0.3202972395210169,0.8,0.2297027604789831,0,1.0,0.8,0.2,2,0,2,0,0,13,13,13,,,,,,,145.7677847080049,145.7677847080049,145.86828029100434,146.00161904099514,146.23510666599032,146.23510666599032,146.23510666599032,146.23510666599032,146.56780454100226,146.56780454100226,146.56780454100226,146.56780454100226,146.56780454100226,146.76779849999002,0,,,100001,001,2023-04-13_16h01.48.438,DMS_etROI_12-36_stimBlast,2022.2.4,59.80043100270544,
stimBlast2,36,0,0.1,0.3797027604789831,0.7,0.2,102,PRED,12,0.3797027604789831,0,images/picture_1.png,images/picture_1.png,0,"[11.733433509789464, 11.733433509789462]",11.733433509789464,11.733433509789462,images/picture_2.png,1,"[-11.733433509789466, -11.733433509789462]",-11.733433509789464,-11.733433509789462,images/picture_3.png,2,"[11.733433509789462, -11.733433509789466]",11.733433509789462,-11.733433509789464,images/picture_1.png,0,"[11.733433509789464, 11.733433509789462]","[11.733433509789464, 11.733433509789462]","[11.733433509789464, 11.733433509789462]",0.1,0.3797027604789831,0.4797027604789831,0.3202972395210169,0.8,0.2297027604789831,0,1.0,0.8,0.2,2,0,2,0,0,14,14,30,,,,,,,146.76779849999002,146.76779849999002,146.86830379100866,147.00149787499686,147.23549466600525,147.23549466600525,147.23549466600525,147.23549466600525,147.56856608300586,147.56856608300586,147.56856608300586,147.56856608300586,147.56856608300586,147.7678414999973,0,,,100001,001,2023-04-13_16h01.48.438,DMS_etROI_12-36_stimBlast,2022.2.4,59.80043100270544,
stimBlast2,36,0,0.1,0.3797027604789831,0.7,0.2,84,PRED,12,0.3797027604789831,0,images/picture_1.png,images/picture_1.png,0,"[11.733433509789462, -11.733433509789466]",11.733433509789462,-11.733433509789464,images/picture_2.png,1,"[-11.733433509789462, 11.733433509789464]",-11.733433509789462,11.733433509789464,images/picture_3.png,2,"[-11.733433509789466, -11.733433509789462]",-11.733433509789464,-11.733433509789462,images/picture_1.png,0,"[11.733433509789462, -11.733433509789466]","[11.733433509789462, -11.733433509789466]","[11.733433509789462, -11.733433509789466]",0.1,0.3797027604789831,0.4797027604789831,0.3202972395210169,0.8,0.2297027604789831,0,1.0,0.8,0.2,2,0,2,0,0,15,15,12,,,,,,,147.7678414999973,147.7678414999973,147.8683159580105,148.0015004159941,148.23556520801503,148.23556520801503,148.23556520801503,148.23556520801503,148.568519708002,148.568519708002,148.568519708002,148.568519708002,148.568519708002,148.76840470801108,0,,,100001,001,2023-04-13_16h01.48.438,DMS_etROI_12-36_stimBlast,2022.2.4,59.80043100270544,
stimBlast2,36,0,0.1,0.3797027604789831,0.7,0.2,82,PRED,12,0.3797027604789831,0,images/picture_1.png,images/picture_1.png,0,"[11.733433509789462, -11.733433509789466]",11.733433509789462,-11.733433509789464,images/picture_2.png,1,"[-11.733433509789466, -11.733433509789462]",-11.733433509789464,-11.733433509789462,images/picture_3.png,2,"[-11.733433509789462, 11.733433509789464]",-11.733433509789462,11.733433509789464,images/picture_1.png,0,"[11.733433509789462, -11.733433509789466]","[11.733433509789462, -11.733433509789466]","[11.733433509789462, -11.733433509789466]",0.1,0.3797027604789831,0.4797027604789831,0.3202972395210169,0.8,0.2297027604789831,0,1.0,0.8,0.2,2,0,2,0,0,16,16,10,,,,,,,148.76840470801108,148.76840470801108,148.86830912501318,149.00146383300307,149.23485712500405,149.23485712500405,149.23485712500405,149.23485712500405,149.56829012499657,149.56829012499657,149.56829012499657,149.56829012499657,149.56829012499657,149.7677353330073,0,,,100001,001,2023-04-13_16h01.48.438,DMS_etROI_12-36_stimBlast,2022.2.4,59.80043100270544,
stimBlast2,36,0,0.1,0.3797027604789831,0.7,0.2,73,PRED,12,0.3797027604789831,0,images/picture_1.png,images/picture_1.png,0,"[-11.733433509789462, 11.733433509789464]",-11.733433509789462,11.733433509789464,images/picture_2.png,1,"[11.733433509789464, 11.733433509789462]",11.733433509789464,11.733433509789462,images/picture_3.png,2,"[-11.733433509789466, -11.733433509789462]",-11.733433509789464,-11.733433509789462,images/picture_1.png,0,"[-11.733433509789462, 11.733433509789464]","[-11.733433509789462, 11.733433509789464]","[-11.733433509789462, 11.733433509789464]",0.1,0.3797027604789831,0.4797027604789831,0.3202972395210169,0.8,0.2297027604789831,0,1.0,0.8,0.2,2,0,2,0,0,17,17,1,,,,,,,149.7677353330073,149.7677353330073,149.86806491599418,150.00201954098884,150.23432454100111,150.23432454100111,150.23432454100111,150.23432454100111,150.56798295798944,150.56798295798944,150.56798295798944,150.56798295798944,150.56798295798944,150.76752074999968,0,,,100001,001,2023-04-13_16h01.48.438,DMS_etROI_12-36_stimBlast,2022.2.4,59.80043100270544,
stimBlast2,36,0,0.1,0.3797027604789831,0.7,0.2,74,PRED,12,0.3797027604789831,0,images/picture_1.png,images/picture_1.png,0,"[-11.733433509789466, -11.733433509789462]",-11.733433509789464,-11.733433509789462,images/picture_2.png,1,"[11.733433509789462, -11.733433509789466]",11.733433509789462,-11.733433509789464,images/picture_3.png,2,"[11.733433509789464, 11.733433509789462]",11.733433509789464,11.733433509789462,images/picture_1.png,0,"[-11.733433509789466, -11.733433509789462]","[-11.733433509789466, -11.733433509789462]","[-11.733433509789466, -11.733433509789462]",0.1,0.3797027604789831,0.4797027604789831,0.3202972395210169,0.8,0.2297027604789831,0,1.0,0.8,0.2,2,0,2,0,0,18,18,2,,,,,,,150.76752074999968,150.76752074999968,150.86805395799456,151.0013272500073,151.23494508300791,151.23494508300791,151.23494508300791,151.23494508300791,151.55220120798913,151.56916099999216,151.56916099999216,151.56916099999216,151.56916099999216,151.75117404101184,0,,,100001,001,2023-04-13_16h01.48.438,DMS_etROI_12-36_stimBlast,2022.2.4,59.80043100270544,
stimBlast2,36,0,0.1,0.3797027604789831,0.7,0.2,106,PRED,12,0.3797027604789831,0,images/picture_1.png,images/picture_1.png,0,"[-11.733433509789466, -11.733433509789462]",-11.733433509789464,-11.733433509789462,images/picture_2.png,1,"[11.733433509789464, 11.733433509789462]",11.733433509789464,11.733433509789462,images/picture_3.png,2,"[11.733433509789462, -11.733433509789466]",11.733433509789462,-11.733433509789464,images/picture_1.png,0,"[-11.733433509789466, -11.733433509789462]","[-11.733433509789466, -11.733433509789462]","[-11.733433509789466, -11.733433509789462]",0.1,0.3797027604789831,0.4797027604789831,0.3202972395210169,0.8,0.2297027604789831,0,1.0,0.8,0.2,2,0,2,0,0,19,19,34,,,,,,,151.75117404101184,151.75117404101184,151.85189391599852,151.98524720800924,152.21886133300723,152.21886133300723,152.21886133300723,152.21886133300723,152.55191100001684,152.55191100001684,152.55191100001684,152.55191100001684,152.55191100001684,152.7511180829897,0,,,100001,001,2023-04-13_16h01.48.438,DMS_etROI_12-36_stimBlast,2022.2.4,59.80043100270544,
stimBlast2,36,0,0.1,0.3797027604789831,0.7,0.2,97,PRED,12,0.3797027604789831,0,images/picture_1.png,images/picture_1.png,0,"[-11.733433509789466, -11.733433509789462]",-11.733433509789464,-11.733433509789462,images/picture_2.png,1,"[-11.733433509789462, 11.733433509789464]",-11.733433509789462,11.733433509789464,images/picture_3.png,2,"[11.733433509789462, -11.733433509789466]",11.733433509789462,-11.733433509789464,images/picture_1.png,0,"[-11.733433509789466, -11.733433509789462]","[-11.733433509789466, -11.733433509789462]","[-11.733433509789466, -11.733433509789462]",0.1,0.3797027604789831,0.4797027604789831,0.3202972395210169,0.8,0.2297027604789831,0,1.0,0.8,0.2,2,0,2,0,0,20,20,25,,,,,,,152.7511180829897,152.7511180829897,152.85192099999404,152.98533162500826,153.21916008301196,153.21916008301196,153.21916008301196,153.21916008301196,153.55228775000433,153.55228775000433,153.55228775000433,153.55228775000433,153.55228775000433,153.75141154101584,0,,,100001,001,2023-04-13_16h01.48.438,DMS_etROI_12-36_stimBlast,2022.2.4,59.80043100270544,
