trial_count,blockType,blockNum,delay_time,stimImage_i,stimImage,responseImage1,responseImage1_i,responseImage1_pos,responseImage1_X,responseImage1_Y,responseImage2,responseImage2_i,responseImage2_pos,responseImage2_X,responseImage2_Y,responseImage3,responseImage3_i,responseImage3_pos,responseImage3_X,responseImage3_Y,targImage,targImage_i,targImage_pos,targImage_X,targImage_Y,cue_onset,cue_dur,delay_onset,delay_dur,resp_onset,resp_dur,rest_onset,rest_dur,circle_dur,circle_onset,total_dur,cross_onset,cross_dur,delay_resp_period,blocks.thisRepN,blocks.thisTrialN,blocks.thisN,blocks.thisIndex,trials.thisRepN,trials.thisTrialN,trials.thisN,trials.thisIndex,key_resp.started,text.started,key_resp.keys,key_resp.rt,text_2.started,text_2.stopped,sample.started,Delay.started,sample.stopped,Delay.stopped,Response_1.started,Response_2.started,Response_3.started,roi.started,Response_1.stopped,Response_2.stopped,Response_3.stopped,polygon.started,roi.stopped,polygon.stopped,roi.numLooks,roi.timesOn,roi.timesOff,participant,session,date,expName,psychopyVersion,frameRate,
,,,,,,,,,,,,,,,,,,,,,,,,,,,,,,,,,,,,,,,,,,,,,,,,15.68479916700744,15.68479916700744,t,0.9522451670200098,,,,,,,,,,,,,,,,,,,,100001,001,2023-04-13_15h25.45.422,DMS_etROI_12-36,2022.2.4,59.85898707214863,
5,PRED,12,0.5236928638573171,2,images/picture_3.png,images/picture_1.png,0,"[-11.733433509789462, 11.733433509789464]",-11.733433509789462,11.733433509789464,images/picture_2.png,1,"[11.733433509789464, 11.733433509789462]",11.733433509789464,11.733433509789462,images/picture_3.png,2,"[11.733433509789462, -11.733433509789466]",11.733433509789462,-11.733433509789464,images/picture_3.png,2,"[11.733433509789462, -11.733433509789466]","[11.733433509789462, -11.733433509789466]","[11.733433509789462, -11.733433509789466]",0,1,1,0.5236928638573171,1.523692863857317,1.476307136142683,3.0,1,1.273692863857317,0,4.0,3.0,1,2,0,0,0,0,0,0,0,5,,,,,16.651112167019164,28.682432166999206,28.682432166999206,28.682432166999206,29.684375292010373,29.968188458005898,30.18516258301679,30.18516258301679,30.18516258301679,30.18516258301679,31.6682132499991,31.6682132499991,31.6682132499991,31.6682132499991,31.6682132499991,32.68035924999276,0,,,100001,001,2023-04-13_15h25.45.422,DMS_etROI_12-36,2022.2.4,59.85898707214863,
2,PRED,12,0.5236928638573171,2,images/picture_3.png,images/picture_1.png,0,"[11.733433509789464, 11.733433509789462]",11.733433509789464,11.733433509789462,images/picture_2.png,1,"[11.733433509789462, -11.733433509789466]",11.733433509789462,-11.733433509789464,images/picture_3.png,2,"[-11.733433509789466, -11.733433509789462]",-11.733433509789464,-11.733433509789462,images/picture_3.png,2,"[-11.733433509789466, -11.733433509789462]","[-11.733433509789466, -11.733433509789462]","[-11.733433509789466, -11.733433509789462]",0,1,1,0.5236928638573171,1.523692863857317,1.476307136142683,3.0,1,1.273692863857317,0,4.0,3.0,1,2,0,0,0,0,0,1,1,2,,,,,,,32.68035924999276,32.68035924999276,33.685089583013905,33.96878641701187,34.185583208018215,34.185583208018215,34.185583208018215,34.185583208018215,35.66824766699574,35.66824766699574,35.66824766699574,35.66824766699574,35.66824766699574,36.67956362501718,0,,,100001,001,2023-04-13_15h25.45.422,DMS_etROI_12-36,2022.2.4,59.85898707214863,
6,PRED,12,0.5236928638573171,2,images/picture_3.png,images/picture_1.png,0,"[11.733433509789462, -11.733433509789466]",11.733433509789462,-11.733433509789464,images/picture_2.png,1,"[11.733433509789464, 11.733433509789462]",11.733433509789464,11.733433509789462,images/picture_3.png,2,"[-11.733433509789466, -11.733433509789462]",-11.733433509789464,-11.733433509789462,images/picture_3.png,2,"[-11.733433509789466, -11.733433509789462]","[-11.733433509789466, -11.733433509789462]","[-11.733433509789466, -11.733433509789462]",0,1,1,0.5236928638573171,1.523692863857317,1.476307136142683,3.0,1,1.273692863857317,0,4.0,3.0,1,2,0,0,0,0,0,2,2,6,,,,,,,36.67956362501718,36.67956362501718,37.68482729201787,37.9681494999968,38.18587004201254,38.18587004201254,38.18587004201254,38.18587004201254,39.667962833016645,39.667962833016645,39.667962833016645,39.667962833016645,39.667962833016645,40.6786889579962,0,,,100001,001,2023-04-13_15h25.45.422,DMS_etROI_12-36,2022.2.4,59.85898707214863,
3,PRED,12,0.5236928638573171,2,images/picture_3.png,images/picture_1.png,0,"[11.733433509789462, -11.733433509789466]",11.733433509789462,-11.733433509789464,images/picture_2.png,1,"[-11.733433509789466, -11.733433509789462]",-11.733433509789464,-11.733433509789462,images/picture_3.png,2,"[-11.733433509789462, 11.733433509789464]",-11.733433509789462,11.733433509789464,images/picture_3.png,2,"[-11.733433509789462, 11.733433509789464]","[-11.733433509789462, 11.733433509789464]","[-11.733433509789462, 11.733433509789464]",0,1,1,0.5236928638573171,1.523692863857317,1.476307136142683,3.0,1,1.273692863857317,0,4.0,3.0,1,2,0,0,0,0,0,3,3,3,,,,,,,40.6786889579962,40.6786889579962,41.68462412501685,41.95148808299564,42.185854750016006,42.185854750016006,42.185854750016006,42.185854750016006,43.66801841699635,43.66801841699635,43.66801841699635,43.66801841699635,43.66801841699635,44.682319125015056,0,,,100001,001,2023-04-13_15h25.45.422,DMS_etROI_12-36,2022.2.4,59.85898707214863,
8,PRED,12,0.5236928638573171,2,images/picture_3.png,images/picture_1.png,0,"[11.733433509789462, -11.733433509789466]",11.733433509789462,-11.733433509789464,images/picture_2.png,1,"[11.733433509789464, 11.733433509789462]",11.733433509789464,11.733433509789462,images/picture_3.png,2,"[-11.733433509789462, 11.733433509789464]",-11.733433509789462,11.733433509789464,images/picture_3.png,2,"[-11.733433509789462, 11.733433509789464]","[-11.733433509789462, 11.733433509789464]","[-11.733433509789462, 11.733433509789464]",0,1,1,0.5236928638573171,1.523692863857317,1.476307136142683,3.0,1,1.273692863857317,0,4.0,3.0,1,2,0,0,0,0,0,4,4,8,,,,,,,44.682319125015056,44.682319125015056,45.68531429200084,45.96812591701746,46.185239582991926,46.185239582991926,46.185239582991926,46.185239582991926,47.668534791999264,47.668534791999264,47.668534791999264,47.668534791999264,47.668534791999264,48.678612374991644,0,,,100001,001,2023-04-13_15h25.45.422,DMS_etROI_12-36,2022.2.4,59.85898707214863,
0,PRED,12,0.5236928638573171,2,images/picture_3.png,images/picture_1.png,0,"[11.733433509789464, 11.733433509789462]",11.733433509789464,11.733433509789462,images/picture_2.png,1,"[-11.733433509789462, 11.733433509789464]",-11.733433509789462,11.733433509789464,images/picture_3.png,2,"[-11.733433509789466, -11.733433509789462]",-11.733433509789464,-11.733433509789462,images/picture_3.png,2,"[-11.733433509789466, -11.733433509789462]","[-11.733433509789466, -11.733433509789462]","[-11.733433509789466, -11.733433509789462]",0,1,1,0.5236928638573171,1.523692863857317,1.476307136142683,3.0,1,1.273692863857317,0,4.0,3.0,1,2,0,0,0,0,0,5,5,0,,,,,,,48.678612374991644,48.678612374991644,49.68451062499662,49.95129666701541,50.18479754199507,50.18479754199507,50.18479754199507,50.18479754199507,51.668458375002956,51.668458375002956,51.668458375002956,51.668458375002956,51.668458375002956,52.679703375004465,0,,,100001,001,2023-04-13_15h25.45.422,DMS_etROI_12-36,2022.2.4,59.85898707214863,
1,PRED,12,0.5236928638573171,2,images/picture_3.png,images/picture_1.png,0,"[-11.733433509789466, -11.733433509789462]",-11.733433509789464,-11.733433509789462,images/picture_2.png,1,"[-11.733433509789462, 11.733433509789464]",-11.733433509789462,11.733433509789464,images/picture_3.png,2,"[11.733433509789462, -11.733433509789466]",11.733433509789462,-11.733433509789464,images/picture_3.png,2,"[11.733433509789462, -11.733433509789466]","[11.733433509789462, -11.733433509789466]","[11.733433509789462, -11.733433509789466]",0,1,1,0.5236928638573171,1.523692863857317,1.476307136142683,3.0,1,1.273692863857317,0,4.0,3.0,1,2,0,0,0,0,0,6,6,1,,,,,,,52.679703375004465,52.679703375004465,53.68501566699706,53.9690448330075,54.18598804200883,54.18598804200883,54.18598804200883,54.18598804200883,55.66870766700595,55.66870766700595,55.66870766700595,55.66870766700595,55.66870766700595,56.678695083013736,0,,,100001,001,2023-04-13_15h25.45.422,DMS_etROI_12-36,2022.2.4,59.85898707214863,
4,PRED,12,0.5236928638573171,2,images/picture_3.png,images/picture_1.png,0,"[-11.733433509789462, 11.733433509789464]",-11.733433509789462,11.733433509789464,images/picture_2.png,1,"[11.733433509789462, -11.733433509789466]",11.733433509789462,-11.733433509789464,images/picture_3.png,2,"[-11.733433509789466, -11.733433509789462]",-11.733433509789464,-11.733433509789462,images/picture_3.png,2,"[-11.733433509789466, -11.733433509789462]","[-11.733433509789466, -11.733433509789462]","[-11.733433509789466, -11.733433509789462]",0,1,1,0.5236928638573171,1.523692863857317,1.476307136142683,3.0,1,1.273692863857317,0,4.0,3.0,1,2,0,0,0,0,0,7,7,4,,,,,,,56.678695083013736,56.678695083013736,57.68506662501022,57.951707833010005,58.18522149999626,58.18522149999626,58.18522149999626,58.18522149999626,59.66794991699862,59.66794991699862,59.66794991699862,59.66794991699862,59.66794991699862,60.67908612501924,0,,,100001,001,2023-04-13_15h25.45.422,DMS_etROI_12-36,2022.2.4,59.85898707214863,
7,PRED,12,0.5236928638573171,2,images/picture_3.png,images/picture_1.png,0,"[11.733433509789462, -11.733433509789466]",11.733433509789462,-11.733433509789464,images/picture_2.png,1,"[-11.733433509789462, 11.733433509789464]",-11.733433509789462,11.733433509789464,images/picture_3.png,2,"[-11.733433509789466, -11.733433509789462]",-11.733433509789464,-11.733433509789462,images/picture_3.png,2,"[-11.733433509789466, -11.733433509789462]","[-11.733433509789466, -11.733433509789462]","[-11.733433509789466, -11.733433509789462]",0,1,1,0.5236928638573171,1.523692863857317,1.476307136142683,3.0,1,1.273692863857317,0,4.0,3.0,1,2,0,0,0,0,0,8,8,7,,,,,,,60.67908612501924,60.67908612501924,61.68556974999956,61.9688851670071,62.18558345802012,62.18558345802012,62.18558345802012,62.18558345802012,63.66902470801142,63.66902470801142,63.66902470801142,63.66902470801142,63.66902470801142,64.71332054201048,0,,,100001,001,2023-04-13_15h25.45.422,DMS_etROI_12-36,2022.2.4,59.85898707214863,
,,,,,,,,,,,,,,,,,,,,,,,,,,,,,,,,,,,,,,,,0,0,0,0,,,,,,,,,64.71332054201048,76.74302083300427,,,,,,,,,,,,,,,,,,100001,001,2023-04-13_15h25.45.422,DMS_etROI_12-36,2022.2.4,59.85898707214863,
11,UNPRED,12,0.5236928638573171,1,images/picture_2.png,images/picture_1.png,0,"[11.733433509789462, -11.733433509789466]",11.733433509789462,-11.733433509789464,images/picture_2.png,1,"[-11.733433509789466, -11.733433509789462]",-11.733433509789464,-11.733433509789462,images/picture_3.png,2,"[11.733433509789464, 11.733433509789462]",11.733433509789464,11.733433509789462,images/picture_2.png,1,"[-11.733433509789466, -11.733433509789462]","[-11.733433509789466, -11.733433509789462]","[-11.733433509789466, -11.733433509789462]",0,1,1,0.5236928638573171,1.523692863857317,1.476307136142683,3.0,1,1.273692863857317,0,4.0,3.0,1,2,1,0,1,0,0,0,0,2,,,,,,,76.74302083300427,76.74302083300427,77.75256504199933,78.0186990420043,78.26851220801473,78.26851220801473,78.26851220801473,78.26851220801473,79.75145383301424,79.75145383301424,79.75145383301424,79.73478437500307,79.75145383301424,80.73505775001831,0,,,100001,001,2023-04-13_15h25.45.422,DMS_etROI_12-36,2022.2.4,59.85898707214863,
9,UNPRED,12,0.5236928638573171,2,images/picture_3.png,images/picture_1.png,0,"[-11.733433509789466, -11.733433509789462]",-11.733433509789464,-11.733433509789462,images/picture_2.png,1,"[11.733433509789464, 11.733433509789462]",11.733433509789464,11.733433509789462,images/picture_3.png,2,"[-11.733433509789462, 11.733433509789464]",-11.733433509789462,11.733433509789464,images/picture_3.png,2,"[-11.733433509789462, 11.733433509789464]","[-11.733433509789462, 11.733433509789464]","[-11.733433509789462, 11.733433509789464]",0,1,1,0.5236928638573171,1.523692863857317,1.476307136142683,3.0,1,1.273692863857317,0,4.0,3.0,1,2,1,0,1,0,0,1,1,0,,,,,,,80.73505775001831,80.73505775001831,81.73529529201915,82.01877749999403,82.25272537500132,82.25272537500132,82.25272537500132,82.25272537500132,83.73520262501552,83.73520262501552,83.73520262501552,83.71865850000177,83.73520262501552,84.72982300000149,0,,,100001,001,2023-04-13_15h25.45.422,DMS_etROI_12-36,2022.2.4,59.85898707214863,
10,UNPRED,12,0.5236928638573171,2,images/picture_3.png,images/picture_1.png,0,"[11.733433509789464, 11.733433509789462]",11.733433509789464,11.733433509789462,images/picture_2.png,1,"[11.733433509789462, -11.733433509789466]",11.733433509789462,-11.733433509789464,images/picture_3.png,2,"[-11.733433509789466, -11.733433509789462]",-11.733433509789464,-11.733433509789462,images/picture_3.png,2,"[-11.733433509789466, -11.733433509789462]","[-11.733433509789466, -11.733433509789462]","[-11.733433509789466, -11.733433509789462]",0,1,1,0.5236928638573171,1.523692863857317,1.476307136142683,3.0,1,1.273692863857317,0,4.0,3.0,1,2,1,0,1,0,0,2,2,1,,,,,,,84.72982300000149,84.72982300000149,85.7354408329993,86.01856320799561,86.23606391699286,86.23606391699286,86.23606391699286,86.23606391699286,87.71877737500472,87.71877737500472,87.71877737500472,87.71877737500472,87.71877737500472,88.71954862499842,0,,,100001,001,2023-04-13_15h25.45.422,DMS_etROI_12-36,2022.2.4,59.85898707214863,
14,UNPRED,12,0.5236928638573171,1,images/picture_2.png,images/picture_1.png,0,"[-11.733433509789466, -11.733433509789462]",-11.733433509789464,-11.733433509789462,images/picture_2.png,1,"[11.733433509789464, 11.733433509789462]",11.733433509789464,11.733433509789462,images/picture_3.png,2,"[11.733433509789462, -11.733433509789466]",11.733433509789462,-11.733433509789464,images/picture_2.png,1,"[11.733433509789464, 11.733433509789462]","[11.733433509789464, 11.733433509789462]","[11.733433509789464, 11.733433509789462]",0,1,1,0.5236928638573171,1.523692863857317,1.476307136142683,3.0,1,1.273692863857317,0,4.0,3.0,1,2,1,0,1,0,0,3,3,5,,,,,,,88.71954862499842,88.71954862499842,89.73546029199497,90.00178529199911,90.23519104201114,90.23519104201114,90.23519104201114,90.23519104201114,91.71900354200625,91.71900354200625,91.71900354200625,91.71900354200625,91.71900354200625,92.73305520799477,0,,,100001,001,2023-04-13_15h25.45.422,DMS_etROI_12-36,2022.2.4,59.85898707214863,
13,UNPRED,12,0.5236928638573171,2,images/picture_3.png,images/picture_1.png,0,"[-11.733433509789466, -11.733433509789462]",-11.733433509789464,-11.733433509789462,images/picture_2.png,1,"[11.733433509789462, -11.733433509789466]",11.733433509789462,-11.733433509789464,images/picture_3.png,2,"[-11.733433509789462, 11.733433509789464]",-11.733433509789462,11.733433509789464,images/picture_3.png,2,"[-11.733433509789462, 11.733433509789464]","[-11.733433509789462, 11.733433509789464]","[-11.733433509789462, 11.733433509789464]",0,1,1,0.5236928638573171,1.523692863857317,1.476307136142683,3.0,1,1.273692863857317,0,4.0,3.0,1,2,1,0,1,0,0,4,4,4,,,,,,,92.73305520799477,92.73305520799477,93.73526558300364,94.01907633300289,94.23537266699714,94.23537266699714,94.23537266699714,94.23537266699714,95.71923712501302,95.71923712501302,95.71923712501302,95.71923712501302,95.71923712501302,96.71944358301698,0,,,100001,001,2023-04-13_15h25.45.422,DMS_etROI_12-36,2022.2.4,59.85898707214863,
17,UNPRED,12,0.5236928638573171,1,images/picture_2.png,images/picture_1.png,0,"[-11.733433509789462, 11.733433509789464]",-11.733433509789462,11.733433509789464,images/picture_2.png,1,"[-11.733433509789466, -11.733433509789462]",-11.733433509789464,-11.733433509789462,images/picture_3.png,2,"[11.733433509789464, 11.733433509789462]",11.733433509789464,11.733433509789462,images/picture_2.png,1,"[-11.733433509789466, -11.733433509789462]","[-11.733433509789466, -11.733433509789462]","[-11.733433509789466, -11.733433509789462]",0,1,1,0.5236928638573171,1.523692863857317,1.476307136142683,3.0,1,1.273692863857317,0,4.0,3.0,1,2,1,0,1,0,0,5,5,8,,,,,,,96.71944358301698,96.71944358301698,97.71889766701497,98.00245045800693,98.23588020799798,98.23588020799798,98.23588020799798,98.23588020799798,99.71881462499732,99.71881462499732,99.71881462499732,99.71881462499732,99.71881462499732,100.71816133300308,0,,,100001,001,2023-04-13_15h25.45.422,DMS_etROI_12-36,2022.2.4,59.85898707214863,
15,UNPRED,12,0.5236928638573171,1,images/picture_2.png,images/picture_1.png,0,"[-11.733433509789462, 11.733433509789464]",-11.733433509789462,11.733433509789464,images/picture_2.png,1,"[11.733433509789462, -11.733433509789466]",11.733433509789462,-11.733433509789464,images/picture_3.png,2,"[11.733433509789464, 11.733433509789462]",11.733433509789464,11.733433509789462,images/picture_2.png,1,"[11.733433509789462, -11.733433509789466]","[11.733433509789462, -11.733433509789466]","[11.733433509789462, -11.733433509789466]",0,1,1,0.5236928638573171,1.523692863857317,1.476307136142683,3.0,1,1.273692863857317,0,4.0,3.0,1,2,1,0,1,0,0,6,6,6,,,,,,,100.71816133300308,100.71816133300308,101.71866470799432,102.00210229199729,102.23638354201103,102.23638354201103,102.23638354201103,102.23638354201103,103.7188885420037,103.7188885420037,103.7188885420037,103.70214762500837,103.7188885420037,104.71489362500142,0,,,100001,001,2023-04-13_15h25.45.422,DMS_etROI_12-36,2022.2.4,59.85898707214863,
12,UNPRED,12,0.5236928638573171,2,images/picture_3.png,images/picture_1.png,0,"[11.733433509789462, -11.733433509789466]",11.733433509789462,-11.733433509789464,images/picture_2.png,1,"[-11.733433509789462, 11.733433509789464]",-11.733433509789462,11.733433509789464,images/picture_3.png,2,"[-11.733433509789466, -11.733433509789462]",-11.733433509789464,-11.733433509789462,images/picture_3.png,2,"[-11.733433509789466, -11.733433509789462]","[-11.733433509789466, -11.733433509789462]","[-11.733433509789466, -11.733433509789462]",0,1,1,0.5236928638573171,1.523692863857317,1.476307136142683,3.0,1,1.273692863857317,0,4.0,3.0,1,2,1,0,1,0,0,7,7,3,,,,,,,104.71489362500142,104.71489362500142,105.718820375012,106.00208737500361,106.21874000001117,106.21874000001117,106.21874000001117,106.21874000001117,107.70222983299755,107.70222983299755,107.70222983299755,107.70222983299755,107.70222983299755,108.70270487500238,0,,,100001,001,2023-04-13_15h25.45.422,DMS_etROI_12-36,2022.2.4,59.85898707214863,
16,UNPRED,12,0.5236928638573171,1,images/picture_2.png,images/picture_1.png,0,"[-11.733433509789466, -11.733433509789462]",-11.733433509789464,-11.733433509789462,images/picture_2.png,1,"[-11.733433509789462, 11.733433509789464]",-11.733433509789462,11.733433509789464,images/picture_3.png,2,"[11.733433509789464, 11.733433509789462]",11.733433509789464,11.733433509789462,images/picture_2.png,1,"[-11.733433509789462, 11.733433509789464]","[-11.733433509789462, 11.733433509789464]","[-11.733433509789462, 11.733433509789464]",0,1,1,0.5236928638573171,1.523692863857317,1.476307136142683,3.0,1,1.273692863857317,0,4.0,3.0,1,2,1,0,1,0,0,8,8,7,,,,,,,108.70270487500238,108.70270487500238,109.70260424999287,109.98567741701845,110.21901900001103,110.21901900001103,110.21901900001103,110.21901900001103,111.70208045799518,111.70208045799518,111.70208045799518,111.70208045799518,111.70208045799518,112.76322083300329,0,,,100001,001,2023-04-13_15h25.45.422,DMS_etROI_12-36,2022.2.4,59.85898707214863,
,,,,,,,,,,,,,,,,,,,,,,,,,,,,,,,,,,,,,,,,1,0,1,0,,,,,,,,,112.76322083300329,124.80870850000065,,,,,,,,,,,,,,,,,,100001,001,2023-04-13_15h25.45.422,DMS_etROI_12-36,2022.2.4,59.85898707214863,
25,PRED,12,0.5236928638573171,2,images/picture_3.png,images/picture_1.png,0,"[-11.733433509789466, -11.733433509789462]",-11.733433509789464,-11.733433509789462,images/picture_2.png,1,"[11.733433509789462, -11.733433509789466]",11.733433509789462,-11.733433509789464,images/picture_3.png,2,"[11.733433509789464, 11.733433509789462]",11.733433509789464,11.733433509789462,images/picture_3.png,2,"[11.733433509789464, 11.733433509789462]","[11.733433509789464, 11.733433509789462]","[11.733433509789464, 11.733433509789462]",0,1,1,0.5236928638573171,1.523692863857317,1.476307136142683,3.0,1,1.273692863857317,0,4.0,3.0,1,2,2,0,2,0,0,0,0,7,,,,,,,124.80870850000065,124.80870850000065,125.81977491700673,126.0857169170049,126.3195252919977,126.3195252919977,126.3195252919977,126.3195252919977,127.80266950000077,127.80266950000077,127.80266950000077,127.80266950000077,127.80266950000077,128.81340858299518,0,,,100001,001,2023-04-13_15h25.45.422,DMS_etROI_12-36,2022.2.4,59.85898707214863,
20,PRED,12,0.5236928638573171,2,images/picture_3.png,images/picture_1.png,0,"[11.733433509789462, -11.733433509789466]",11.733433509789462,-11.733433509789464,images/picture_2.png,1,"[-11.733433509789466, -11.733433509789462]",-11.733433509789464,-11.733433509789462,images/picture_3.png,2,"[11.733433509789464, 11.733433509789462]",11.733433509789464,11.733433509789462,images/picture_3.png,2,"[11.733433509789464, 11.733433509789462]","[11.733433509789464, 11.733433509789462]","[11.733433509789464, 11.733433509789462]",0,1,1,0.5236928638573171,1.523692863857317,1.476307136142683,3.0,1,1.273692863857317,0,4.0,3.0,1,2,2,0,2,0,0,1,1,2,,,,,,,128.81340858299518,128.81340858299518,129.8195125000202,130.10292633299832,130.31967545801308,130.31967545801308,130.31967545801308,130.31967545801308,131.8021885420021,131.8021885420021,131.8021885420021,131.8021885420021,131.8021885420021,132.8132915419992,0,,,100001,001,2023-04-13_15h25.45.422,DMS_etROI_12-36,2022.2.4,59.85898707214863,
19,PRED,12,0.5236928638573171,2,images/picture_3.png,images/picture_1.png,0,"[11.733433509789462, -11.733433509789466]",11.733433509789462,-11.733433509789464,images/picture_2.png,1,"[-11.733433509789466, -11.733433509789462]",-11.733433509789464,-11.733433509789462,images/picture_3.png,2,"[-11.733433509789462, 11.733433509789464]",-11.733433509789462,11.733433509789464,images/picture_3.png,2,"[-11.733433509789462, 11.733433509789464]","[-11.733433509789462, 11.733433509789464]","[-11.733433509789462, 11.733433509789464]",0,1,1,0.5236928638573171,1.523692863857317,1.476307136142683,3.0,1,1.273692863857317,0,4.0,3.0,1,2,2,0,2,0,0,2,2,1,,,,,,,132.8132915419992,132.8132915419992,133.8190009999962,134.08589895800105,134.319265291997,134.319265291997,134.319265291997,134.319265291997,135.80230795801617,135.80230795801617,135.80230795801617,135.80230795801617,135.80230795801617,136.81465062501957,0,,,100001,001,2023-04-13_15h25.45.422,DMS_etROI_12-36,2022.2.4,59.85898707214863,
18,PRED,12,0.5236928638573171,2,images/picture_3.png,images/picture_1.png,0,"[-11.733433509789462, 11.733433509789464]",-11.733433509789462,11.733433509789464,images/picture_2.png,1,"[-11.733433509789466, -11.733433509789462]",-11.733433509789464,-11.733433509789462,images/picture_3.png,2,"[11.733433509789464, 11.733433509789462]",11.733433509789464,11.733433509789462,images/picture_3.png,2,"[11.733433509789464, 11.733433509789462]","[11.733433509789464, 11.733433509789462]","[11.733433509789464, 11.733433509789462]",0,1,1,0.5236928638573171,1.523692863857317,1.476307136142683,3.0,1,1.273692863857317,0,4.0,3.0,1,2,2,0,2,0,0,3,3,0,,,,,,,136.81465062501957,136.81465062501957,137.81921062499168,138.1031233750109,138.3197105420113,138.3197105420113,138.3197105420113,138.3197105420113,139.8027933750127,139.8027933750127,139.8027933750127,139.8027933750127,139.8027933750127,140.816408957995,0,,,100001,001,2023-04-13_15h25.45.422,DMS_etROI_12-36,2022.2.4,59.85898707214863,
23,PRED,12,0.5236928638573171,2,images/picture_3.png,images/picture_1.png,0,"[-11.733433509789466, -11.733433509789462]",-11.733433509789464,-11.733433509789462,images/picture_2.png,1,"[11.733433509789462, -11.733433509789466]",11.733433509789462,-11.733433509789464,images/picture_3.png,2,"[-11.733433509789462, 11.733433509789464]",-11.733433509789462,11.733433509789464,images/picture_3.png,2,"[-11.733433509789462, 11.733433509789464]","[-11.733433509789462, 11.733433509789464]","[-11.733433509789462, 11.733433509789464]",0,1,1,0.5236928638573171,1.523692863857317,1.476307136142683,3.0,1,1.273692863857317,0,4.0,3.0,1,2,2,0,2,0,0,4,4,5,,,,,,,140.816408957995,140.816408957995,141.8190055419982,142.1025649170042,142.3193059579935,142.3193059579935,142.3193059579935,142.3193059579935,143.80264079201152,143.80264079201152,143.80264079201152,143.80264079201152,143.80264079201152,144.81283016700763,0,,,100001,001,2023-04-13_15h25.45.422,DMS_etROI_12-36,2022.2.4,59.85898707214863,
22,PRED,12,0.5236928638573171,2,images/picture_3.png,images/picture_1.png,0,"[-11.733433509789462, 11.733433509789464]",-11.733433509789462,11.733433509789464,images/picture_2.png,1,"[11.733433509789462, -11.733433509789466]",11.733433509789462,-11.733433509789464,images/picture_3.png,2,"[-11.733433509789466, -11.733433509789462]",-11.733433509789464,-11.733433509789462,images/picture_3.png,2,"[-11.733433509789466, -11.733433509789462]","[-11.733433509789466, -11.733433509789462]","[-11.733433509789466, -11.733433509789462]",0,1,1,0.5236928638573171,1.523692863857317,1.476307136142683,3.0,1,1.273692863857317,0,4.0,3.0,1,2,2,0,2,0,0,5,5,4,,,,,,,144.81283016700763,144.81283016700763,145.81925283299643,146.08601545801503,146.3196716250095,146.3196716250095,146.3196716250095,146.3196716250095,147.80269783301628,147.80269783301628,147.80269783301628,147.80269783301628,147.80269783301628,148.81027350001386,0,,,100001,001,2023-04-13_15h25.45.422,DMS_etROI_12-36,2022.2.4,59.85898707214863,
26,PRED,12,0.5236928638573171,2,images/picture_3.png,images/picture_1.png,0,"[-11.733433509789462, 11.733433509789464]",-11.733433509789462,11.733433509789464,images/picture_2.png,1,"[11.733433509789462, -11.733433509789466]",11.733433509789462,-11.733433509789464,images/picture_3.png,2,"[-11.733433509789466, -11.733433509789462]",-11.733433509789464,-11.733433509789462,images/picture_3.png,2,"[-11.733433509789466, -11.733433509789462]","[-11.733433509789466, -11.733433509789462]","[-11.733433509789466, -11.733433509789462]",0,1,1,0.5236928638573171,1.523692863857317,1.476307136142683,3.0,1,1.273692863857317,0,4.0,3.0,1,2,2,0,2,0,0,6,6,8,,,,,,,148.81027350001386,148.81027350001386,149.8196017500013,150.08614729199326,150.31998358300189,150.31998358300189,150.31998358300189,150.31998358300189,151.80215087500983,151.80215087500983,151.80215087500983,151.80215087500983,151.80215087500983,152.81416779200663,0,,,100001,001,2023-04-13_15h25.45.422,DMS_etROI_12-36,2022.2.4,59.85898707214863,
21,PRED,12,0.5236928638573171,2,images/picture_3.png,images/picture_1.png,0,"[11.733433509789464, 11.733433509789462]",11.733433509789464,11.733433509789462,images/picture_2.png,1,"[-11.733433509789462, 11.733433509789464]",-11.733433509789462,11.733433509789464,images/picture_3.png,2,"[11.733433509789462, -11.733433509789466]",11.733433509789462,-11.733433509789464,images/picture_3.png,2,"[11.733433509789462, -11.733433509789466]","[11.733433509789462, -11.733433509789466]","[11.733433509789462, -11.733433509789466]",0,1,1,0.5236928638573171,1.523692863857317,1.476307136142683,3.0,1,1.273692863857317,0,4.0,3.0,1,2,2,0,2,0,0,7,7,3,,,,,,,152.81416779200663,152.81416779200663,153.8199794999964,154.10301579200313,154.31994433299406,154.31994433299406,154.31994433299406,154.31994433299406,155.8029704579967,155.8029704579967,155.8029704579967,155.8029704579967,155.8029704579967,156.81374350000988,0,,,100001,001,2023-04-13_15h25.45.422,DMS_etROI_12-36,2022.2.4,59.85898707214863,
24,PRED,12,0.5236928638573171,2,images/picture_3.png,images/picture_1.png,0,"[11.733433509789462, -11.733433509789466]",11.733433509789462,-11.733433509789464,images/picture_2.png,1,"[11.733433509789464, 11.733433509789462]",11.733433509789464,11.733433509789462,images/picture_3.png,2,"[-11.733433509789466, -11.733433509789462]",-11.733433509789464,-11.733433509789462,images/picture_3.png,2,"[-11.733433509789466, -11.733433509789462]","[-11.733433509789466, -11.733433509789462]","[-11.733433509789466, -11.733433509789462]",0,1,1,0.5236928638573171,1.523692863857317,1.476307136142683,3.0,1,1.273692863857317,0,4.0,3.0,1,2,2,0,2,0,0,8,8,6,,,,,,,156.81374350000988,156.81374350000988,157.8193134579924,158.10306004201993,158.31990470801247,158.31990470801247,158.31990470801247,158.31990470801247,159.8027551670093,159.8027551670093,159.8027551670093,159.8027551670093,159.8027551670093,160.87877745801234,0,,,100001,001,2023-04-13_15h25.45.422,DMS_etROI_12-36,2022.2.4,59.85898707214863,
,,,,,,,,,,,,,,,,,,,,,,,,,,,,,,,,,,,,,,,,2,0,2,0,,,,,,,,,160.87877745801234,172.91269791699597,,,,,,,,,,,,,,,,,,100001,001,2023-04-13_15h25.45.422,DMS_etROI_12-36,2022.2.4,59.85898707214863,
31,UNPRED,12,0.5236928638573171,1,images/picture_2.png,images/picture_1.png,0,"[11.733433509789464, 11.733433509789462]",11.733433509789464,11.733433509789462,images/picture_2.png,1,"[-11.733433509789462, 11.733433509789464]",-11.733433509789462,11.733433509789464,images/picture_3.png,2,"[11.733433509789462, -11.733433509789466]",11.733433509789462,-11.733433509789464,images/picture_2.png,1,"[-11.733433509789462, 11.733433509789464]","[-11.733433509789462, 11.733433509789464]","[-11.733433509789462, 11.733433509789464]",0,1,1,0.5236928638573171,1.523692863857317,1.476307136142683,3.0,1,1.273692863857317,0,4.0,3.0,1,2,3,0,3,0,0,0,0,4,,,,,,,172.91269791699597,172.91269791699597,173.91981925000437,174.18648491700878,174.4367060830118,174.4367060830118,174.4367060830118,174.4367060830118,175.9198612080072,175.9198612080072,175.9198612080072,175.90348712500418,175.9198612080072,176.91762495800504,0,,,100001,001,2023-04-13_15h25.45.422,DMS_etROI_12-36,2022.2.4,59.85898707214863,
32,UNPRED,12,0.5236928638573171,2,images/picture_3.png,images/picture_1.png,0,"[-11.733433509789466, -11.733433509789462]",-11.733433509789464,-11.733433509789462,images/picture_2.png,1,"[-11.733433509789462, 11.733433509789464]",-11.733433509789462,11.733433509789464,images/picture_3.png,2,"[11.733433509789462, -11.733433509789466]",11.733433509789462,-11.733433509789464,images/picture_3.png,2,"[11.733433509789462, -11.733433509789466]","[11.733433509789462, -11.733433509789466]","[11.733433509789462, -11.733433509789466]",0,1,1,0.5236928638573171,1.523692863857317,1.476307136142683,3.0,1,1.273692863857317,0,4.0,3.0,1,2,3,0,3,0,0,1,1,5,,,,,,,176.91762495800504,176.91762495800504,177.91931758300052,178.20322645801934,178.42012250001426,178.42012250001426,178.42012250001426,178.42012250001426,179.90349208301632,179.90349208301632,179.90349208301632,179.90349208301632,179.90349208301632,180.90257379200193,0,,,100001,001,2023-04-13_15h25.45.422,DMS_etROI_12-36,2022.2.4,59.85898707214863,
34,UNPRED,12,0.5236928638573171,0,images/picture_1.png,images/picture_1.png,0,"[-11.733433509789466, -11.733433509789462]",-11.733433509789464,-11.733433509789462,images/picture_2.png,1,"[-11.733433509789462, 11.733433509789464]",-11.733433509789462,11.733433509789464,images/picture_3.png,2,"[11.733433509789462, -11.733433509789466]",11.733433509789462,-11.733433509789464,images/picture_1.png,0,"[-11.733433509789466, -11.733433509789462]","[-11.733433509789466, -11.733433509789462]","[-11.733433509789466, -11.733433509789462]",0,1,1,0.5236928638573171,1.523692863857317,1.476307136142683,3.0,1,1.273692863857317,0,4.0,3.0,1,2,3,0,3,0,0,2,2,7,,,,,,,180.90257379200193,180.90257379200193,181.90244954201626,182.18576395799755,182.41907100001117,182.41907100001117,182.41907100001117,182.41907100001117,183.9032282080152,183.9032282080152,183.9032282080152,183.9032282080152,183.9032282080152,184.9027430000133,0,,,100001,001,2023-04-13_15h25.45.422,DMS_etROI_12-36,2022.2.4,59.85898707214863,
33,UNPRED,12,0.5236928638573171,0,images/picture_1.png,images/picture_1.png,0,"[-11.733433509789462, 11.733433509789464]",-11.733433509789462,11.733433509789464,images/picture_2.png,1,"[-11.733433509789466, -11.733433509789462]",-11.733433509789464,-11.733433509789462,images/picture_3.png,2,"[11.733433509789464, 11.733433509789462]",11.733433509789464,11.733433509789462,images/picture_1.png,0,"[-11.733433509789462, 11.733433509789464]","[-11.733433509789462, 11.733433509789464]","[-11.733433509789462, 11.733433509789464]",0,1,1,0.5236928638573171,1.523692863857317,1.476307136142683,3.0,1,1.273692863857317,0,4.0,3.0,1,2,3,0,3,0,0,3,3,6,,,,,,,184.9027430000133,184.9027430000133,185.90278566701454,186.18692983299843,186.42013691700413,186.42013691700413,186.42013691700413,186.42013691700413,187.90327670800616,187.90327670800616,187.90327670800616,187.90327670800616,187.90327670800616,188.91522933301167,0,,,100001,001,2023-04-13_15h25.45.422,DMS_etROI_12-36,2022.2.4,59.85898707214863,
30,UNPRED,12,0.5236928638573171,2,images/picture_3.png,images/picture_1.png,0,"[11.733433509789464, 11.733433509789462]",11.733433509789464,11.733433509789462,images/picture_2.png,1,"[-11.733433509789466, -11.733433509789462]",-11.733433509789464,-11.733433509789462,images/picture_3.png,2,"[-11.733433509789462, 11.733433509789464]",-11.733433509789462,11.733433509789464,images/picture_3.png,2,"[-11.733433509789462, 11.733433509789464]","[-11.733433509789462, 11.733433509789464]","[-11.733433509789462, 11.733433509789464]",0,1,1,0.5236928638573171,1.523692863857317,1.476307136142683,3.0,1,1.273692863857317,0,4.0,3.0,1,2,3,0,3,0,0,4,4,3,,,,,,,188.91522933301167,188.91522933301167,189.91912370800856,190.20343720799428,190.41989829199156,190.41989829199156,190.41989829199156,190.41989829199156,191.9033488749992,191.9033488749992,191.9033488749992,191.9033488749992,191.9033488749992,192.90208987501683,0,,,100001,001,2023-04-13_15h25.45.422,DMS_etROI_12-36,2022.2.4,59.85898707214863,
28,UNPRED,12,0.5236928638573171,1,images/picture_2.png,images/picture_1.png,0,"[11.733433509789464, 11.733433509789462]",11.733433509789464,11.733433509789462,images/picture_2.png,1,"[-11.733433509789466, -11.733433509789462]",-11.733433509789464,-11.733433509789462,images/picture_3.png,2,"[11.733433509789462, -11.733433509789466]",11.733433509789462,-11.733433509789464,images/picture_2.png,1,"[-11.733433509789466, -11.733433509789462]","[-11.733433509789466, -11.733433509789462]","[-11.733433509789466, -11.733433509789462]",0,1,1,0.5236928638573171,1.523692863857317,1.476307136142683,3.0,1,1.273692863857317,0,4.0,3.0,1,2,3,0,3,0,0,5,5,1,,,,,,,192.90208987501683,192.90208987501683,193.90336137500708,194.18671237499802,194.42011591701885,194.42011591701885,194.42011591701885,194.42011591701885,195.90264908300014,195.90264908300014,195.90264908300014,195.8867059579934,195.90264908300014,196.88581629199325,0,,,100001,001,2023-04-13_15h25.45.422,DMS_etROI_12-36,2022.2.4,59.85898707214863,
27,UNPRED,12,0.5236928638573171,1,images/picture_2.png,images/picture_1.png,0,"[11.733433509789464, 11.733433509789462]",11.733433509789464,11.733433509789462,images/picture_2.png,1,"[11.733433509789462, -11.733433509789466]",11.733433509789462,-11.733433509789464,images/picture_3.png,2,"[-11.733433509789462, 11.733433509789464]",-11.733433509789462,11.733433509789464,images/picture_2.png,1,"[11.733433509789462, -11.733433509789466]","[11.733433509789462, -11.733433509789466]","[11.733433509789462, -11.733433509789466]",0,1,1,0.5236928638573171,1.523692863857317,1.476307136142683,3.0,1,1.273692863857317,0,4.0,3.0,1,2,3,0,3,0,0,6,6,0,,,,,,,196.88581629199325,196.88581629199325,197.88665983302053,198.1698710829951,198.4037527500186,198.4037527500186,198.4037527500186,198.4037527500186,199.8864829580125,199.8864829580125,199.8864829580125,199.8864829580125,199.8864829580125,200.8978452500014,0,,,100001,001,2023-04-13_15h25.45.422,DMS_etROI_12-36,2022.2.4,59.85898707214863,
35,UNPRED,12,0.5236928638573171,2,images/picture_3.png,images/picture_1.png,0,"[11.733433509789462, -11.733433509789466]",11.733433509789462,-11.733433509789464,images/picture_2.png,1,"[11.733433509789464, 11.733433509789462]",11.733433509789464,11.733433509789462,images/picture_3.png,2,"[-11.733433509789462, 11.733433509789464]",-11.733433509789462,11.733433509789464,images/picture_3.png,2,"[-11.733433509789462, 11.733433509789464]","[-11.733433509789462, 11.733433509789464]","[-11.733433509789462, 11.733433509789464]",0,1,1,0.5236928638573171,1.523692863857317,1.476307136142683,3.0,1,1.273692863857317,0,4.0,3.0,1,2,3,0,3,0,0,7,7,8,,,,,,,200.8978452500014,200.8978452500014,201.90347666700836,202.18569312500767,202.4025609170203,202.4025609170203,202.4025609170203,202.4025609170203,203.88697720799246,203.88697720799246,203.88697720799246,203.88697720799246,203.88697720799246,204.88602429200546,0,,,100001,001,2023-04-13_15h25.45.422,DMS_etROI_12-36,2022.2.4,59.85898707214863,
29,UNPRED,12,0.5236928638573171,0,images/picture_1.png,images/picture_1.png,0,"[11.733433509789464, 11.733433509789462]",11.733433509789464,11.733433509789462,images/picture_2.png,1,"[11.733433509789462, -11.733433509789466]",11.733433509789462,-11.733433509789464,images/picture_3.png,2,"[-11.733433509789466, -11.733433509789462]",-11.733433509789464,-11.733433509789462,images/picture_1.png,0,"[11.733433509789464, 11.733433509789462]","[11.733433509789464, 11.733433509789462]","[11.733433509789464, 11.733433509789462]",0,1,1,0.5236928638573171,1.523692863857317,1.476307136142683,3.0,1,1.273692863857317,0,4.0,3.0,1,2,3,0,3,0,0,8,8,2,,,,,,,204.88602429200546,204.88602429200546,205.88669062501867,206.1703114999982,206.40378891699947,206.40378891699947,206.40378891699947,206.40378891699947,207.88652033300605,207.88652033300605,207.88652033300605,207.88652033300605,207.88652033300605,209.00103933300124,0,,,100001,001,2023-04-13_15h25.45.422,DMS_etROI_12-36,2022.2.4,59.85898707214863,
,,,,,,,,,,,,,,,,,,,,,,,,,,,,,,,,,,,,,,,,3,0,3,0,,,,,,,,,209.00103933300124,221.02903262499603,,,,,,,,,,,,,,,,,,100001,001,2023-04-13_15h25.45.422,DMS_etROI_12-36,2022.2.4,59.85898707214863,
39,PRED,12,0.5236928638573171,1,images/picture_2.png,images/picture_1.png,0,"[11.733433509789464, 11.733433509789462]",11.733433509789464,11.733433509789462,images/picture_2.png,1,"[11.733433509789462, -11.733433509789466]",11.733433509789462,-11.733433509789464,images/picture_3.png,2,"[-11.733433509789466, -11.733433509789462]",-11.733433509789464,-11.733433509789462,images/picture_2.png,1,"[11.733433509789462, -11.733433509789466]","[11.733433509789462, -11.733433509789466]","[11.733433509789462, -11.733433509789466]",0,1,1,0.5236928638573171,1.523692863857317,1.476307136142683,3.0,1,1.273692863857317,0,4.0,3.0,1,2,4,0,4,0,0,0,0,3,,,,,,,221.02903262499603,221.02903262499603,222.03673891699873,222.30347312500817,222.55371341700084,222.55371341700084,222.55371341700084,222.55371341700084,224.03645020801923,224.03645020801923,224.03645020801923,224.0202884169994,224.03645020801923,225.01977441701456,0,,,100001,001,2023-04-13_15h25.45.422,DMS_etROI_12-36,2022.2.4,59.85898707214863,
44,PRED,12,0.5236928638573171,1,images/picture_2.png,images/picture_1.png,0,"[-11.733433509789466, -11.733433509789462]",-11.733433509789464,-11.733433509789462,images/picture_2.png,1,"[11.733433509789464, 11.733433509789462]",11.733433509789464,11.733433509789462,images/picture_3.png,2,"[11.733433509789462, -11.733433509789466]",11.733433509789462,-11.733433509789464,images/picture_2.png,1,"[11.733433509789464, 11.733433509789462]","[11.733433509789464, 11.733433509789462]","[11.733433509789464, 11.733433509789462]",0,1,1,0.5236928638573171,1.523692863857317,1.476307136142683,3.0,1,1.273692863857317,0,4.0,3.0,1,2,4,0,4,0,0,1,1,8,,,,,,,225.01977441701456,225.01977441701456,226.02046270799474,226.30353137501515,226.53704349999316,226.53704349999316,226.53704349999316,226.53704349999316,228.0204483330017,228.0204483330017,228.0204483330017,228.0204483330017,228.0204483330017,229.01918362500146,0,,,100001,001,2023-04-13_15h25.45.422,DMS_etROI_12-36,2022.2.4,59.85898707214863,
43,PRED,12,0.5236928638573171,1,images/picture_2.png,images/picture_1.png,0,"[11.733433509789464, 11.733433509789462]",11.733433509789464,11.733433509789462,images/picture_2.png,1,"[-11.733433509789466, -11.733433509789462]",-11.733433509789464,-11.733433509789462,images/picture_3.png,2,"[11.733433509789462, -11.733433509789466]",11.733433509789462,-11.733433509789464,images/picture_2.png,1,"[-11.733433509789466, -11.733433509789462]","[-11.733433509789466, -11.733433509789462]","[-11.733433509789466, -11.733433509789462]",0,1,1,0.5236928638573171,1.523692863857317,1.476307136142683,3.0,1,1.273692863857317,0,4.0,3.0,1,2,4,0,4,0,0,2,2,7,,,,,,,229.01918362500146,229.01918362500146,230.02007166700787,230.30348616701667,230.53684929199517,230.53684929199517,230.53684929199517,230.53684929199517,232.0204209999938,232.0204209999938,232.0204209999938,232.0204209999938,232.0204209999938,233.01948499999708,0,,,100001,001,2023-04-13_15h25.45.422,DMS_etROI_12-36,2022.2.4,59.85898707214863,
37,PRED,12,0.5236928638573171,1,images/picture_2.png,images/picture_1.png,0,"[11.733433509789462, -11.733433509789466]",11.733433509789462,-11.733433509789464,images/picture_2.png,1,"[11.733433509789464, 11.733433509789462]",11.733433509789464,11.733433509789462,images/picture_3.png,2,"[-11.733433509789466, -11.733433509789462]",-11.733433509789464,-11.733433509789462,images/picture_2.png,1,"[11.733433509789464, 11.733433509789462]","[11.733433509789464, 11.733433509789462]","[11.733433509789464, 11.733433509789462]",0,1,1,0.5236928638573171,1.523692863857317,1.476307136142683,3.0,1,1.273692863857317,0,4.0,3.0,1,2,4,0,4,0,0,3,3,1,,,,,,,233.01948499999708,233.01948499999708,234.01959791700938,234.30333095800597,234.53689333301736,234.53689333301736,234.53689333301736,234.53689333301736,236.02041695799562,236.02041695799562,236.02041695799562,236.00383579201298,236.02041695799562,237.00309112499235,0,,,100001,001,2023-04-13_15h25.45.422,DMS_etROI_12-36,2022.2.4,59.85898707214863,
40,PRED,12,0.5236928638573171,1,images/picture_2.png,images/picture_1.png,0,"[11.733433509789462, -11.733433509789466]",11.733433509789462,-11.733433509789464,images/picture_2.png,1,"[11.733433509789464, 11.733433509789462]",11.733433509789464,11.733433509789462,images/picture_3.png,2,"[-11.733433509789466, -11.733433509789462]",-11.733433509789464,-11.733433509789462,images/picture_2.png,1,"[11.733433509789464, 11.733433509789462]","[11.733433509789464, 11.733433509789462]","[11.733433509789464, 11.733433509789462]",0,1,1,0.5236928638573171,1.523692863857317,1.476307136142683,3.0,1,1.273692863857317,0,4.0,3.0,1,2,4,0,4,0,0,4,4,4,,,,,,,237.00309112499235,237.00309112499235,238.0038692500093,238.2871662079997,238.5205515419948,238.5205515419948,238.5205515419948,238.5205515419948,240.00387608300662,240.00387608300662,240.00387608300662,240.00387608300662,240.00387608300662,241.0028268750175,0,,,100001,001,2023-04-13_15h25.45.422,DMS_etROI_12-36,2022.2.4,59.85898707214863,
41,PRED,12,0.5236928638573171,1,images/picture_2.png,images/picture_1.png,0,"[-11.733433509789462, 11.733433509789464]",-11.733433509789462,11.733433509789464,images/picture_2.png,1,"[-11.733433509789466, -11.733433509789462]",-11.733433509789464,-11.733433509789462,images/picture_3.png,2,"[11.733433509789464, 11.733433509789462]",11.733433509789464,11.733433509789462,images/picture_2.png,1,"[-11.733433509789466, -11.733433509789462]","[-11.733433509789466, -11.733433509789462]","[-11.733433509789466, -11.733433509789462]",0,1,1,0.5236928638573171,1.523692863857317,1.476307136142683,3.0,1,1.273692863857317,0,4.0,3.0,1,2,4,0,4,0,0,5,5,5,,,,,,,241.0028268750175,241.0028268750175,242.00369766700896,242.28703620799934,242.5205721250095,242.5205721250095,242.5205721250095,242.5205721250095,244.00281754200114,244.00281754200114,244.00281754200114,244.00281754200114,244.00281754200114,245.00296220800374,0,,,100001,001,2023-04-13_15h25.45.422,DMS_etROI_12-36,2022.2.4,59.85898707214863,
42,PRED,12,0.5236928638573171,1,images/picture_2.png,images/picture_1.png,0,"[-11.733433509789466, -11.733433509789462]",-11.733433509789464,-11.733433509789462,images/picture_2.png,1,"[-11.733433509789462, 11.733433509789464]",-11.733433509789462,11.733433509789464,images/picture_3.png,2,"[11.733433509789464, 11.733433509789462]",11.733433509789464,11.733433509789462,images/picture_2.png,1,"[-11.733433509789462, 11.733433509789464]","[-11.733433509789462, 11.733433509789464]","[-11.733433509789462, 11.733433509789464]",0,1,1,0.5236928638573171,1.523692863857317,1.476307136142683,3.0,1,1.273692863857317,0,4.0,3.0,1,2,4,0,4,0,0,6,6,6,,,,,,,245.00296220800374,245.00296220800374,246.00319175000186,246.2868970000127,246.5208705830155,246.5208705830155,246.5208705830155,246.5208705830155,248.00403879201622,248.00403879201622,248.00403879201622,248.00403879201622,248.00403879201622,249.00329154200153,0,,,100001,001,2023-04-13_15h25.45.422,DMS_etROI_12-36,2022.2.4,59.85898707214863,
38,PRED,12,0.5236928638573171,1,images/picture_2.png,images/picture_1.png,0,"[11.733433509789464, 11.733433509789462]",11.733433509789464,11.733433509789462,images/picture_2.png,1,"[-11.733433509789466, -11.733433509789462]",-11.733433509789464,-11.733433509789462,images/picture_3.png,2,"[11.733433509789462, -11.733433509789466]",11.733433509789462,-11.733433509789464,images/picture_2.png,1,"[-11.733433509789466, -11.733433509789462]","[-11.733433509789466, -11.733433509789462]","[-11.733433509789466, -11.733433509789462]",0,1,1,0.5236928638573171,1.523692863857317,1.476307136142683,3.0,1,1.273692863857317,0,4.0,3.0,1,2,4,0,4,0,0,7,7,2,,,,,,,249.00329154200153,249.00329154200153,250.00344204201247,250.28664833301445,250.52010204200633,250.52010204200633,250.52010204200633,250.52010204200633,252.0038080830127,252.0038080830127,252.0038080830127,252.0038080830127,252.0038080830127,253.00299020801322,0,,,100001,001,2023-04-13_15h25.45.422,DMS_etROI_12-36,2022.2.4,59.85898707214863,
36,PRED,12,0.5236928638573171,1,images/picture_2.png,images/picture_1.png,0,"[11.733433509789464, 11.733433509789462]",11.733433509789464,11.733433509789462,images/picture_2.png,1,"[11.733433509789462, -11.733433509789466]",11.733433509789462,-11.733433509789464,images/picture_3.png,2,"[-11.733433509789466, -11.733433509789462]",-11.733433509789464,-11.733433509789462,images/picture_2.png,1,"[11.733433509789462, -11.733433509789466]","[11.733433509789462, -11.733433509789466]","[11.733433509789462, -11.733433509789466]",0,1,1,0.5236928638573171,1.523692863857317,1.476307136142683,3.0,1,1.273692863857317,0,4.0,3.0,1,2,4,0,4,0,0,8,8,0,,,,,,,253.00299020801322,253.00299020801322,254.0030397500086,254.2863809170085,254.5207213750109,254.5207213750109,254.5207213750109,254.5207213750109,256.00377912499243,256.00377912499243,256.00377912499243,256.00377912499243,256.00377912499243,257.11128258300596,0,,,100001,001,2023-04-13_15h25.45.422,DMS_etROI_12-36,2022.2.4,59.85898707214863,
,,,,,,,,,,,,,,,,,,,,,,,,,,,,,,,,,,,,,,,,4,0,4,0,,,,,,,,,257.11128258300596,269.16341329200077,,,,,,,,,,,,,,,,,,100001,001,2023-04-13_15h25.45.422,DMS_etROI_12-36,2022.2.4,59.85898707214863,
50,UNPRED,12,0.5236928638573171,0,images/picture_1.png,images/picture_1.png,0,"[11.733433509789464, 11.733433509789462]",11.733433509789464,11.733433509789462,images/picture_2.png,1,"[-11.733433509789462, 11.733433509789464]",-11.733433509789462,11.733433509789464,images/picture_3.png,2,"[11.733433509789462, -11.733433509789466]",11.733433509789462,-11.733433509789464,images/picture_1.png,0,"[11.733433509789464, 11.733433509789462]","[11.733433509789464, 11.733433509789462]","[11.733433509789464, 11.733433509789462]",0,1,1,0.5236928638573171,1.523692863857317,1.476307136142683,3.0,1,1.273692863857317,0,4.0,3.0,1,2,5,0,5,0,0,0,0,5,,,,,,,269.16341329200077,269.16341329200077,270.17074770800536,270.43694170800154,270.68664883301244,270.68664883301244,270.68664883301244,270.68664883301244,272.17058941701544,272.17058941701544,272.17058941701544,272.1538744580175,272.17058941701544,273.1532402500161,0,,,100001,001,2023-04-13_15h25.45.422,DMS_etROI_12-36,2022.2.4,59.85898707214863,
48,UNPRED,12,0.5236928638573171,0,images/picture_1.png,images/picture_1.png,0,"[11.733433509789462, -11.733433509789466]",11.733433509789462,-11.733433509789464,images/picture_2.png,1,"[-11.733433509789462, 11.733433509789464]",-11.733433509789462,11.733433509789464,images/picture_3.png,2,"[11.733433509789464, 11.733433509789462]",11.733433509789464,11.733433509789462,images/picture_1.png,0,"[11.733433509789462, -11.733433509789466]","[11.733433509789462, -11.733433509789466]","[11.733433509789462, -11.733433509789466]",0,1,1,0.5236928638573171,1.523692863857317,1.476307136142683,3.0,1,1.273692863857317,0,4.0,3.0,1,2,5,0,5,0,0,1,1,3,,,,,,,273.1532402500161,273.1532402500161,274.1531847080041,274.4363067499944,274.67008620800334,274.67008620800334,274.67008620800334,274.67008620800334,276.15361933299573,276.15361933299573,276.15361933299573,276.15361933299573,276.15361933299573,277.1529256250069,0,,,100001,001,2023-04-13_15h25.45.422,DMS_etROI_12-36,2022.2.4,59.85898707214863,
53,UNPRED,12,0.5236928638573171,1,images/picture_2.png,images/picture_1.png,0,"[-11.733433509789462, 11.733433509789464]",-11.733433509789462,11.733433509789464,images/picture_2.png,1,"[-11.733433509789466, -11.733433509789462]",-11.733433509789464,-11.733433509789462,images/picture_3.png,2,"[11.733433509789464, 11.733433509789462]",11.733433509789464,11.733433509789462,images/picture_2.png,1,"[-11.733433509789466, -11.733433509789462]","[-11.733433509789466, -11.733433509789462]","[-11.733433509789466, -11.733433509789462]",0,1,1,0.5236928638573171,1.523692863857317,1.476307136142683,3.0,1,1.273692863857317,0,4.0,3.0,1,2,5,0,5,0,0,2,2,8,,,,,,,277.1529256250069,277.1529256250069,278.1536729170184,278.4372182080115,278.670697249996,278.670697249996,278.670697249996,278.670697249996,280.15391416699276,280.15391416699276,280.15391416699276,280.15391416699276,280.15391416699276,281.1530508750002,0,,,100001,001,2023-04-13_15h25.45.422,DMS_etROI_12-36,2022.2.4,59.85898707214863,
49,UNPRED,12,0.5236928638573171,0,images/picture_1.png,images/picture_1.png,0,"[-11.733433509789466, -11.733433509789462]",-11.733433509789464,-11.733433509789462,images/picture_2.png,1,"[11.733433509789464, 11.733433509789462]",11.733433509789464,11.733433509789462,images/picture_3.png,2,"[-11.733433509789462, 11.733433509789464]",-11.733433509789462,11.733433509789464,images/picture_1.png,0,"[-11.733433509789466, -11.733433509789462]","[-11.733433509789466, -11.733433509789462]","[-11.733433509789466, -11.733433509789462]",0,1,1,0.5236928638573171,1.523692863857317,1.476307136142683,3.0,1,1.273692863857317,0,4.0,3.0,1,2,5,0,5,0,0,3,3,4,,,,,,,281.1530508750002,281.1530508750002,282.15379300000495,282.4371443330019,282.67070095799863,282.67070095799863,282.67070095799863,282.67070095799863,284.1531355830084,284.1531355830084,284.1531355830084,284.1531355830084,284.1531355830084,285.1535997079918,0,,,100001,001,2023-04-13_15h25.45.422,DMS_etROI_12-36,2022.2.4,59.85898707214863,
52,UNPRED,12,0.5236928638573171,1,images/picture_2.png,images/picture_1.png,0,"[11.733433509789464, 11.733433509789462]",11.733433509789464,11.733433509789462,images/picture_2.png,1,"[-11.733433509789466, -11.733433509789462]",-11.733433509789464,-11.733433509789462,images/picture_3.png,2,"[11.733433509789462, -11.733433509789466]",11.733433509789462,-11.733433509789464,images/picture_2.png,1,"[-11.733433509789466, -11.733433509789462]","[-11.733433509789466, -11.733433509789462]","[-11.733433509789466, -11.733433509789462]",0,1,1,0.5236928638573171,1.523692863857317,1.476307136142683,3.0,1,1.273692863857317,0,4.0,3.0,1,2,5,0,5,0,0,4,4,7,,,,,,,285.1535997079918,285.1535997079918,286.1542988330184,286.47840854199603,286.67092679199413,286.67092679199413,286.67092679199413,286.67092679199413,288.15394608300994,288.15394608300994,288.15394608300994,288.15394608300994,288.15394608300994,289.1531377079955,0,,,100001,001,2023-04-13_15h25.45.422,DMS_etROI_12-36,2022.2.4,59.85898707214863,
46,UNPRED,12,0.5236928638573171,1,images/picture_2.png,images/picture_1.png,0,"[-11.733433509789466, -11.733433509789462]",-11.733433509789464,-11.733433509789462,images/picture_2.png,1,"[-11.733433509789462, 11.733433509789464]",-11.733433509789462,11.733433509789464,images/picture_3.png,2,"[11.733433509789464, 11.733433509789462]",11.733433509789464,11.733433509789462,images/picture_2.png,1,"[-11.733433509789462, 11.733433509789464]","[-11.733433509789462, 11.733433509789464]","[-11.733433509789462, 11.733433509789464]",0,1,1,0.5236928638573171,1.523692863857317,1.476307136142683,3.0,1,1.273692863857317,0,4.0,3.0,1,2,5,0,5,0,0,5,5,1,,,,,,,289.1531377079955,289.1531377079955,290.1538552920101,290.4373154999921,290.6708002079977,290.6708002079977,290.6708002079977,290.6708002079977,292.1544299579982,292.1544299579982,292.1544299579982,292.1544299579982,292.1544299579982,293.1661984170205,0,,,100001,001,2023-04-13_15h25.45.422,DMS_etROI_12-36,2022.2.4,59.85898707214863,
47,UNPRED,12,0.5236928638573171,2,images/picture_3.png,images/picture_1.png,0,"[-11.733433509789462, 11.733433509789464]",-11.733433509789462,11.733433509789464,images/picture_2.png,1,"[-11.733433509789466, -11.733433509789462]",-11.733433509789464,-11.733433509789462,images/picture_3.png,2,"[11.733433509789464, 11.733433509789462]",11.733433509789464,11.733433509789462,images/picture_3.png,2,"[11.733433509789464, 11.733433509789462]","[11.733433509789464, 11.733433509789462]","[11.733433509789464, 11.733433509789462]",0,1,1,0.5236928638573171,1.523692863857317,1.476307136142683,3.0,1,1.273692863857317,0,4.0,3.0,1,2,5,0,5,0,0,6,6,2,,,,,,,293.1661984170205,293.1661984170205,294.16968887500116,294.45344554199255,294.6697770000028,294.6697770000028,294.6697770000028,294.6697770000028,296.1540134579991,296.1540134579991,296.1540134579991,296.1540134579991,296.1540134579991,297.15380654201726,0,,,100001,001,2023-04-13_15h25.45.422,DMS_etROI_12-36,2022.2.4,59.85898707214863,
45,UNPRED,12,0.5236928638573171,0,images/picture_1.png,images/picture_1.png,0,"[-11.733433509789466, -11.733433509789462]",-11.733433509789464,-11.733433509789462,images/picture_2.png,1,"[11.733433509789464, 11.733433509789462]",11.733433509789464,11.733433509789462,images/picture_3.png,2,"[11.733433509789462, -11.733433509789466]",11.733433509789462,-11.733433509789464,images/picture_1.png,0,"[-11.733433509789466, -11.733433509789462]","[-11.733433509789466, -11.733433509789462]","[-11.733433509789466, -11.733433509789462]",0,1,1,0.5236928638573171,1.523692863857317,1.476307136142683,3.0,1,1.273692863857317,0,4.0,3.0,1,2,5,0,5,0,0,7,7,0,,,,,,,297.15380654201726,297.15380654201726,298.1543435420026,298.437262833002,298.6710046250082,298.6710046250082,298.6710046250082,298.6710046250082,300.1538409170171,300.1538409170171,300.1538409170171,300.1538409170171,300.1538409170171,301.16565470802016,0,,,100001,001,2023-04-13_15h25.45.422,DMS_etROI_12-36,2022.2.4,59.85898707214863,
51,UNPRED,12,0.5236928638573171,2,images/picture_3.png,images/picture_1.png,0,"[11.733433509789462, -11.733433509789466]",11.733433509789462,-11.733433509789464,images/picture_2.png,1,"[11.733433509789464, 11.733433509789462]",11.733433509789464,11.733433509789462,images/picture_3.png,2,"[-11.733433509789466, -11.733433509789462]",-11.733433509789464,-11.733433509789462,images/picture_3.png,2,"[-11.733433509789466, -11.733433509789462]","[-11.733433509789466, -11.733433509789462]","[-11.733433509789466, -11.733433509789462]",0,1,1,0.5236928638573171,1.523692863857317,1.476307136142683,3.0,1,1.273692863857317,0,4.0,3.0,1,2,5,0,5,0,0,8,8,6,,,,,,,301.16565470802016,301.16565470802016,302.1707141670049,302.45366629201453,302.67041345799225,302.67041345799225,302.67041345799225,302.67041345799225,304.1540509579936,304.1540509579936,304.1540509579936,304.1540509579936,304.1540509579936,305.24640362500213,0,,,100001,001,2023-04-13_15h25.45.422,DMS_etROI_12-36,2022.2.4,59.85898707214863,
,,,,,,,,,,,,,,,,,,,,,,,,,,,,,,,,,,,,,,,,5,0,5,0,,,,,,,,,305.24640362500213,317.29136745800497,,,,,,,,,,,,,,,,,,100001,001,2023-04-13_15h25.45.422,DMS_etROI_12-36,2022.2.4,59.85898707214863,
59,PRED,12,0.5236928638573171,2,images/picture_3.png,images/picture_1.png,0,"[-11.733433509789466, -11.733433509789462]",-11.733433509789464,-11.733433509789462,images/picture_2.png,1,"[11.733433509789464, 11.733433509789462]",11.733433509789464,11.733433509789462,images/picture_3.png,2,"[-11.733433509789462, 11.733433509789464]",-11.733433509789462,11.733433509789464,images/picture_3.png,2,"[-11.733433509789462, 11.733433509789464]","[-11.733433509789462, 11.733433509789464]","[-11.733433509789462, 11.733433509789464]",0,1,1,0.5236928638573171,1.523692863857317,1.476307136142683,3.0,1,1.273692863857317,0,4.0,3.0,1,2,6,0,6,0,0,0,0,5,,,,,,,317.29136745800497,317.29136745800497,318.30379112501396,318.57073637499707,318.8044611249934,318.8044611249934,318.8044611249934,318.8044611249934,320.28648987499764,320.28648987499764,320.28648987499764,320.28648987499764,320.28648987499764,321.2978457499994,0,,,100001,001,2023-04-13_15h25.45.422,DMS_etROI_12-36,2022.2.4,59.85898707214863,
55,PRED,12,0.5236928638573171,2,images/picture_3.png,images/picture_1.png,0,"[11.733433509789462, -11.733433509789466]",11.733433509789462,-11.733433509789464,images/picture_2.png,1,"[-11.733433509789466, -11.733433509789462]",-11.733433509789464,-11.733433509789462,images/picture_3.png,2,"[11.733433509789464, 11.733433509789462]",11.733433509789464,11.733433509789462,images/picture_3.png,2,"[11.733433509789464, 11.733433509789462]","[11.733433509789464, 11.733433509789462]","[11.733433509789464, 11.733433509789462]",0,1,1,0.5236928638573171,1.523692863857317,1.476307136142683,3.0,1,1.273692863857317,0,4.0,3.0,1,2,6,0,6,0,0,1,1,1,,,,,,,321.2978457499994,321.2978457499994,322.30424279201543,322.57112637499813,322.8044304579962,322.8044304579962,322.8044304579962,322.8044304579962,324.2877690420137,324.2877690420137,324.2877690420137,324.2877690420137,324.2877690420137,325.30308229199727,0,,,100001,001,2023-04-13_15h25.45.422,DMS_etROI_12-36,2022.2.4,59.85898707214863,
60,PRED,12,0.5236928638573171,2,images/picture_3.png,images/picture_1.png,0,"[-11.733433509789466, -11.733433509789462]",-11.733433509789464,-11.733433509789462,images/picture_2.png,1,"[11.733433509789462, -11.733433509789466]",11.733433509789462,-11.733433509789464,images/picture_3.png,2,"[11.733433509789464, 11.733433509789462]",11.733433509789464,11.733433509789462,images/picture_3.png,2,"[11.733433509789464, 11.733433509789462]","[11.733433509789464, 11.733433509789462]","[11.733433509789464, 11.733433509789462]",0,1,1,0.5236928638573171,1.523692863857317,1.476307136142683,3.0,1,1.273692863857317,0,4.0,3.0,1,2,6,0,6,0,0,2,2,6,,,,,,,325.30308229199727,325.30308229199727,326.3043390829989,326.58768733299803,326.82078104201355,326.82078104201355,326.82078104201355,326.82078104201355,328.3041484999994,328.3041484999994,328.3041484999994,328.28696900000796,328.3041484999994,329.2976483750099,0,,,100001,001,2023-04-13_15h25.45.422,DMS_etROI_12-36,2022.2.4,59.85898707214863,
61,PRED,12,0.5236928638573171,2,images/picture_3.png,images/picture_1.png,0,"[11.733433509789464, 11.733433509789462]",11.733433509789464,11.733433509789462,images/picture_2.png,1,"[-11.733433509789462, 11.733433509789464]",-11.733433509789462,11.733433509789464,images/picture_3.png,2,"[-11.733433509789466, -11.733433509789462]",-11.733433509789464,-11.733433509789462,images/picture_3.png,2,"[-11.733433509789466, -11.733433509789462]","[-11.733433509789466, -11.733433509789462]","[-11.733433509789466, -11.733433509789462]",0,1,1,0.5236928638573171,1.523692863857317,1.476307136142683,3.0,1,1.273692863857317,0,4.0,3.0,1,2,6,0,6,0,0,3,3,7,,,,,,,329.2976483750099,329.2976483750099,330.3040927500115,330.5712958750082,330.804403792019,330.804403792019,330.804403792019,330.804403792019,332.2877985830128,332.2877985830128,332.2877985830128,332.2877985830128,332.2877985830128,333.2973132079933,0,,,100001,001,2023-04-13_15h25.45.422,DMS_etROI_12-36,2022.2.4,59.85898707214863,
57,PRED,12,0.5236928638573171,2,images/picture_3.png,images/picture_1.png,0,"[-11.733433509789466, -11.733433509789462]",-11.733433509789464,-11.733433509789462,images/picture_2.png,1,"[-11.733433509789462, 11.733433509789464]",-11.733433509789462,11.733433509789464,images/picture_3.png,2,"[11.733433509789462, -11.733433509789466]",11.733433509789462,-11.733433509789464,images/picture_3.png,2,"[11.733433509789462, -11.733433509789466]","[11.733433509789462, -11.733433509789466]","[11.733433509789462, -11.733433509789466]",0,1,1,0.5236928638573171,1.523692863857317,1.476307136142683,3.0,1,1.273692863857317,0,4.0,3.0,1,2,6,0,6,0,0,4,4,3,,,,,,,333.2973132079933,333.2973132079933,334.30452895801864,334.5709964580019,334.8036020830041,334.8036020830041,334.8036020830041,334.8036020830041,336.2870254169975,336.2870254169975,336.2870254169975,336.2870254169975,336.2870254169975,337.29767324999557,0,,,100001,001,2023-04-13_15h25.45.422,DMS_etROI_12-36,2022.2.4,59.85898707214863,
58,PRED,12,0.5236928638573171,2,images/picture_3.png,images/picture_1.png,0,"[11.733433509789464, 11.733433509789462]",11.733433509789464,11.733433509789462,images/picture_2.png,1,"[-11.733433509789466, -11.733433509789462]",-11.733433509789464,-11.733433509789462,images/picture_3.png,2,"[-11.733433509789462, 11.733433509789464]",-11.733433509789462,11.733433509789464,images/picture_3.png,2,"[-11.733433509789462, 11.733433509789464]","[-11.733433509789462, 11.733433509789464]","[-11.733433509789462, 11.733433509789464]",0,1,1,0.5236928638573171,1.523692863857317,1.476307136142683,3.0,1,1.273692863857317,0,4.0,3.0,1,2,6,0,6,0,0,5,5,4,,,,,,,337.29767324999557,337.29767324999557,338.30400266702054,338.5709982920089,338.8044488330197,338.8044488330197,338.8044488330197,338.8044488330197,340.28765483299503,340.28765483299503,340.28765483299503,340.28765483299503,340.28765483299503,341.29879604201415,0,,,100001,001,2023-04-13_15h25.45.422,DMS_etROI_12-36,2022.2.4,59.85898707214863,
62,PRED,12,0.5236928638573171,2,images/picture_3.png,images/picture_1.png,0,"[11.733433509789464, 11.733433509789462]",11.733433509789464,11.733433509789462,images/picture_2.png,1,"[-11.733433509789466, -11.733433509789462]",-11.733433509789464,-11.733433509789462,images/picture_3.png,2,"[11.733433509789462, -11.733433509789466]",11.733433509789462,-11.733433509789464,images/picture_3.png,2,"[11.733433509789462, -11.733433509789466]","[11.733433509789462, -11.733433509789466]","[11.733433509789462, -11.733433509789466]",0,1,1,0.5236928638573171,1.523692863857317,1.476307136142683,3.0,1,1.273692863857317,0,4.0,3.0,1,2,6,0,6,0,0,6,6,8,,,,,,,341.29879604201415,341.29879604201415,342.3038625830086,342.5871150419989,342.8036128329986,342.8036128329986,342.8036128329986,342.8036128329986,344.28811454199604,344.28811454199604,344.28811454199604,344.28811454199604,344.28811454199604,345.30368062501657,0,,,100001,001,2023-04-13_15h25.45.422,DMS_etROI_12-36,2022.2.4,59.85898707214863,
54,PRED,12,0.5236928638573171,2,images/picture_3.png,images/picture_1.png,0,"[-11.733433509789462, 11.733433509789464]",-11.733433509789462,11.733433509789464,images/picture_2.png,1,"[-11.733433509789466, -11.733433509789462]",-11.733433509789464,-11.733433509789462,images/picture_3.png,2,"[11.733433509789462, -11.733433509789466]",11.733433509789462,-11.733433509789464,images/picture_3.png,2,"[11.733433509789462, -11.733433509789466]","[11.733433509789462, -11.733433509789466]","[11.733433509789462, -11.733433509789466]",0,1,1,0.5236928638573171,1.523692863857317,1.476307136142683,3.0,1,1.273692863857317,0,4.0,3.0,1,2,6,0,6,0,0,7,7,0,,,,,,,345.30368062501657,345.30368062501657,346.3035252499976,346.58757604201674,346.82105970801786,346.82105970801786,346.82105970801786,346.82105970801786,348.3048069580109,348.3048069580109,348.3048069580109,348.28816295799334,348.3048069580109,349.29736033300287,0,,,100001,001,2023-04-13_15h25.45.422,DMS_etROI_12-36,2022.2.4,59.85898707214863,
56,PRED,12,0.5236928638573171,2,images/picture_3.png,images/picture_1.png,0,"[11.733433509789462, -11.733433509789466]",11.733433509789462,-11.733433509789464,images/picture_2.png,1,"[-11.733433509789462, 11.733433509789464]",-11.733433509789462,11.733433509789464,images/picture_3.png,2,"[11.733433509789464, 11.733433509789462]",11.733433509789464,11.733433509789462,images/picture_3.png,2,"[11.733433509789464, 11.733433509789462]","[11.733433509789464, 11.733433509789462]","[11.733433509789464, 11.733433509789462]",0,1,1,0.5236928638573171,1.523692863857317,1.476307136142683,3.0,1,1.273692863857317,0,4.0,3.0,1,2,6,0,6,0,0,8,8,2,,,,,,,349.29736033300287,349.29736033300287,350.3040304580063,350.5705207080173,350.8041822499945,350.8041822499945,350.8041822499945,350.8041822499945,352.28735500000766,352.28735500000766,352.28735500000766,352.28735500000766,352.28735500000766,353.4252515420085,0,,,100001,001,2023-04-13_15h25.45.422,DMS_etROI_12-36,2022.2.4,59.85898707214863,
,,,,,,,,,,,,,,,,,,,,,,,,,,,,,,,,,,,,,,,,6,0,6,0,,,,,,,,,353.4252515420085,365.46146679201047,,,,,,,,,,,,,,,,,,100001,001,2023-04-13_15h25.45.422,DMS_etROI_12-36,2022.2.4,59.85898707214863,
65,UNPRED,12,0.5236928638573171,0,images/picture_1.png,images/picture_1.png,0,"[11.733433509789462, -11.733433509789466]",11.733433509789462,-11.733433509789464,images/picture_2.png,1,"[-11.733433509789466, -11.733433509789462]",-11.733433509789464,-11.733433509789462,images/picture_3.png,2,"[-11.733433509789462, 11.733433509789464]",-11.733433509789462,11.733433509789464,images/picture_1.png,0,"[11.733433509789462, -11.733433509789466]","[11.733433509789462, -11.733433509789466]","[11.733433509789462, -11.733433509789466]",0,1,1,0.5236928638573171,1.523692863857317,1.476307136142683,3.0,1,1.273692863857317,0,4.0,3.0,1,2,7,0,7,0,0,0,0,2,,,,,,,365.46146679201047,365.46146679201047,366.47057041700464,366.7374508329958,366.98759912501555,366.98759912501555,366.98759912501555,366.98759912501555,368.4713955830084,368.4713955830084,368.4713955830084,368.4542977079982,368.4713955830084,369.4667850419937,0,,,100001,001,2023-04-13_15h25.45.422,DMS_etROI_12-36,2022.2.4,59.85898707214863,
63,UNPRED,12,0.5236928638573171,2,images/picture_3.png,images/picture_1.png,0,"[-11.733433509789462, 11.733433509789464]",-11.733433509789462,11.733433509789464,images/picture_2.png,1,"[11.733433509789464, 11.733433509789462]",11.733433509789464,11.733433509789462,images/picture_3.png,2,"[-11.733433509789466, -11.733433509789462]",-11.733433509789464,-11.733433509789462,images/picture_3.png,2,"[-11.733433509789466, -11.733433509789462]","[-11.733433509789466, -11.733433509789462]","[-11.733433509789466, -11.733433509789462]",0,1,1,0.5236928638573171,1.523692863857317,1.476307136142683,3.0,1,1.273692863857317,0,4.0,3.0,1,2,7,0,7,0,0,1,1,0,,,,,,,369.4667850419937,369.4667850419937,370.4706716670189,370.75385091701173,370.9716248330078,370.9716248330078,370.9716248330078,370.9716248330078,372.45421200001147,372.45421200001147,372.45421200001147,372.45421200001147,372.45421200001147,373.4650122500025,0,,,100001,001,2023-04-13_15h25.45.422,DMS_etROI_12-36,2022.2.4,59.85898707214863,
70,UNPRED,12,0.5236928638573171,2,images/picture_3.png,images/picture_1.png,0,"[11.733433509789464, 11.733433509789462]",11.733433509789464,11.733433509789462,images/picture_2.png,1,"[11.733433509789462, -11.733433509789466]",11.733433509789462,-11.733433509789464,images/picture_3.png,2,"[-11.733433509789466, -11.733433509789462]",-11.733433509789464,-11.733433509789462,images/picture_3.png,2,"[-11.733433509789466, -11.733433509789462]","[-11.733433509789466, -11.733433509789462]","[-11.733433509789466, -11.733433509789462]",0,1,1,0.5236928638573171,1.523692863857317,1.476307136142683,3.0,1,1.273692863857317,0,4.0,3.0,1,2,7,0,7,0,0,2,2,7,,,,,,,373.4650122500025,373.4650122500025,374.47160970800905,374.75423304201104,374.97081133301253,374.97081133301253,374.97081133301253,374.97081133301253,376.45373041700805,376.45373041700805,376.45373041700805,376.45373041700805,376.45373041700805,377.4646853750164,0,,,100001,001,2023-04-13_15h25.45.422,DMS_etROI_12-36,2022.2.4,59.85898707214863,
68,UNPRED,12,0.5236928638573171,2,images/picture_3.png,images/picture_1.png,0,"[-11.733433509789462, 11.733433509789464]",-11.733433509789462,11.733433509789464,images/picture_2.png,1,"[11.733433509789464, 11.733433509789462]",11.733433509789464,11.733433509789462,images/picture_3.png,2,"[11.733433509789462, -11.733433509789466]",11.733433509789462,-11.733433509789464,images/picture_3.png,2,"[11.733433509789462, -11.733433509789466]","[11.733433509789462, -11.733433509789466]","[11.733433509789462, -11.733433509789466]",0,1,1,0.5236928638573171,1.523692863857317,1.476307136142683,3.0,1,1.273692863857317,0,4.0,3.0,1,2,7,0,7,0,0,3,3,5,,,,,,,377.4646853750164,377.4646853750164,378.47036125001614,378.73811158299213,378.9710685000173,378.9710685000173,378.9710685000173,378.9710685000173,380.45523445800063,380.45523445800063,380.45523445800063,380.45523445800063,380.45523445800063,381.4540976670105,0,,,100001,001,2023-04-13_15h25.45.422,DMS_etROI_12-36,2022.2.4,59.85898707214863,
71,UNPRED,12,0.5236928638573171,0,images/picture_1.png,images/picture_1.png,0,"[-11.733433509789462, 11.733433509789464]",-11.733433509789462,11.733433509789464,images/picture_2.png,1,"[11.733433509789464, 11.733433509789462]",11.733433509789464,11.733433509789462,images/picture_3.png,2,"[-11.733433509789466, -11.733433509789462]",-11.733433509789464,-11.733433509789462,images/picture_1.png,0,"[-11.733433509789462, 11.733433509789464]","[-11.733433509789462, 11.733433509789464]","[-11.733433509789462, 11.733433509789464]",0,1,1,0.5236928638573171,1.523692863857317,1.476307136142683,3.0,1,1.273692863857317,0,4.0,3.0,1,2,7,0,7,0,0,4,4,8,,,,,,,381.4540976670105,381.4540976670105,382.45415462501114,382.73758783302037,382.9713285420148,382.9713285420148,382.9713285420148,382.9713285420148,384.4549746249977,384.4549746249977,384.4549746249977,384.4549746249977,384.4549746249977,385.4657392920053,0,,,100001,001,2023-04-13_15h25.45.422,DMS_etROI_12-36,2022.2.4,59.85898707214863,
69,UNPRED,12,0.5236928638573171,2,images/picture_3.png,images/picture_1.png,0,"[11.733433509789464, 11.733433509789462]",11.733433509789464,11.733433509789462,images/picture_2.png,1,"[11.733433509789462, -11.733433509789466]",11.733433509789462,-11.733433509789464,images/picture_3.png,2,"[-11.733433509789466, -11.733433509789462]",-11.733433509789464,-11.733433509789462,images/picture_3.png,2,"[-11.733433509789466, -11.733433509789462]","[-11.733433509789466, -11.733433509789462]","[-11.733433509789466, -11.733433509789462]",0,1,1,0.5236928638573171,1.523692863857317,1.476307136142683,3.0,1,1.273692863857317,0,4.0,3.0,1,2,7,0,7,0,0,5,5,6,,,,,,,385.4657392920053,385.4657392920053,386.47041570799774,386.7539323329984,386.97054295800626,386.97054295800626,386.97054295800626,386.97054295800626,388.45504033300676,388.45504033300676,388.45504033300676,388.45504033300676,388.45504033300676,389.454155000014,0,,,100001,001,2023-04-13_15h25.45.422,DMS_etROI_12-36,2022.2.4,59.85898707214863,
66,UNPRED,12,0.5236928638573171,0,images/picture_1.png,images/picture_1.png,0,"[11.733433509789462, -11.733433509789466]",11.733433509789462,-11.733433509789464,images/picture_2.png,1,"[-11.733433509789466, -11.733433509789462]",-11.733433509789464,-11.733433509789462,images/picture_3.png,2,"[11.733433509789464, 11.733433509789462]",11.733433509789464,11.733433509789462,images/picture_1.png,0,"[11.733433509789462, -11.733433509789466]","[11.733433509789462, -11.733433509789466]","[11.733433509789462, -11.733433509789466]",0,1,1,0.5236928638573171,1.523692863857317,1.476307136142683,3.0,1,1.273692863857317,0,4.0,3.0,1,2,7,0,7,0,0,6,6,3,,,,,,,389.454155000014,389.454155000014,390.45409779201145,390.7381951670104,390.9714884170098,390.9714884170098,390.9714884170098,390.9714884170098,392.4545942500117,392.4545942500117,392.4545942500117,392.4545942500117,392.4545942500117,393.4537767920119,0,,,100001,001,2023-04-13_15h25.45.422,DMS_etROI_12-36,2022.2.4,59.85898707214863,
67,UNPRED,12,0.5236928638573171,0,images/picture_1.png,images/picture_1.png,0,"[-11.733433509789466, -11.733433509789462]",-11.733433509789464,-11.733433509789462,images/picture_2.png,1,"[-11.733433509789462, 11.733433509789464]",-11.733433509789462,11.733433509789464,images/picture_3.png,2,"[11.733433509789462, -11.733433509789466]",11.733433509789462,-11.733433509789464,images/picture_1.png,0,"[-11.733433509789466, -11.733433509789462]","[-11.733433509789466, -11.733433509789462]","[-11.733433509789466, -11.733433509789462]",0,1,1,0.5236928638573171,1.523692863857317,1.476307136142683,3.0,1,1.273692863857317,0,4.0,3.0,1,2,7,0,7,0,0,7,7,4,,,,,,,393.4537767920119,393.4537767920119,394.4548150000046,394.7378157500061,394.9714054170181,394.9714054170181,394.9714054170181,394.9714054170181,396.4540291670128,396.4540291670128,396.4540291670128,396.4540291670128,396.4540291670128,397.4541771670047,0,,,100001,001,2023-04-13_15h25.45.422,DMS_etROI_12-36,2022.2.4,59.85898707214863,
64,UNPRED,12,0.5236928638573171,0,images/picture_1.png,images/picture_1.png,0,"[11.733433509789462, -11.733433509789466]",11.733433509789462,-11.733433509789464,images/picture_2.png,1,"[-11.733433509789462, 11.733433509789464]",-11.733433509789462,11.733433509789464,images/picture_3.png,2,"[-11.733433509789466, -11.733433509789462]",-11.733433509789464,-11.733433509789462,images/picture_1.png,0,"[11.733433509789462, -11.733433509789466]","[11.733433509789462, -11.733433509789466]","[11.733433509789462, -11.733433509789466]",0,1,1,0.5236928638573171,1.523692863857317,1.476307136142683,3.0,1,1.273692863857317,0,4.0,3.0,1,2,7,0,7,0,0,8,8,1,,,,,,,397.4541771670047,397.4541771670047,398.454768333002,398.73803079201025,398.9714371250011,398.9714371250011,398.9714371250011,398.9714371250011,400.45423516700976,400.45423516700976,400.45423516700976,400.45423516700976,400.45423516700976,401.60894808301236,0,,,100001,001,2023-04-13_15h25.45.422,DMS_etROI_12-36,2022.2.4,59.85898707214863,
,,,,,,,,,,,,,,,,,,,,,,,,,,,,,,,,,,,,,,,,7,0,7,0,,,,,,,,,401.60894808301236,413.6625909169961,,,,,,,,,,,,,,,,,,100001,001,2023-04-13_15h25.45.422,DMS_etROI_12-36,2022.2.4,59.85898707214863,
72,PRED,12,0.5236928638573171,2,images/picture_3.png,images/picture_1.png,0,"[-11.733433509789466, -11.733433509789462]",-11.733433509789464,-11.733433509789462,images/picture_2.png,1,"[11.733433509789464, 11.733433509789462]",11.733433509789464,11.733433509789462,images/picture_3.png,2,"[-11.733433509789462, 11.733433509789464]",-11.733433509789462,11.733433509789464,images/picture_3.png,2,"[-11.733433509789462, 11.733433509789464]","[-11.733433509789462, 11.733433509789464]","[-11.733433509789462, 11.733433509789464]",0,1,1,0.5236928638573171,1.523692863857317,1.476307136142683,3.0,1,1.273692863857317,0,4.0,3.0,1,2,8,0,8,0,0,0,0,0,,,,,,,413.6625909169961,413.6625909169961,414.6713260830147,414.9380519170081,415.1717132079939,415.1717132079939,415.1717132079939,415.1717132079939,416.65417024999624,416.65417024999624,416.65417024999624,416.65417024999624,416.65417024999624,417.66445850001764,0,,,100001,001,2023-04-13_15h25.45.422,DMS_etROI_12-36,2022.2.4,59.85898707214863,
75,PRED,12,0.5236928638573171,2,images/picture_3.png,images/picture_1.png,0,"[11.733433509789464, 11.733433509789462]",11.733433509789464,11.733433509789462,images/picture_2.png,1,"[11.733433509789462, -11.733433509789466]",11.733433509789462,-11.733433509789464,images/picture_3.png,2,"[-11.733433509789462, 11.733433509789464]",-11.733433509789462,11.733433509789464,images/picture_3.png,2,"[-11.733433509789462, 11.733433509789464]","[-11.733433509789462, 11.733433509789464]","[-11.733433509789462, 11.733433509789464]",0,1,1,0.5236928638573171,1.523692863857317,1.476307136142683,3.0,1,1.273692863857317,0,4.0,3.0,1,2,8,0,8,0,0,1,1,3,,,,,,,417.66445850001764,417.66445850001764,418.67160641701776,418.9376907499973,419.17125770801795,419.17125770801795,419.17125770801795,419.17125770801795,420.65437058301177,420.65437058301177,420.65437058301177,420.65437058301177,420.65437058301177,421.66576933301985,0,,,100001,001,2023-04-13_15h25.45.422,DMS_etROI_12-36,2022.2.4,59.85898707214863,
73,PRED,12,0.5236928638573171,2,images/picture_3.png,images/picture_1.png,0,"[11.733433509789464, 11.733433509789462]",11.733433509789464,11.733433509789462,images/picture_2.png,1,"[11.733433509789462, -11.733433509789466]",11.733433509789462,-11.733433509789464,images/picture_3.png,2,"[-11.733433509789466, -11.733433509789462]",-11.733433509789464,-11.733433509789462,images/picture_3.png,2,"[-11.733433509789466, -11.733433509789462]","[-11.733433509789466, -11.733433509789462]","[-11.733433509789466, -11.733433509789462]",0,1,1,0.5236928638573171,1.523692863857317,1.476307136142683,3.0,1,1.273692863857317,0,4.0,3.0,1,2,8,0,8,0,0,2,2,1,,,,,,,421.66576933301985,421.66576933301985,422.67214700000477,422.95455270801904,423.17177183300373,423.17177183300373,423.17177183300373,423.17177183300373,424.6544322500122,424.6544322500122,424.6544322500122,424.6544322500122,424.6544322500122,425.66782100001,0,,,100001,001,2023-04-13_15h25.45.422,DMS_etROI_12-36,2022.2.4,59.85898707214863,
77,PRED,12,0.5236928638573171,2,images/picture_3.png,images/picture_1.png,0,"[11.733433509789462, -11.733433509789466]",11.733433509789462,-11.733433509789464,images/picture_2.png,1,"[11.733433509789464, 11.733433509789462]",11.733433509789464,11.733433509789462,images/picture_3.png,2,"[-11.733433509789466, -11.733433509789462]",-11.733433509789464,-11.733433509789462,images/picture_3.png,2,"[-11.733433509789466, -11.733433509789462]","[-11.733433509789466, -11.733433509789462]","[-11.733433509789466, -11.733433509789462]",0,1,1,0.5236928638573171,1.523692863857317,1.476307136142683,3.0,1,1.273692863857317,0,4.0,3.0,1,2,8,0,8,0,0,3,3,5,,,,,,,425.66782100001,425.66782100001,426.671133041993,426.95428795801126,427.17071741700056,427.17071741700056,427.17071741700056,427.17071741700056,428.6545825829962,428.6545825829962,428.6545825829962,428.6545825829962,428.6545825829962,429.6650208749925,0,,,100001,001,2023-04-13_15h25.45.422,DMS_etROI_12-36,2022.2.4,59.85898707214863,
80,PRED,12,0.5236928638573171,2,images/picture_3.png,images/picture_1.png,0,"[-11.733433509789462, 11.733433509789464]",-11.733433509789462,11.733433509789464,images/picture_2.png,1,"[11.733433509789464, 11.733433509789462]",11.733433509789464,11.733433509789462,images/picture_3.png,2,"[11.733433509789462, -11.733433509789466]",11.733433509789462,-11.733433509789464,images/picture_3.png,2,"[11.733433509789462, -11.733433509789466]","[11.733433509789462, -11.733433509789466]","[11.733433509789462, -11.733433509789466]",0,1,1,0.5236928638573171,1.523692863857317,1.476307136142683,3.0,1,1.273692863857317,0,4.0,3.0,1,2,8,0,8,0,0,4,4,8,,,,,,,429.6650208749925,429.6650208749925,430.6717281670135,430.93805441699806,431.17146883299574,431.17146883299574,431.17146883299574,431.17146883299574,432.65460266699665,432.65460266699665,432.65460266699665,432.65460266699665,432.65460266699665,433.6649210829928,0,,,100001,001,2023-04-13_15h25.45.422,DMS_etROI_12-36,2022.2.4,59.85898707214863,
79,PRED,12,0.5236928638573171,2,images/picture_3.png,images/picture_1.png,0,"[11.733433509789464, 11.733433509789462]",11.733433509789464,11.733433509789462,images/picture_2.png,1,"[-11.733433509789466, -11.733433509789462]",-11.733433509789464,-11.733433509789462,images/picture_3.png,2,"[11.733433509789462, -11.733433509789466]",11.733433509789462,-11.733433509789464,images/picture_3.png,2,"[11.733433509789462, -11.733433509789466]","[11.733433509789462, -11.733433509789466]","[11.733433509789462, -11.733433509789466]",0,1,1,0.5236928638573171,1.523692863857317,1.476307136142683,3.0,1,1.273692863857317,0,4.0,3.0,1,2,8,0,8,0,0,5,5,7,,,,,,,433.6649210829928,433.6649210829928,434.6713183330139,434.9385460000194,435.1718919170089,435.1718919170089,435.1718919170089,435.1718919170089,436.6550780830148,436.6550780830148,436.6550780830148,436.6550780830148,436.6550780830148,437.65417733299546,0,,,100001,001,2023-04-13_15h25.45.422,DMS_etROI_12-36,2022.2.4,59.85898707214863,
78,PRED,12,0.5236928638573171,2,images/picture_3.png,images/picture_1.png,0,"[-11.733433509789466, -11.733433509789462]",-11.733433509789464,-11.733433509789462,images/picture_2.png,1,"[11.733433509789462, -11.733433509789466]",11.733433509789462,-11.733433509789464,images/picture_3.png,2,"[-11.733433509789462, 11.733433509789464]",-11.733433509789462,11.733433509789464,images/picture_3.png,2,"[-11.733433509789462, 11.733433509789464]","[-11.733433509789462, 11.733433509789464]","[-11.733433509789462, 11.733433509789464]",0,1,1,0.5236928638573171,1.523692863857317,1.476307136142683,3.0,1,1.273692863857317,0,4.0,3.0,1,2,8,0,8,0,0,6,6,6,,,,,,,437.65417733299546,437.65417733299546,438.6547522500041,438.9379660419945,439.17133533299784,439.17133533299784,439.17133533299784,439.17133533299784,440.65497950001736,440.65497950001736,440.65497950001736,440.63850704199285,440.65497950001736,441.6486410420039,0,,,100001,001,2023-04-13_15h25.45.422,DMS_etROI_12-36,2022.2.4,59.85898707214863,
76,PRED,12,0.5236928638573171,2,images/picture_3.png,images/picture_1.png,0,"[-11.733433509789466, -11.733433509789462]",-11.733433509789464,-11.733433509789462,images/picture_2.png,1,"[11.733433509789464, 11.733433509789462]",11.733433509789464,11.733433509789462,images/picture_3.png,2,"[-11.733433509789462, 11.733433509789464]",-11.733433509789462,11.733433509789464,images/picture_3.png,2,"[-11.733433509789462, 11.733433509789464]","[-11.733433509789462, 11.733433509789464]","[-11.733433509789462, 11.733433509789464]",0,1,1,0.5236928638573171,1.523692863857317,1.476307136142683,3.0,1,1.273692863857317,0,4.0,3.0,1,2,8,0,8,0,0,7,7,4,,,,,,,441.6486410420039,441.6486410420039,442.654454500007,442.92187166700023,443.1555478750088,443.1555478750088,443.1555478750088,443.1555478750088,444.63800616699154,444.63800616699154,444.63800616699154,444.63800616699154,444.63800616699154,445.648761791992,0,,,100001,001,2023-04-13_15h25.45.422,DMS_etROI_12-36,2022.2.4,59.85898707214863,
74,PRED,12,0.5236928638573171,2,images/picture_3.png,images/picture_1.png,0,"[11.733433509789462, -11.733433509789466]",11.733433509789462,-11.733433509789464,images/picture_2.png,1,"[-11.733433509789466, -11.733433509789462]",-11.733433509789464,-11.733433509789462,images/picture_3.png,2,"[11.733433509789464, 11.733433509789462]",11.733433509789464,11.733433509789462,images/picture_3.png,2,"[11.733433509789464, 11.733433509789462]","[11.733433509789464, 11.733433509789462]","[11.733433509789464, 11.733433509789462]",0,1,1,0.5236928638573171,1.523692863857317,1.476307136142683,3.0,1,1.273692863857317,0,4.0,3.0,1,2,8,0,8,0,0,8,8,2,,,,,,,445.648761791992,445.648761791992,446.65453299999353,446.92183520799153,447.1548849999963,447.1548849999963,447.1548849999963,447.1548849999963,448.6388942920021,448.6388942920021,448.6388942920021,448.6388942920021,448.6388942920021,449.8331927919935,0,,,100001,001,2023-04-13_15h25.45.422,DMS_etROI_12-36,2022.2.4,59.85898707214863,
,,,,,,,,,,,,,,,,,,,,,,,,,,,,,,,,,,,,,,,,8,0,8,0,,,,,,,,,449.8331927919935,461.87023654201766,,,,,,,,,,,,,,,,,,100001,001,2023-04-13_15h25.45.422,DMS_etROI_12-36,2022.2.4,59.85898707214863,
85,UNPRED,12,0.5236928638573171,0,images/picture_1.png,images/picture_1.png,0,"[11.733433509789462, -11.733433509789466]",11.733433509789462,-11.733433509789464,images/picture_2.png,1,"[-11.733433509789466, -11.733433509789462]",-11.733433509789464,-11.733433509789462,images/picture_3.png,2,"[11.733433509789464, 11.733433509789462]",11.733433509789464,11.733433509789462,images/picture_1.png,0,"[11.733433509789462, -11.733433509789466]","[11.733433509789462, -11.733433509789466]","[11.733433509789462, -11.733433509789466]",0,1,1,0.5236928638573171,1.523692863857317,1.476307136142683,3.0,1,1.273692863857317,0,4.0,3.0,1,2,9,0,9,0,0,0,0,4,,,,,,,461.87023654201766,461.87023654201766,462.87204862499493,463.1550666250114,463.39534012501827,463.39534012501827,463.39534012501827,463.39534012501827,464.8717411250109,464.8717411250109,464.8717411250109,464.8717411250109,464.8717411250109,465.8713856250106,0,,,100001,001,2023-04-13_15h25.45.422,DMS_etROI_12-36,2022.2.4,59.85898707214863,
87,UNPRED,12,0.5236928638573171,1,images/picture_2.png,images/picture_1.png,0,"[11.733433509789464, 11.733433509789462]",11.733433509789464,11.733433509789462,images/picture_2.png,1,"[-11.733433509789462, 11.733433509789464]",-11.733433509789462,11.733433509789464,images/picture_3.png,2,"[-11.733433509789466, -11.733433509789462]",-11.733433509789464,-11.733433509789462,images/picture_2.png,1,"[-11.733433509789462, 11.733433509789464]","[-11.733433509789462, 11.733433509789464]","[-11.733433509789462, 11.733433509789464]",0,1,1,0.5236928638573171,1.523692863857317,1.476307136142683,3.0,1,1.273692863857317,0,4.0,3.0,1,2,9,0,9,0,0,1,1,6,,,,,,,465.8713856250106,465.8713856250106,466.8716317920189,467.15506483300123,467.3881881670095,467.3881881670095,467.3881881670095,467.3881881670095,468.8714605830028,468.8714605830028,468.8714605830028,468.8714605830028,468.8714605830028,469.8712482500123,0,,,100001,001,2023-04-13_15h25.45.422,DMS_etROI_12-36,2022.2.4,59.85898707214863,
82,UNPRED,12,0.5236928638573171,1,images/picture_2.png,images/picture_1.png,0,"[11.733433509789464, 11.733433509789462]",11.733433509789464,11.733433509789462,images/picture_2.png,1,"[-11.733433509789462, 11.733433509789464]",-11.733433509789462,11.733433509789464,images/picture_3.png,2,"[-11.733433509789466, -11.733433509789462]",-11.733433509789464,-11.733433509789462,images/picture_2.png,1,"[-11.733433509789462, 11.733433509789464]","[-11.733433509789462, 11.733433509789464]","[-11.733433509789462, 11.733433509789464]",0,1,1,0.5236928638573171,1.523692863857317,1.476307136142683,3.0,1,1.273692863857317,0,4.0,3.0,1,2,9,0,9,0,0,2,2,1,,,,,,,469.8712482500123,469.8712482500123,470.87143512500916,471.1550690830045,471.3889470830036,471.3889470830036,471.3889470830036,471.3889470830036,472.87211445800494,472.87211445800494,472.87211445800494,472.87211445800494,472.87211445800494,473.8711573750188,0,,,100001,001,2023-04-13_15h25.45.422,DMS_etROI_12-36,2022.2.4,59.85898707214863,
89,UNPRED,12,0.5236928638573171,1,images/picture_2.png,images/picture_1.png,0,"[-11.733433509789462, 11.733433509789464]",-11.733433509789462,11.733433509789464,images/picture_2.png,1,"[11.733433509789464, 11.733433509789462]",11.733433509789464,11.733433509789462,images/picture_3.png,2,"[-11.733433509789466, -11.733433509789462]",-11.733433509789464,-11.733433509789462,images/picture_2.png,1,"[11.733433509789464, 11.733433509789462]","[11.733433509789464, 11.733433509789462]","[11.733433509789464, 11.733433509789462]",0,1,1,0.5236928638573171,1.523692863857317,1.476307136142683,3.0,1,1.273692863857317,0,4.0,3.0,1,2,9,0,9,0,0,3,3,8,,,,,,,473.8711573750188,473.8711573750188,474.87150937499246,475.15523166701314,475.3886348750093,475.3886348750093,475.3886348750093,475.3886348750093,476.8722892079968,476.8722892079968,476.8722892079968,476.8722892079968,476.8722892079968,477.87118312501116,0,,,100001,001,2023-04-13_15h25.45.422,DMS_etROI_12-36,2022.2.4,59.85898707214863,
86,UNPRED,12,0.5236928638573171,1,images/picture_2.png,images/picture_1.png,0,"[11.733433509789464, 11.733433509789462]",11.733433509789464,11.733433509789462,images/picture_2.png,1,"[-11.733433509789466, -11.733433509789462]",-11.733433509789464,-11.733433509789462,images/picture_3.png,2,"[-11.733433509789462, 11.733433509789464]",-11.733433509789462,11.733433509789464,images/picture_2.png,1,"[-11.733433509789466, -11.733433509789462]","[-11.733433509789466, -11.733433509789462]","[-11.733433509789466, -11.733433509789462]",0,1,1,0.5236928638573171,1.523692863857317,1.476307136142683,3.0,1,1.273692863857317,0,4.0,3.0,1,2,9,0,9,0,0,4,4,5,,,,,,,477.87118312501116,477.87118312501116,478.8712579580024,479.1555776669993,479.388884917018,479.388884917018,479.388884917018,479.388884917018,480.8717970830039,480.8717970830039,480.8717970830039,480.8553921249986,480.8717970830039,481.85445195800276,0,,,100001,001,2023-04-13_15h25.45.422,DMS_etROI_12-36,2022.2.4,59.85898707214863,
84,UNPRED,12,0.5236928638573171,1,images/picture_2.png,images/picture_1.png,0,"[-11.733433509789466, -11.733433509789462]",-11.733433509789464,-11.733433509789462,images/picture_2.png,1,"[11.733433509789462, -11.733433509789466]",11.733433509789462,-11.733433509789464,images/picture_3.png,2,"[11.733433509789464, 11.733433509789462]",11.733433509789464,11.733433509789462,images/picture_2.png,1,"[11.733433509789462, -11.733433509789466]","[11.733433509789462, -11.733433509789466]","[11.733433509789462, -11.733433509789466]",0,1,1,0.5236928638573171,1.523692863857317,1.476307136142683,3.0,1,1.273692863857317,0,4.0,3.0,1,2,9,0,9,0,0,5,5,3,,,,,,,481.85445195800276,481.85445195800276,482.8549168329919,483.1390553750098,483.3720746670151,483.3720746670151,483.3720746670151,483.3720746670151,484.85516704199836,484.85516704199836,484.85516704199836,484.85516704199836,484.85516704199836,485.8675749580143,0,,,100001,001,2023-04-13_15h25.45.422,DMS_etROI_12-36,2022.2.4,59.85898707214863,
81,UNPRED,12,0.5236928638573171,2,images/picture_3.png,images/picture_1.png,0,"[11.733433509789462, -11.733433509789466]",11.733433509789462,-11.733433509789464,images/picture_2.png,1,"[-11.733433509789462, 11.733433509789464]",-11.733433509789462,11.733433509789464,images/picture_3.png,2,"[11.733433509789464, 11.733433509789462]",11.733433509789464,11.733433509789462,images/picture_3.png,2,"[11.733433509789464, 11.733433509789462]","[11.733433509789464, 11.733433509789462]","[11.733433509789464, 11.733433509789462]",0,1,1,0.5236928638573171,1.523692863857317,1.476307136142683,3.0,1,1.273692863857317,0,4.0,3.0,1,2,9,0,9,0,0,6,6,0,,,,,,,485.8675749580143,485.8675749580143,486.8717312079971,487.1550110829994,487.37166733300546,487.37166733300546,487.37166733300546,487.37166733300546,488.85477895801887,488.85477895801887,488.85477895801887,488.85477895801887,488.85477895801887,489.85481758299284,0,,,100001,001,2023-04-13_15h25.45.422,DMS_etROI_12-36,2022.2.4,59.85898707214863,
83,UNPRED,12,0.5236928638573171,0,images/picture_1.png,images/picture_1.png,0,"[11.733433509789464, 11.733433509789462]",11.733433509789464,11.733433509789462,images/picture_2.png,1,"[11.733433509789462, -11.733433509789466]",11.733433509789462,-11.733433509789464,images/picture_3.png,2,"[-11.733433509789462, 11.733433509789464]",-11.733433509789462,11.733433509789464,images/picture_1.png,0,"[11.733433509789464, 11.733433509789462]","[11.733433509789464, 11.733433509789462]","[11.733433509789464, 11.733433509789462]",0,1,1,0.5236928638573171,1.523692863857317,1.476307136142683,3.0,1,1.273692863857317,0,4.0,3.0,1,2,9,0,9,0,0,7,7,2,,,,,,,489.85481758299284,489.85481758299284,490.8550169579976,491.1382347079925,491.37207812501583,491.37207812501583,491.37207812501583,491.37207812501583,492.85496245801914,492.85496245801914,492.85496245801914,492.85496245801914,492.85496245801914,493.8553557920095,0,,,100001,001,2023-04-13_15h25.45.422,DMS_etROI_12-36,2022.2.4,59.85898707214863,
88,UNPRED,12,0.5236928638573171,1,images/picture_2.png,images/picture_1.png,0,"[11.733433509789462, -11.733433509789466]",11.733433509789462,-11.733433509789464,images/picture_2.png,1,"[11.733433509789464, 11.733433509789462]",11.733433509789464,11.733433509789462,images/picture_3.png,2,"[-11.733433509789466, -11.733433509789462]",-11.733433509789464,-11.733433509789462,images/picture_2.png,1,"[11.733433509789464, 11.733433509789462]","[11.733433509789464, 11.733433509789462]","[11.733433509789464, 11.733433509789462]",0,1,1,0.5236928638573171,1.523692863857317,1.476307136142683,3.0,1,1.273692863857317,0,4.0,3.0,1,2,9,0,9,0,0,8,8,7,,,,,,,493.8553557920095,493.8553557920095,494.85518254199997,495.13865270800306,495.37168829201255,495.37168829201255,495.37168829201255,495.37168829201255,496.8554614580062,496.8554614580062,496.8554614580062,496.8554614580062,496.8554614580062,498.03616166699794,0,,,100001,001,2023-04-13_15h25.45.422,DMS_etROI_12-36,2022.2.4,59.85898707214863,
,,,,,,,,,,,,,,,,,,,,,,,,,,,,,,,,,,,,,,,,9,0,9,0,,,,,,,,,498.03616166699794,510.0703898750071,,,,,,,,,,,,,,,,,,100001,001,2023-04-13_15h25.45.422,DMS_etROI_12-36,2022.2.4,59.85898707214863,
98,PRED,12,0.5236928638573171,1,images/picture_2.png,images/picture_1.png,0,"[-11.733433509789466, -11.733433509789462]",-11.733433509789464,-11.733433509789462,images/picture_2.png,1,"[-11.733433509789462, 11.733433509789464]",-11.733433509789462,11.733433509789464,images/picture_3.png,2,"[11.733433509789462, -11.733433509789466]",11.733433509789462,-11.733433509789464,images/picture_2.png,1,"[-11.733433509789462, 11.733433509789464]","[-11.733433509789462, 11.733433509789464]","[-11.733433509789462, 11.733433509789464]",0,1,1,0.5236928638573171,1.523692863857317,1.476307136142683,3.0,1,1.273692863857317,0,4.0,3.0,1,2,10,0,10,0,0,0,0,8,,,,,,,510.0703898750071,510.0703898750071,511.0721550830058,511.3554759169929,511.5885491250083,511.5885491250083,511.5885491250083,511.5885491250083,513.072539167013,513.072539167013,513.072539167013,513.072539167013,513.072539167013,514.0714376250107,0,,,100001,001,2023-04-13_15h25.45.422,DMS_etROI_12-36,2022.2.4,59.85898707214863,
93,PRED,12,0.5236928638573171,1,images/picture_2.png,images/picture_1.png,0,"[11.733433509789464, 11.733433509789462]",11.733433509789464,11.733433509789462,images/picture_2.png,1,"[-11.733433509789462, 11.733433509789464]",-11.733433509789462,11.733433509789464,images/picture_3.png,2,"[-11.733433509789466, -11.733433509789462]",-11.733433509789464,-11.733433509789462,images/picture_2.png,1,"[-11.733433509789462, 11.733433509789464]","[-11.733433509789462, 11.733433509789464]","[-11.733433509789462, 11.733433509789464]",0,1,1,0.5236928638573171,1.523692863857317,1.476307136142683,3.0,1,1.273692863857317,0,4.0,3.0,1,2,10,0,10,0,0,1,1,3,,,,,,,514.0714376250107,514.0714376250107,515.0723170000128,515.3556250830006,515.589117083,515.589117083,515.589117083,515.589117083,517.0720590830024,517.0720590830024,517.0720590830024,517.0720590830024,517.0720590830024,518.0714828330092,0,,,100001,001,2023-04-13_15h25.45.422,DMS_etROI_12-36,2022.2.4,59.85898707214863,
90,PRED,12,0.5236928638573171,1,images/picture_2.png,images/picture_1.png,0,"[11.733433509789462, -11.733433509789466]",11.733433509789462,-11.733433509789464,images/picture_2.png,1,"[11.733433509789464, 11.733433509789462]",11.733433509789464,11.733433509789462,images/picture_3.png,2,"[-11.733433509789462, 11.733433509789464]",-11.733433509789462,11.733433509789464,images/picture_2.png,1,"[11.733433509789464, 11.733433509789462]","[11.733433509789464, 11.733433509789462]","[11.733433509789464, 11.733433509789462]",0,1,1,0.5236928638573171,1.523692863857317,1.476307136142683,3.0,1,1.273692863857317,0,4.0,3.0,1,2,10,0,10,0,0,2,2,0,,,,,,,518.0714828330092,518.0714828330092,519.0716032500204,519.3550171669922,519.588172082993,519.588172082993,519.588172082993,519.588172082993,521.0722830000159,521.0722830000159,521.0722830000159,521.0722830000159,521.0722830000159,522.071553582995,0,,,100001,001,2023-04-13_15h25.45.422,DMS_etROI_12-36,2022.2.4,59.85898707214863,
94,PRED,12,0.5236928638573171,1,images/picture_2.png,images/picture_1.png,0,"[-11.733433509789466, -11.733433509789462]",-11.733433509789464,-11.733433509789462,images/picture_2.png,1,"[-11.733433509789462, 11.733433509789464]",-11.733433509789462,11.733433509789464,images/picture_3.png,2,"[11.733433509789462, -11.733433509789466]",11.733433509789462,-11.733433509789464,images/picture_2.png,1,"[-11.733433509789462, 11.733433509789464]","[-11.733433509789462, 11.733433509789464]","[-11.733433509789462, 11.733433509789464]",0,1,1,0.5236928638573171,1.523692863857317,1.476307136142683,3.0,1,1.273692863857317,0,4.0,3.0,1,2,10,0,10,0,0,3,3,4,,,,,,,522.071553582995,522.071553582995,523.0722571670194,523.3557662499952,523.5885770420136,523.5885770420136,523.5885770420136,523.5885770420136,525.0721747920034,525.0721747920034,525.0721747920034,525.0721747920034,525.0721747920034,526.0715153329947,0,,,100001,001,2023-04-13_15h25.45.422,DMS_etROI_12-36,2022.2.4,59.85898707214863,
96,PRED,12,0.5236928638573171,1,images/picture_2.png,images/picture_1.png,0,"[-11.733433509789466, -11.733433509789462]",-11.733433509789464,-11.733433509789462,images/picture_2.png,1,"[11.733433509789464, 11.733433509789462]",11.733433509789464,11.733433509789462,images/picture_3.png,2,"[11.733433509789462, -11.733433509789466]",11.733433509789462,-11.733433509789464,images/picture_2.png,1,"[11.733433509789464, 11.733433509789462]","[11.733433509789464, 11.733433509789462]","[11.733433509789464, 11.733433509789462]",0,1,1,0.5236928638573171,1.523692863857317,1.476307136142683,3.0,1,1.273692863857317,0,4.0,3.0,1,2,10,0,10,0,0,4,4,6,,,,,,,526.0715153329947,526.0715153329947,527.0719640000025,527.3552536670177,527.5889000419993,527.5889000419993,527.5889000419993,527.5889000419993,529.0717035830021,529.0717035830021,529.0717035830021,529.0717035830021,529.0717035830021,530.0716223329946,0,,,100001,001,2023-04-13_15h25.45.422,DMS_etROI_12-36,2022.2.4,59.85898707214863,
92,PRED,12,0.5236928638573171,1,images/picture_2.png,images/picture_1.png,0,"[11.733433509789462, -11.733433509789466]",11.733433509789462,-11.733433509789464,images/picture_2.png,1,"[11.733433509789464, 11.733433509789462]",11.733433509789464,11.733433509789462,images/picture_3.png,2,"[-11.733433509789466, -11.733433509789462]",-11.733433509789464,-11.733433509789462,images/picture_2.png,1,"[11.733433509789464, 11.733433509789462]","[11.733433509789464, 11.733433509789462]","[11.733433509789464, 11.733433509789462]",0,1,1,0.5236928638573171,1.523692863857317,1.476307136142683,3.0,1,1.273692863857317,0,4.0,3.0,1,2,10,0,10,0,0,5,5,2,,,,,,,530.0716223329946,530.0716223329946,531.0724150830065,531.3553239169996,531.5895887080114,531.5895887080114,531.5895887080114,531.5895887080114,533.0728426669957,533.0728426669957,533.0728426669957,533.055330208008,533.0728426669957,534.0548023330048,0,,,100001,001,2023-04-13_15h25.45.422,DMS_etROI_12-36,2022.2.4,59.85898707214863,
97,PRED,12,0.5236928638573171,1,images/picture_2.png,images/picture_1.png,0,"[-11.733433509789462, 11.733433509789464]",-11.733433509789462,11.733433509789464,images/picture_2.png,1,"[11.733433509789462, -11.733433509789466]",11.733433509789462,-11.733433509789464,images/picture_3.png,2,"[-11.733433509789466, -11.733433509789462]",-11.733433509789464,-11.733433509789462,images/picture_2.png,1,"[11.733433509789462, -11.733433509789466]","[11.733433509789462, -11.733433509789466]","[11.733433509789462, -11.733433509789466]",0,1,1,0.5236928638573171,1.523692863857317,1.476307136142683,3.0,1,1.273692863857317,0,4.0,3.0,1,2,10,0,10,0,0,6,6,7,,,,,,,534.0548023330048,534.0548023330048,535.055295875005,535.338706917013,535.5724456669996,535.5724456669996,535.5724456669996,535.5724456669996,537.0552957920008,537.0552957920008,537.0552957920008,537.0552957920008,537.0552957920008,538.0548882080184,0,,,100001,001,2023-04-13_15h25.45.422,DMS_etROI_12-36,2022.2.4,59.85898707214863,
