paradigm_name,trialNum,cue_onset,cue_dur,delayTime,delay_resp_period,rest_dur,trial_count,blockType,blockNum,delay_time,stimImage_i,stimImage,responseImage1,responseImage1_i,responseImage1_pos,responseImage1_X,responseImage1_Y,responseImage2,responseImage2_i,responseImage2_pos,responseImage2_X,responseImage2_Y,responseImage3,responseImage3_i,responseImage3_pos,responseImage3_X,responseImage3_Y,targImage,targImage_i,targImage_pos,targImage_X,targImage_Y,delay_onset,delay_dur,resp_onset,resp_dur,rest_onset,circle_dur,circle_onset,total_dur,cross_onset,cross_dur,blocks.thisRepN,blocks.thisTrialN,blocks.thisN,blocks.thisIndex,trials.thisRepN,trials.thisTrialN,trials.thisN,trials.thisIndex,key_resp.started,text.started,key_resp.keys,key_resp.rt,text_2.started,text_2.stopped,sample.started,Delay.started,sample.stopped,Delay.stopped,Response_1.started,Response_2.started,Response_3.started,roi.started,polygon.started,Response_1.stopped,Response_2.stopped,Response_3.stopped,roi.stopped,polygon.stopped,roi.numLooks,roi.timesOn,roi.timesOff,participant,session,date,expName,psychopyVersion,frameRate,
,,,,,,,,,,,,,,,,,,,,,,,,,,,,,,,,,,,,,,,,,,,,,,,,,,,29.371244833018864,29.371244833018864,t,13.802471167000476,,,,,,,,,,,,,,,,,,,,100001,001,2023-04-14_09h54.24.039,DMS_etROI_12-36_stimBlast,2022.2.4,None,
stimBlast2,40,0,0.1,0.4690971631739732,0.7,0.1,32,PRED,12,0.4690971631739732,2,images/picture_3.png,images/picture_1.png,0,"[11.733433509789464, 11.733433509789462]",11.733433509789464,11.733433509789462,images/picture_2.png,1,"[-11.733433509789466, -11.733433509789462]",-11.733433509789464,-11.733433509789462,images/picture_3.png,2,"[-11.733433509789462, 11.733433509789464]",-11.733433509789462,11.733433509789464,images/picture_3.png,2,"[-11.733433509789462, 11.733433509789464]","[-11.733433509789462, 11.733433509789464]","[-11.733433509789462, 11.733433509789464]",0.1,0.4690971631739732,0.5690971631739732,0.23090283682602675,0.7999999999999999,0.3190971631739732,0,0.8999999999999999,0.7999999999999999,0.1,0,0,0,0,0,0,0,32,,,,,43.69223216699902,55.74634979199618,55.74634979199618,55.74634979199618,55.85077024999191,56.07045691701933,56.30456491699442,56.30456491699442,56.30456491699442,56.30456491699442,56.537357249995694,56.55114366702037,56.55114366702037,56.55114366702037,56.55114366702037,56.66973933301051,0,,,100001,001,2023-04-14_09h54.24.039,DMS_etROI_12-36_stimBlast,2022.2.4,None,
stimBlast2,40,0,0.1,0.4690971631739732,0.7,0.1,33,PRED,12,0.4690971631739732,2,images/picture_3.png,images/picture_1.png,0,"[-11.733433509789462, 11.733433509789464]",-11.733433509789462,11.733433509789464,images/picture_2.png,1,"[-11.733433509789466, -11.733433509789462]",-11.733433509789464,-11.733433509789462,images/picture_3.png,2,"[11.733433509789464, 11.733433509789462]",11.733433509789464,11.733433509789462,images/picture_3.png,2,"[11.733433509789464, 11.733433509789462]","[11.733433509789464, 11.733433509789462]","[11.733433509789464, 11.733433509789462]",0.1,0.4690971631739732,0.5690971631739732,0.23090283682602675,0.7999999999999999,0.3190971631739732,0,0.8999999999999999,0.7999999999999999,0.1,0,0,0,0,0,1,1,33,,,,,,,56.66973933301051,56.66973933301051,56.78439683301258,57.00457716701203,57.21771045800415,57.21771045800415,57.21771045800415,57.21771045800415,57.4510547920072,57.4510547920072,57.4510547920072,57.4510547920072,57.4510547920072,57.5698655419983,0,,,100001,001,2023-04-14_09h54.24.039,DMS_etROI_12-36_stimBlast,2022.2.4,None,
stimBlast2,40,0,0.1,0.4690971631739732,0.7,0.1,11,PRED,12,0.4690971631739732,2,images/picture_3.png,images/picture_1.png,0,"[11.733433509789462, -11.733433509789466]",11.733433509789462,-11.733433509789464,images/picture_2.png,1,"[-11.733433509789462, 11.733433509789464]",-11.733433509789462,11.733433509789464,images/picture_3.png,2,"[-11.733433509789466, -11.733433509789462]",-11.733433509789464,-11.733433509789462,images/picture_3.png,2,"[-11.733433509789466, -11.733433509789462]","[-11.733433509789466, -11.733433509789462]","[-11.733433509789466, -11.733433509789462]",0.1,0.4690971631739732,0.5690971631739732,0.23090283682602675,0.7999999999999999,0.3190971631739732,0,0.8999999999999999,0.7999999999999999,0.1,0,0,0,0,0,2,2,11,,,,,,,57.5698655419983,57.5698655419983,57.68450649999431,57.904018041997915,58.117716542008566,58.117716542008566,58.117716542008566,58.117716542008566,58.351108500006376,58.351108500006376,58.351108500006376,58.351108500006376,58.351108500006376,58.4697932919953,0,,,100001,001,2023-04-14_09h54.24.039,DMS_etROI_12-36_stimBlast,2022.2.4,None,
stimBlast2,40,0,0.1,0.4690971631739732,0.7,0.1,37,PRED,12,0.4690971631739732,2,images/picture_3.png,images/picture_1.png,0,"[-11.733433509789466, -11.733433509789462]",-11.733433509789464,-11.733433509789462,images/picture_2.png,1,"[11.733433509789462, -11.733433509789466]",11.733433509789462,-11.733433509789464,images/picture_3.png,2,"[11.733433509789464, 11.733433509789462]",11.733433509789464,11.733433509789462,images/picture_3.png,2,"[11.733433509789464, 11.733433509789462]","[11.733433509789464, 11.733433509789462]","[11.733433509789464, 11.733433509789462]",0.1,0.4690971631739732,0.5690971631739732,0.23090283682602675,0.7999999999999999,0.3190971631739732,0,0.8999999999999999,0.7999999999999999,0.1,0,0,0,0,0,3,3,37,,,,,,,58.4697932919953,58.4697932919953,58.584565875004046,58.80378020799253,59.01784183300333,59.01784183300333,59.01784183300333,59.01784183300333,59.25112370800343,59.25112370800343,59.25112370800343,59.25112370800343,59.25112370800343,59.369734458014136,0,,,100001,001,2023-04-14_09h54.24.039,DMS_etROI_12-36_stimBlast,2022.2.4,None,
stimBlast2,40,0,0.1,0.4690971631739732,0.7,0.1,17,PRED,12,0.4690971631739732,2,images/picture_3.png,images/picture_1.png,0,"[-11.733433509789462, 11.733433509789464]",-11.733433509789462,11.733433509789464,images/picture_2.png,1,"[11.733433509789462, -11.733433509789466]",11.733433509789462,-11.733433509789464,images/picture_3.png,2,"[11.733433509789464, 11.733433509789462]",11.733433509789464,11.733433509789462,images/picture_3.png,2,"[11.733433509789464, 11.733433509789462]","[11.733433509789464, 11.733433509789462]","[11.733433509789464, 11.733433509789462]",0.1,0.4690971631739732,0.5690971631739732,0.23090283682602675,0.7999999999999999,0.3190971631739732,0,0.8999999999999999,0.7999999999999999,0.1,0,0,0,0,0,4,4,17,,,,,,,59.369734458014136,59.369734458014136,59.484407292009564,59.70399787501083,59.91769887501141,59.91769887501141,59.91769887501141,59.91769887501141,60.151148958015256,60.151148958015256,60.151148958015256,60.151148958015256,60.151148958015256,60.27011625000159,0,,,100001,001,2023-04-14_09h54.24.039,DMS_etROI_12-36_stimBlast,2022.2.4,None,
stimBlast2,40,0,0.1,0.4690971631739732,0.7,0.1,36,PRED,12,0.4690971631739732,2,images/picture_3.png,images/picture_1.png,0,"[-11.733433509789462, 11.733433509789464]",-11.733433509789462,11.733433509789464,images/picture_2.png,1,"[-11.733433509789466, -11.733433509789462]",-11.733433509789464,-11.733433509789462,images/picture_3.png,2,"[11.733433509789464, 11.733433509789462]",11.733433509789464,11.733433509789462,images/picture_3.png,2,"[11.733433509789464, 11.733433509789462]","[11.733433509789464, 11.733433509789462]","[11.733433509789464, 11.733433509789462]",0.1,0.4690971631739732,0.5690971631739732,0.23090283682602675,0.7999999999999999,0.3190971631739732,0,0.8999999999999999,0.7999999999999999,0.1,0,0,0,0,0,5,5,36,,,,,,,60.27011625000159,60.27011625000159,60.384216167003615,60.60434954200173,60.81746516699786,60.81746516699786,60.81746516699786,60.81746516699786,61.051083250000374,61.051083250000374,61.051083250000374,61.051083250000374,61.051083250000374,61.17043020800338,0,,,100001,001,2023-04-14_09h54.24.039,DMS_etROI_12-36_stimBlast,2022.2.4,None,
stimBlast2,40,0,0.1,0.4690971631739732,0.7,0.1,29,PRED,12,0.4690971631739732,2,images/picture_3.png,images/picture_1.png,0,"[11.733433509789464, 11.733433509789462]",11.733433509789464,11.733433509789462,images/picture_2.png,1,"[-11.733433509789462, 11.733433509789464]",-11.733433509789462,11.733433509789464,images/picture_3.png,2,"[-11.733433509789466, -11.733433509789462]",-11.733433509789464,-11.733433509789462,images/picture_3.png,2,"[-11.733433509789466, -11.733433509789462]","[-11.733433509789466, -11.733433509789462]","[-11.733433509789466, -11.733433509789462]",0.1,0.4690971631739732,0.5690971631739732,0.23090283682602675,0.7999999999999999,0.3190971631739732,0,0.8999999999999999,0.7999999999999999,0.1,0,0,0,0,0,6,6,29,,,,,,,61.17043020800338,61.17043020800338,61.28416708300938,61.50315233299625,61.71744791700621,61.71744791700621,61.71744791700621,61.71744791700621,61.950833667011466,61.950833667011466,61.950833667011466,61.950833667011466,61.950833667011466,62.05149116701796,0,,,100001,001,2023-04-14_09h54.24.039,DMS_etROI_12-36_stimBlast,2022.2.4,None,
stimBlast2,40,0,0.1,0.4690971631739732,0.7,0.1,26,PRED,12,0.4690971631739732,2,images/picture_3.png,images/picture_1.png,0,"[-11.733433509789466, -11.733433509789462]",-11.733433509789464,-11.733433509789462,images/picture_2.png,1,"[11.733433509789462, -11.733433509789466]",11.733433509789462,-11.733433509789464,images/picture_3.png,2,"[-11.733433509789462, 11.733433509789464]",-11.733433509789462,11.733433509789464,images/picture_3.png,2,"[-11.733433509789462, 11.733433509789464]","[-11.733433509789462, 11.733433509789464]","[-11.733433509789462, 11.733433509789464]",0.1,0.4690971631739732,0.5690971631739732,0.23090283682602675,0.7999999999999999,0.3190971631739732,0,0.8999999999999999,0.7999999999999999,0.1,0,0,0,0,0,7,7,26,,,,,,,62.05149116701796,62.05149116701796,62.15084995800862,62.384320208017016,62.617512958007865,62.617512958007865,62.617512958007865,62.617512958007865,62.85112641699379,62.85112641699379,62.85112641699379,62.85112641699379,62.85112641699379,62.97048950000317,0,,,100001,001,2023-04-14_09h54.24.039,DMS_etROI_12-36_stimBlast,2022.2.4,None,
stimBlast2,40,0,0.1,0.4690971631739732,0.7,0.1,8,PRED,12,0.4690971631739732,2,images/picture_3.png,images/picture_1.png,0,"[-11.733433509789466, -11.733433509789462]",-11.733433509789464,-11.733433509789462,images/picture_2.png,1,"[11.733433509789464, 11.733433509789462]",11.733433509789464,11.733433509789462,images/picture_3.png,2,"[11.733433509789462, -11.733433509789466]",11.733433509789462,-11.733433509789464,images/picture_3.png,2,"[11.733433509789462, -11.733433509789466]","[11.733433509789462, -11.733433509789466]","[11.733433509789462, -11.733433509789466]",0.1,0.4690971631739732,0.5690971631739732,0.23090283682602675,0.7999999999999999,0.3190971631739732,0,0.8999999999999999,0.7999999999999999,0.1,0,0,0,0,0,8,8,8,,,,,,,62.97048950000317,62.97048950000317,63.08444100001361,63.30399395801942,63.51756683300482,63.51756683300482,63.51756683300482,63.51756683300482,63.750918625009945,63.750918625009945,63.750918625009945,63.750918625009945,63.750918625009945,63.870162542007165,0,,,100001,001,2023-04-14_09h54.24.039,DMS_etROI_12-36_stimBlast,2022.2.4,None,
stimBlast2,40,0,0.1,0.4690971631739732,0.7,0.1,31,PRED,12,0.4690971631739732,2,images/picture_3.png,images/picture_1.png,0,"[11.733433509789462, -11.733433509789466]",11.733433509789462,-11.733433509789464,images/picture_2.png,1,"[-11.733433509789466, -11.733433509789462]",-11.733433509789464,-11.733433509789462,images/picture_3.png,2,"[11.733433509789464, 11.733433509789462]",11.733433509789464,11.733433509789462,images/picture_3.png,2,"[11.733433509789464, 11.733433509789462]","[11.733433509789464, 11.733433509789462]","[11.733433509789464, 11.733433509789462]",0.1,0.4690971631739732,0.5690971631739732,0.23090283682602675,0.7999999999999999,0.3190971631739732,0,0.8999999999999999,0.7999999999999999,0.1,0,0,0,0,0,9,9,31,,,,,,,63.870162542007165,63.870162542007165,63.98450791701907,64.20413137500873,64.41754645801848,64.41754645801848,64.41754645801848,64.41754645801848,64.6509727500088,64.6509727500088,64.6509727500088,64.6509727500088,64.6509727500088,64.76997058300185,0,,,100001,001,2023-04-14_09h54.24.039,DMS_etROI_12-36_stimBlast,2022.2.4,None,
stimBlast2,40,0,0.1,0.4690971631739732,0.7,0.1,9,PRED,12,0.4690971631739732,2,images/picture_3.png,images/picture_1.png,0,"[11.733433509789464, 11.733433509789462]",11.733433509789464,11.733433509789462,images/picture_2.png,1,"[11.733433509789462, -11.733433509789466]",11.733433509789462,-11.733433509789464,images/picture_3.png,2,"[-11.733433509789466, -11.733433509789462]",-11.733433509789464,-11.733433509789462,images/picture_3.png,2,"[-11.733433509789466, -11.733433509789462]","[-11.733433509789466, -11.733433509789462]","[-11.733433509789466, -11.733433509789462]",0.1,0.4690971631739732,0.5690971631739732,0.23090283682602675,0.7999999999999999,0.3190971631739732,0,0.8999999999999999,0.7999999999999999,0.1,0,0,0,0,0,10,10,9,,,,,,,64.76997058300185,64.76997058300185,64.8843595829967,65.10393108299468,65.31769479200011,65.31769479200011,65.31769479200011,65.31769479200011,65.5511256250029,65.5511256250029,65.5511256250029,65.5511256250029,65.5511256250029,65.67011562502012,0,,,100001,001,2023-04-14_09h54.24.039,DMS_etROI_12-36_stimBlast,2022.2.4,None,
stimBlast2,40,0,0.1,0.4690971631739732,0.7,0.1,25,PRED,12,0.4690971631739732,2,images/picture_3.png,images/picture_1.png,0,"[11.733433509789462, -11.733433509789466]",11.733433509789462,-11.733433509789464,images/picture_2.png,1,"[-11.733433509789466, -11.733433509789462]",-11.733433509789464,-11.733433509789462,images/picture_3.png,2,"[11.733433509789464, 11.733433509789462]",11.733433509789464,11.733433509789462,images/picture_3.png,2,"[11.733433509789464, 11.733433509789462]","[11.733433509789464, 11.733433509789462]","[11.733433509789464, 11.733433509789462]",0.1,0.4690971631739732,0.5690971631739732,0.23090283682602675,0.7999999999999999,0.3190971631739732,0,0.8999999999999999,0.7999999999999999,0.1,0,0,0,0,0,11,11,25,,,,,,,65.67011562502012,65.67011562502012,65.78439450002043,66.00429354200605,66.21752175001893,66.21752175001893,66.21752175001893,66.21752175001893,66.45128762500826,66.45128762500826,66.45128762500826,66.45128762500826,66.45128762500826,66.57001920801122,0,,,100001,001,2023-04-14_09h54.24.039,DMS_etROI_12-36_stimBlast,2022.2.4,None,
stimBlast2,40,0,0.1,0.4690971631739732,0.7,0.1,14,PRED,12,0.4690971631739732,2,images/picture_3.png,images/picture_1.png,0,"[11.733433509789462, -11.733433509789466]",11.733433509789462,-11.733433509789464,images/picture_2.png,1,"[11.733433509789464, 11.733433509789462]",11.733433509789464,11.733433509789462,images/picture_3.png,2,"[-11.733433509789462, 11.733433509789464]",-11.733433509789462,11.733433509789464,images/picture_3.png,2,"[-11.733433509789462, 11.733433509789464]","[-11.733433509789462, 11.733433509789464]","[-11.733433509789462, 11.733433509789464]",0.1,0.4690971631739732,0.5690971631739732,0.23090283682602675,0.7999999999999999,0.3190971631739732,0,0.8999999999999999,0.7999999999999999,0.1,0,0,0,0,0,12,12,14,,,,,,,66.57001920801122,66.57001920801122,66.68436858299538,66.9039762080065,67.11776183301117,67.11776183301117,67.11776183301117,67.11776183301117,67.35116383299464,67.35116383299464,67.35116383299464,67.35116383299464,67.35116383299464,67.47004937499878,0,,,100001,001,2023-04-14_09h54.24.039,DMS_etROI_12-36_stimBlast,2022.2.4,None,
stimBlast2,40,0,0.1,0.4690971631739732,0.7,0.1,4,PRED,12,0.4690971631739732,2,images/picture_3.png,images/picture_1.png,0,"[-11.733433509789466, -11.733433509789462]",-11.733433509789464,-11.733433509789462,images/picture_2.png,1,"[11.733433509789464, 11.733433509789462]",11.733433509789464,11.733433509789462,images/picture_3.png,2,"[-11.733433509789462, 11.733433509789464]",-11.733433509789462,11.733433509789464,images/picture_3.png,2,"[-11.733433509789462, 11.733433509789464]","[-11.733433509789462, 11.733433509789464]","[-11.733433509789462, 11.733433509789464]",0.1,0.4690971631739732,0.5690971631739732,0.23090283682602675,0.7999999999999999,0.3190971631739732,0,0.8999999999999999,0.7999999999999999,0.1,0,0,0,0,0,13,13,4,,,,,,,67.47004937499878,67.47004937499878,67.58449916701647,67.80407379200915,68.01760300001479,68.01760300001479,68.01760300001479,68.01760300001479,68.25112637502025,68.25112637502025,68.25112637502025,68.25112637502025,68.25112637502025,68.37075137501233,0,,,100001,001,2023-04-14_09h54.24.039,DMS_etROI_12-36_stimBlast,2022.2.4,None,
stimBlast2,40,0,0.1,0.4690971631739732,0.7,0.1,12,PRED,12,0.4690971631739732,2,images/picture_3.png,images/picture_1.png,0,"[11.733433509789462, -11.733433509789466]",11.733433509789462,-11.733433509789464,images/picture_2.png,1,"[-11.733433509789462, 11.733433509789464]",-11.733433509789462,11.733433509789464,images/picture_3.png,2,"[11.733433509789464, 11.733433509789462]",11.733433509789464,11.733433509789462,images/picture_3.png,2,"[11.733433509789464, 11.733433509789462]","[11.733433509789464, 11.733433509789462]","[11.733433509789464, 11.733433509789462]",0.1,0.4690971631739732,0.5690971631739732,0.23090283682602675,0.7999999999999999,0.3190971631739732,0,0.8999999999999999,0.7999999999999999,0.1,0,0,0,0,0,14,14,12,,,,,,,68.37075137501233,68.37075137501233,68.48443183299969,68.70473433300504,68.91790087500704,68.91790087500704,68.91790087500704,68.91790087500704,69.15088579201256,69.15088579201256,69.15088579201256,69.15088579201256,69.15088579201256,69.2699148330139,0,,,100001,001,2023-04-14_09h54.24.039,DMS_etROI_12-36_stimBlast,2022.2.4,None,
stimBlast2,40,0,0.1,0.4690971631739732,0.7,0.1,5,PRED,12,0.4690971631739732,2,images/picture_3.png,images/picture_1.png,0,"[11.733433509789464, 11.733433509789462]",11.733433509789464,11.733433509789462,images/picture_2.png,1,"[-11.733433509789462, 11.733433509789464]",-11.733433509789462,11.733433509789464,images/picture_3.png,2,"[11.733433509789462, -11.733433509789466]",11.733433509789462,-11.733433509789464,images/picture_3.png,2,"[11.733433509789462, -11.733433509789466]","[11.733433509789462, -11.733433509789466]","[11.733433509789462, -11.733433509789466]",0.1,0.4690971631739732,0.5690971631739732,0.23090283682602675,0.7999999999999999,0.3190971631739732,0,0.8999999999999999,0.7999999999999999,0.1,0,0,0,0,0,15,15,5,,,,,,,69.2699148330139,69.2699148330139,69.38444591700681,69.60396504201344,69.81753937501344,69.81753937501344,69.81753937501344,69.81753937501344,70.05113758301013,70.05113758301013,70.05113758301013,70.05113758301013,70.05113758301013,70.16987245800556,0,,,100001,001,2023-04-14_09h54.24.039,DMS_etROI_12-36_stimBlast,2022.2.4,None,
stimBlast2,40,0,0.1,0.4690971631739732,0.7,0.1,35,PRED,12,0.4690971631739732,2,images/picture_3.png,images/picture_1.png,0,"[-11.733433509789466, -11.733433509789462]",-11.733433509789464,-11.733433509789462,images/picture_2.png,1,"[11.733433509789462, -11.733433509789466]",11.733433509789462,-11.733433509789464,images/picture_3.png,2,"[-11.733433509789462, 11.733433509789464]",-11.733433509789462,11.733433509789464,images/picture_3.png,2,"[-11.733433509789462, 11.733433509789464]","[-11.733433509789462, 11.733433509789464]","[-11.733433509789462, 11.733433509789464]",0.1,0.4690971631739732,0.5690971631739732,0.23090283682602675,0.7999999999999999,0.3190971631739732,0,0.8999999999999999,0.7999999999999999,0.1,0,0,0,0,0,16,16,35,,,,,,,70.16987245800556,70.16987245800556,70.28442375001032,70.50396075000754,70.71758658299223,70.71758658299223,70.71758658299223,70.71758658299223,70.95114874999854,70.95114874999854,70.95114874999854,70.95114874999854,70.95114874999854,71.06980516700423,0,,,100001,001,2023-04-14_09h54.24.039,DMS_etROI_12-36_stimBlast,2022.2.4,None,
stimBlast2,40,0,0.1,0.4690971631739732,0.7,0.1,2,PRED,12,0.4690971631739732,2,images/picture_3.png,images/picture_1.png,0,"[11.733433509789464, 11.733433509789462]",11.733433509789464,11.733433509789462,images/picture_2.png,1,"[11.733433509789462, -11.733433509789466]",11.733433509789462,-11.733433509789464,images/picture_3.png,2,"[-11.733433509789466, -11.733433509789462]",-11.733433509789464,-11.733433509789462,images/picture_3.png,2,"[-11.733433509789466, -11.733433509789462]","[-11.733433509789466, -11.733433509789462]","[-11.733433509789466, -11.733433509789462]",0.1,0.4690971631739732,0.5690971631739732,0.23090283682602675,0.7999999999999999,0.3190971631739732,0,0.8999999999999999,0.7999999999999999,0.1,0,0,0,0,0,17,17,2,,,,,,,71.06980516700423,71.06980516700423,71.18459041701863,71.40367129200604,71.6176375829964,71.6176375829964,71.6176375829964,71.6176375829964,71.8509617499949,71.8509617499949,71.8509617499949,71.8509617499949,71.8509617499949,71.95176595801604,0,,,100001,001,2023-04-14_09h54.24.039,DMS_etROI_12-36_stimBlast,2022.2.4,None,
stimBlast2,40,0,0.1,0.4690971631739732,0.7,0.1,15,PRED,12,0.4690971631739732,2,images/picture_3.png,images/picture_1.png,0,"[-11.733433509789462, 11.733433509789464]",-11.733433509789462,11.733433509789464,images/picture_2.png,1,"[11.733433509789462, -11.733433509789466]",11.733433509789462,-11.733433509789464,images/picture_3.png,2,"[-11.733433509789466, -11.733433509789462]",-11.733433509789464,-11.733433509789462,images/picture_3.png,2,"[-11.733433509789466, -11.733433509789462]","[-11.733433509789466, -11.733433509789462]","[-11.733433509789466, -11.733433509789462]",0.1,0.4690971631739732,0.5690971631739732,0.23090283682602675,0.7999999999999999,0.3190971631739732,0,0.8999999999999999,0.7999999999999999,0.1,0,0,0,0,0,18,18,15,,,,,,,71.95176595801604,71.95176595801604,72.05104916699929,72.28409579201252,72.51775933301542,72.51775933301542,72.51775933301542,72.51775933301542,72.75100479199318,72.75100479199318,72.75100479199318,72.75100479199318,72.75100479199318,72.87022904201876,0,,,100001,001,2023-04-14_09h54.24.039,DMS_etROI_12-36_stimBlast,2022.2.4,None,
stimBlast2,40,0,0.1,0.4690971631739732,0.7,0.1,34,PRED,12,0.4690971631739732,2,images/picture_3.png,images/picture_1.png,0,"[11.733433509789464, 11.733433509789462]",11.733433509789464,11.733433509789462,images/picture_2.png,1,"[11.733433509789462, -11.733433509789466]",11.733433509789462,-11.733433509789464,images/picture_3.png,2,"[-11.733433509789466, -11.733433509789462]",-11.733433509789464,-11.733433509789462,images/picture_3.png,2,"[-11.733433509789466, -11.733433509789462]","[-11.733433509789466, -11.733433509789462]","[-11.733433509789466, -11.733433509789462]",0.1,0.4690971631739732,0.5690971631739732,0.23090283682602675,0.7999999999999999,0.3190971631739732,0,0.8999999999999999,0.7999999999999999,0.1,0,0,0,0,0,19,19,34,,,,,,,72.87022904201876,72.87022904201876,72.98448679200374,73.20399858301971,73.41763708301005,73.41763708301005,73.41763708301005,73.41763708301005,73.65119883301668,73.65119883301668,73.65119883301668,73.65119883301668,73.65119883301668,73.77097220800351,0,,,100001,001,2023-04-14_09h54.24.039,DMS_etROI_12-36_stimBlast,2022.2.4,None,
stimBlast2,40,0,0.1,0.4690971631739732,0.7,0.1,6,PRED,12,0.4690971631739732,2,images/picture_3.png,images/picture_1.png,0,"[-11.733433509789462, 11.733433509789464]",-11.733433509789462,11.733433509789464,images/picture_2.png,1,"[-11.733433509789466, -11.733433509789462]",-11.733433509789464,-11.733433509789462,images/picture_3.png,2,"[11.733433509789464, 11.733433509789462]",11.733433509789464,11.733433509789462,images/picture_3.png,2,"[11.733433509789464, 11.733433509789462]","[11.733433509789464, 11.733433509789462]","[11.733433509789464, 11.733433509789462]",0.1,0.4690971631739732,0.5690971631739732,0.23090283682602675,0.7999999999999999,0.3190971631739732,0,0.8999999999999999,0.7999999999999999,0.1,0,0,0,0,0,20,20,6,,,,,,,73.77097220800351,73.77097220800351,73.88438162501552,74.10415704202023,74.31753358300193,74.31753358300193,74.31753358300193,74.31753358300193,74.55116129200906,74.55116129200906,74.55116129200906,74.55116129200906,74.55116129200906,74.67017516700434,0,,,100001,001,2023-04-14_09h54.24.039,DMS_etROI_12-36_stimBlast,2022.2.4,None,
stimBlast2,40,0,0.1,0.4690971631739732,0.7,0.1,28,PRED,12,0.4690971631739732,2,images/picture_3.png,images/picture_1.png,0,"[-11.733433509789466, -11.733433509789462]",-11.733433509789464,-11.733433509789462,images/picture_2.png,1,"[-11.733433509789462, 11.733433509789464]",-11.733433509789462,11.733433509789464,images/picture_3.png,2,"[11.733433509789464, 11.733433509789462]",11.733433509789464,11.733433509789462,images/picture_3.png,2,"[11.733433509789464, 11.733433509789462]","[11.733433509789464, 11.733433509789462]","[11.733433509789464, 11.733433509789462]",0.1,0.4690971631739732,0.5690971631739732,0.23090283682602675,0.7999999999999999,0.3190971631739732,0,0.8999999999999999,0.7999999999999999,0.1,0,0,0,0,0,21,21,28,,,,,,,74.67017516700434,74.67017516700434,74.7845941669948,75.00411520799389,75.21770470801857,75.21770470801857,75.21770470801857,75.21770470801857,75.451154667011,75.451154667011,75.451154667011,75.451154667011,75.451154667011,75.56992941701901,0,,,100001,001,2023-04-14_09h54.24.039,DMS_etROI_12-36_stimBlast,2022.2.4,None,
stimBlast2,40,0,0.1,0.4690971631739732,0.7,0.1,13,PRED,12,0.4690971631739732,2,images/picture_3.png,images/picture_1.png,0,"[-11.733433509789462, 11.733433509789464]",-11.733433509789462,11.733433509789464,images/picture_2.png,1,"[-11.733433509789466, -11.733433509789462]",-11.733433509789464,-11.733433509789462,images/picture_3.png,2,"[11.733433509789464, 11.733433509789462]",11.733433509789464,11.733433509789462,images/picture_3.png,2,"[11.733433509789464, 11.733433509789462]","[11.733433509789464, 11.733433509789462]","[11.733433509789464, 11.733433509789462]",0.1,0.4690971631739732,0.5690971631739732,0.23090283682602675,0.7999999999999999,0.3190971631739732,0,0.8999999999999999,0.7999999999999999,0.1,0,0,0,0,0,22,22,13,,,,,,,75.56992941701901,75.56992941701901,75.6844510420051,75.90421087501454,76.11731004199828,76.11731004199828,76.11731004199828,76.11731004199828,76.35116208301042,76.35116208301042,76.35116208301042,76.35116208301042,76.35116208301042,76.47017862499342,0,,,100001,001,2023-04-14_09h54.24.039,DMS_etROI_12-36_stimBlast,2022.2.4,None,
stimBlast2,40,0,0.1,0.4690971631739732,0.7,0.1,1,PRED,12,0.4690971631739732,2,images/picture_3.png,images/picture_1.png,0,"[11.733433509789464, 11.733433509789462]",11.733433509789464,11.733433509789462,images/picture_2.png,1,"[-11.733433509789466, -11.733433509789462]",-11.733433509789464,-11.733433509789462,images/picture_3.png,2,"[-11.733433509789462, 11.733433509789464]",-11.733433509789462,11.733433509789464,images/picture_3.png,2,"[-11.733433509789462, 11.733433509789464]","[-11.733433509789462, 11.733433509789464]","[-11.733433509789462, 11.733433509789464]",0.1,0.4690971631739732,0.5690971631739732,0.23090283682602675,0.7999999999999999,0.3190971631739732,0,0.8999999999999999,0.7999999999999999,0.1,0,0,0,0,0,23,23,1,,,,,,,76.47017862499342,76.47017862499342,76.58466320799198,76.8039670830185,77.01785837500938,77.01785837500938,77.01785837500938,77.01785837500938,77.2511687920196,77.2511687920196,77.2511687920196,77.2511687920196,77.2511687920196,77.36989179201191,0,,,100001,001,2023-04-14_09h54.24.039,DMS_etROI_12-36_stimBlast,2022.2.4,None,
stimBlast2,40,0,0.1,0.4690971631739732,0.7,0.1,19,PRED,12,0.4690971631739732,2,images/picture_3.png,images/picture_1.png,0,"[-11.733433509789466, -11.733433509789462]",-11.733433509789464,-11.733433509789462,images/picture_2.png,1,"[11.733433509789462, -11.733433509789466]",11.733433509789462,-11.733433509789464,images/picture_3.png,2,"[11.733433509789464, 11.733433509789462]",11.733433509789464,11.733433509789462,images/picture_3.png,2,"[11.733433509789464, 11.733433509789462]","[11.733433509789464, 11.733433509789462]","[11.733433509789464, 11.733433509789462]",0.1,0.4690971631739732,0.5690971631739732,0.23090283682602675,0.7999999999999999,0.3190971631739732,0,0.8999999999999999,0.7999999999999999,0.1,0,0,0,0,0,24,24,19,,,,,,,77.36989179201191,77.36989179201191,77.4844289580069,77.70391125002061,77.91767774999607,77.91767774999607,77.91767774999607,77.91767774999607,78.15112254201085,78.15112254201085,78.15112254201085,78.15112254201085,78.15112254201085,78.26978125001187,0,,,100001,001,2023-04-14_09h54.24.039,DMS_etROI_12-36_stimBlast,2022.2.4,None,
stimBlast2,40,0,0.1,0.4690971631739732,0.7,0.1,0,PRED,12,0.4690971631739732,2,images/picture_3.png,images/picture_1.png,0,"[-11.733433509789462, 11.733433509789464]",-11.733433509789462,11.733433509789464,images/picture_2.png,1,"[11.733433509789462, -11.733433509789466]",11.733433509789462,-11.733433509789464,images/picture_3.png,2,"[11.733433509789464, 11.733433509789462]",11.733433509789464,11.733433509789462,images/picture_3.png,2,"[11.733433509789464, 11.733433509789462]","[11.733433509789464, 11.733433509789462]","[11.733433509789464, 11.733433509789462]",0.1,0.4690971631739732,0.5690971631739732,0.23090283682602675,0.7999999999999999,0.3190971631739732,0,0.8999999999999999,0.7999999999999999,0.1,0,0,0,0,0,25,25,0,,,,,,,78.26978125001187,78.26978125001187,78.38450354200904,78.60397916700458,78.81766595802037,78.81766595802037,78.81766595802037,78.81766595802037,79.05118145799497,79.05118145799497,79.05118145799497,79.05118145799497,79.05118145799497,79.1708427919948,0,,,100001,001,2023-04-14_09h54.24.039,DMS_etROI_12-36_stimBlast,2022.2.4,None,
stimBlast2,40,0,0.1,0.4690971631739732,0.7,0.1,39,PRED,12,0.4690971631739732,2,images/picture_3.png,images/picture_1.png,0,"[11.733433509789462, -11.733433509789466]",11.733433509789462,-11.733433509789464,images/picture_2.png,1,"[11.733433509789464, 11.733433509789462]",11.733433509789464,11.733433509789462,images/picture_3.png,2,"[-11.733433509789466, -11.733433509789462]",-11.733433509789464,-11.733433509789462,images/picture_3.png,2,"[-11.733433509789466, -11.733433509789462]","[-11.733433509789466, -11.733433509789462]","[-11.733433509789466, -11.733433509789462]",0.1,0.4690971631739732,0.5690971631739732,0.23090283682602675,0.7999999999999999,0.3190971631739732,0,0.8999999999999999,0.7999999999999999,0.1,0,0,0,0,0,26,26,39,,,,,,,79.1708427919948,79.1708427919948,79.28459141700296,79.50408312500804,79.71769887499977,79.71769887499977,79.71769887499977,79.71769887499977,79.95131320800283,79.95131320800283,79.95131320800283,79.95131320800283,79.95131320800283,80.07071345800068,0,,,100001,001,2023-04-14_09h54.24.039,DMS_etROI_12-36_stimBlast,2022.2.4,None,
stimBlast2,40,0,0.1,0.4690971631739732,0.7,0.1,23,PRED,12,0.4690971631739732,2,images/picture_3.png,images/picture_1.png,0,"[-11.733433509789462, 11.733433509789464]",-11.733433509789462,11.733433509789464,images/picture_2.png,1,"[11.733433509789462, -11.733433509789466]",11.733433509789462,-11.733433509789464,images/picture_3.png,2,"[-11.733433509789466, -11.733433509789462]",-11.733433509789464,-11.733433509789462,images/picture_3.png,2,"[-11.733433509789466, -11.733433509789462]","[-11.733433509789466, -11.733433509789462]","[-11.733433509789466, -11.733433509789462]",0.1,0.4690971631739732,0.5690971631739732,0.23090283682602675,0.7999999999999999,0.3190971631739732,0,0.8999999999999999,0.7999999999999999,0.1,0,0,0,0,0,27,27,23,,,,,,,80.07071345800068,80.07071345800068,80.18444345801254,80.40392041701125,80.61784091699519,80.61784091699519,80.61784091699519,80.61784091699519,80.85106316700694,80.85106316700694,80.85106316700694,80.85106316700694,80.85106316700694,80.97040608301177,0,,,100001,001,2023-04-14_09h54.24.039,DMS_etROI_12-36_stimBlast,2022.2.4,None,
stimBlast2,40,0,0.1,0.4690971631739732,0.7,0.1,18,PRED,12,0.4690971631739732,2,images/picture_3.png,images/picture_1.png,0,"[11.733433509789464, 11.733433509789462]",11.733433509789464,11.733433509789462,images/picture_2.png,1,"[11.733433509789462, -11.733433509789466]",11.733433509789462,-11.733433509789464,images/picture_3.png,2,"[-11.733433509789466, -11.733433509789462]",-11.733433509789464,-11.733433509789462,images/picture_3.png,2,"[-11.733433509789466, -11.733433509789462]","[-11.733433509789466, -11.733433509789462]","[-11.733433509789466, -11.733433509789462]",0.1,0.4690971631739732,0.5690971631739732,0.23090283682602675,0.7999999999999999,0.3190971631739732,0,0.8999999999999999,0.7999999999999999,0.1,0,0,0,0,0,28,28,18,,,,,,,80.97040608301177,80.97040608301177,81.08477704200777,81.30387216701638,81.51792270800797,81.51792270800797,81.51792270800797,81.51792270800797,81.75100562500302,81.75100562500302,81.75100562500302,81.75100562500302,81.75100562500302,81.85219287499785,0,,,100001,001,2023-04-14_09h54.24.039,DMS_etROI_12-36_stimBlast,2022.2.4,None,
stimBlast2,40,0,0.1,0.4690971631739732,0.7,0.1,21,PRED,12,0.4690971631739732,2,images/picture_3.png,images/picture_1.png,0,"[-11.733433509789462, 11.733433509789464]",-11.733433509789462,11.733433509789464,images/picture_2.png,1,"[11.733433509789462, -11.733433509789466]",11.733433509789462,-11.733433509789464,images/picture_3.png,2,"[11.733433509789464, 11.733433509789462]",11.733433509789464,11.733433509789462,images/picture_3.png,2,"[11.733433509789464, 11.733433509789462]","[11.733433509789464, 11.733433509789462]","[11.733433509789464, 11.733433509789462]",0.1,0.4690971631739732,0.5690971631739732,0.23090283682602675,0.7999999999999999,0.3190971631739732,0,0.8999999999999999,0.7999999999999999,0.1,0,0,0,0,0,29,29,21,,,,,,,81.85219287499785,81.85219287499785,81.95106004201807,82.18435445800424,82.4175760000071,82.4175760000071,82.4175760000071,82.4175760000071,82.6510083329922,82.6510083329922,82.6510083329922,82.6510083329922,82.6510083329922,82.75175379199209,0,,,100001,001,2023-04-14_09h54.24.039,DMS_etROI_12-36_stimBlast,2022.2.4,None,
stimBlast2,40,0,0.1,0.4690971631739732,0.7,0.1,10,PRED,12,0.4690971631739732,2,images/picture_3.png,images/picture_1.png,0,"[11.733433509789462, -11.733433509789466]",11.733433509789462,-11.733433509789464,images/picture_2.png,1,"[-11.733433509789462, 11.733433509789464]",-11.733433509789462,11.733433509789464,images/picture_3.png,2,"[-11.733433509789466, -11.733433509789462]",-11.733433509789464,-11.733433509789462,images/picture_3.png,2,"[-11.733433509789466, -11.733433509789462]","[-11.733433509789466, -11.733433509789462]","[-11.733433509789466, -11.733433509789462]",0.1,0.4690971631739732,0.5690971631739732,0.23090283682602675,0.7999999999999999,0.3190971631739732,0,0.8999999999999999,0.7999999999999999,0.1,0,0,0,0,0,30,30,10,,,,,,,82.75175379199209,82.75175379199209,82.85102550001466,83.08476770800189,83.31761583301704,83.31761583301704,83.31761583301704,83.31761583301704,83.5511890000198,83.5511890000198,83.5511890000198,83.5511890000198,83.5511890000198,83.6699641669984,0,,,100001,001,2023-04-14_09h54.24.039,DMS_etROI_12-36_stimBlast,2022.2.4,None,
stimBlast2,40,0,0.1,0.4690971631739732,0.7,0.1,7,PRED,12,0.4690971631739732,2,images/picture_3.png,images/picture_1.png,0,"[-11.733433509789466, -11.733433509789462]",-11.733433509789464,-11.733433509789462,images/picture_2.png,1,"[11.733433509789462, -11.733433509789466]",11.733433509789462,-11.733433509789464,images/picture_3.png,2,"[-11.733433509789462, 11.733433509789464]",-11.733433509789462,11.733433509789464,images/picture_3.png,2,"[-11.733433509789462, 11.733433509789464]","[-11.733433509789462, 11.733433509789464]","[-11.733433509789462, 11.733433509789464]",0.1,0.4690971631739732,0.5690971631739732,0.23090283682602675,0.7999999999999999,0.3190971631739732,0,0.8999999999999999,0.7999999999999999,0.1,0,0,0,0,0,31,31,7,,,,,,,83.6699641669984,83.6699641669984,83.78464625001652,84.00424487501732,84.21767758301576,84.21767758301576,84.21767758301576,84.21767758301576,84.4513507920201,84.4513507920201,84.4513507920201,84.4513507920201,84.4513507920201,84.57075395801803,0,,,100001,001,2023-04-14_09h54.24.039,DMS_etROI_12-36_stimBlast,2022.2.4,None,
stimBlast2,40,0,0.1,0.4690971631739732,0.7,0.1,27,PRED,12,0.4690971631739732,2,images/picture_3.png,images/picture_1.png,0,"[11.733433509789464, 11.733433509789462]",11.733433509789464,11.733433509789462,images/picture_2.png,1,"[-11.733433509789466, -11.733433509789462]",-11.733433509789464,-11.733433509789462,images/picture_3.png,2,"[-11.733433509789462, 11.733433509789464]",-11.733433509789462,11.733433509789464,images/picture_3.png,2,"[-11.733433509789462, 11.733433509789464]","[-11.733433509789462, 11.733433509789464]","[-11.733433509789462, 11.733433509789464]",0.1,0.4690971631739732,0.5690971631739732,0.23090283682602675,0.7999999999999999,0.3190971631739732,0,0.8999999999999999,0.7999999999999999,0.1,0,0,0,0,0,32,32,27,,,,,,,84.57075395801803,84.57075395801803,84.68462687500869,84.90457983300439,85.11775375000434,85.11775375000434,85.11775375000434,85.11775375000434,85.35114524999517,85.35114524999517,85.35114524999517,85.35114524999517,85.35114524999517,85.46997683300287,0,,,100001,001,2023-04-14_09h54.24.039,DMS_etROI_12-36_stimBlast,2022.2.4,None,
stimBlast2,40,0,0.1,0.4690971631739732,0.7,0.1,3,PRED,12,0.4690971631739732,2,images/picture_3.png,images/picture_1.png,0,"[-11.733433509789466, -11.733433509789462]",-11.733433509789464,-11.733433509789462,images/picture_2.png,1,"[11.733433509789462, -11.733433509789466]",11.733433509789462,-11.733433509789464,images/picture_3.png,2,"[11.733433509789464, 11.733433509789462]",11.733433509789464,11.733433509789462,images/picture_3.png,2,"[11.733433509789464, 11.733433509789462]","[11.733433509789464, 11.733433509789462]","[11.733433509789464, 11.733433509789462]",0.1,0.4690971631739732,0.5690971631739732,0.23090283682602675,0.7999999999999999,0.3190971631739732,0,0.8999999999999999,0.7999999999999999,0.1,0,0,0,0,0,33,33,3,,,,,,,85.46997683300287,85.46997683300287,85.58468537501176,85.80414837499848,86.01736591701047,86.01736591701047,86.01736591701047,86.01736591701047,86.2513395830174,86.2513395830174,86.2513395830174,86.2513395830174,86.2513395830174,86.37033666699426,0,,,100001,001,2023-04-14_09h54.24.039,DMS_etROI_12-36_stimBlast,2022.2.4,None,
stimBlast2,40,0,0.1,0.4690971631739732,0.7,0.1,24,PRED,12,0.4690971631739732,2,images/picture_3.png,images/picture_1.png,0,"[-11.733433509789462, 11.733433509789464]",-11.733433509789462,11.733433509789464,images/picture_2.png,1,"[11.733433509789464, 11.733433509789462]",11.733433509789464,11.733433509789462,images/picture_3.png,2,"[-11.733433509789466, -11.733433509789462]",-11.733433509789464,-11.733433509789462,images/picture_3.png,2,"[-11.733433509789466, -11.733433509789462]","[-11.733433509789466, -11.733433509789462]","[-11.733433509789466, -11.733433509789462]",0.1,0.4690971631739732,0.5690971631739732,0.23090283682602675,0.7999999999999999,0.3190971631739732,0,0.8999999999999999,0.7999999999999999,0.1,0,0,0,0,0,34,34,24,,,,,,,86.37033666699426,86.37033666699426,86.48466341700987,86.70401262500673,86.91765066701919,86.91765066701919,86.91765066701919,86.91765066701919,87.15134283300722,87.15134283300722,87.15134283300722,87.15134283300722,87.15134283300722,87.27021920800325,0,,,100001,001,2023-04-14_09h54.24.039,DMS_etROI_12-36_stimBlast,2022.2.4,None,
stimBlast2,40,0,0.1,0.4690971631739732,0.7,0.1,16,PRED,12,0.4690971631739732,2,images/picture_3.png,images/picture_1.png,0,"[11.733433509789462, -11.733433509789466]",11.733433509789462,-11.733433509789464,images/picture_2.png,1,"[-11.733433509789462, 11.733433509789464]",-11.733433509789462,11.733433509789464,images/picture_3.png,2,"[11.733433509789464, 11.733433509789462]",11.733433509789464,11.733433509789462,images/picture_3.png,2,"[11.733433509789464, 11.733433509789462]","[11.733433509789464, 11.733433509789462]","[11.733433509789464, 11.733433509789462]",0.1,0.4690971631739732,0.5690971631739732,0.23090283682602675,0.7999999999999999,0.3190971631739732,0,0.8999999999999999,0.7999999999999999,0.1,0,0,0,0,0,35,35,16,,,,,,,87.27021920800325,87.27021920800325,87.38467570801731,87.60409133299254,87.81784891700954,87.81784891700954,87.81784891700954,87.81784891700954,88.05118991699419,88.05118991699419,88.05118991699419,88.05118991699419,88.05118991699419,88.17016866701306,0,,,100001,001,2023-04-14_09h54.24.039,DMS_etROI_12-36_stimBlast,2022.2.4,None,
stimBlast2,40,0,0.1,0.4690971631739732,0.7,0.1,30,PRED,12,0.4690971631739732,2,images/picture_3.png,images/picture_1.png,0,"[11.733433509789462, -11.733433509789466]",11.733433509789462,-11.733433509789464,images/picture_2.png,1,"[-11.733433509789466, -11.733433509789462]",-11.733433509789464,-11.733433509789462,images/picture_3.png,2,"[11.733433509789464, 11.733433509789462]",11.733433509789464,11.733433509789462,images/picture_3.png,2,"[11.733433509789464, 11.733433509789462]","[11.733433509789464, 11.733433509789462]","[11.733433509789464, 11.733433509789462]",0.1,0.4690971631739732,0.5690971631739732,0.23090283682602675,0.7999999999999999,0.3190971631739732,0,0.8999999999999999,0.7999999999999999,0.1,0,0,0,0,0,36,36,30,,,,,,,88.17016866701306,88.17016866701306,88.28460737501155,88.50412445800612,88.71734458301216,88.71734458301216,88.71734458301216,88.71734458301216,88.95133999999962,88.95133999999962,88.95133999999962,88.95133999999962,88.95133999999962,89.07024141700822,0,,,100001,001,2023-04-14_09h54.24.039,DMS_etROI_12-36_stimBlast,2022.2.4,None,
stimBlast2,40,0,0.1,0.4690971631739732,0.7,0.1,20,PRED,12,0.4690971631739732,2,images/picture_3.png,images/picture_1.png,0,"[-11.733433509789462, 11.733433509789464]",-11.733433509789462,11.733433509789464,images/picture_2.png,1,"[11.733433509789462, -11.733433509789466]",11.733433509789462,-11.733433509789464,images/picture_3.png,2,"[-11.733433509789466, -11.733433509789462]",-11.733433509789464,-11.733433509789462,images/picture_3.png,2,"[-11.733433509789466, -11.733433509789462]","[-11.733433509789466, -11.733433509789462]","[-11.733433509789466, -11.733433509789462]",0.1,0.4690971631739732,0.5690971631739732,0.23090283682602675,0.7999999999999999,0.3190971631739732,0,0.8999999999999999,0.7999999999999999,0.1,0,0,0,0,0,37,37,20,,,,,,,89.07024141700822,89.07024141700822,89.18467141699512,89.40420516699669,89.6177190419985,89.6177190419985,89.6177190419985,89.6177190419985,89.85103812499437,89.85103812499437,89.85103812499437,89.85103812499437,89.85103812499437,89.97004350001225,0,,,100001,001,2023-04-14_09h54.24.039,DMS_etROI_12-36_stimBlast,2022.2.4,None,
stimBlast2,40,0,0.1,0.4690971631739732,0.7,0.1,38,PRED,12,0.4690971631739732,2,images/picture_3.png,images/picture_1.png,0,"[-11.733433509789462, 11.733433509789464]",-11.733433509789462,11.733433509789464,images/picture_2.png,1,"[-11.733433509789466, -11.733433509789462]",-11.733433509789464,-11.733433509789462,images/picture_3.png,2,"[11.733433509789464, 11.733433509789462]",11.733433509789464,11.733433509789462,images/picture_3.png,2,"[11.733433509789464, 11.733433509789462]","[11.733433509789464, 11.733433509789462]","[11.733433509789464, 11.733433509789462]",0.1,0.4690971631739732,0.5690971631739732,0.23090283682602675,0.7999999999999999,0.3190971631739732,0,0.8999999999999999,0.7999999999999999,0.1,0,0,0,0,0,38,38,38,,,,,,,89.97004350001225,89.97004350001225,90.08461225000792,90.30397983299918,90.51770741702057,90.51770741702057,90.51770741702057,90.51770741702057,90.75070679199416,90.75070679199416,90.75070679199416,90.75070679199416,90.75070679199416,90.87103025001124,0,,,100001,001,2023-04-14_09h54.24.039,DMS_etROI_12-36_stimBlast,2022.2.4,None,
stimBlast2,40,0,0.1,0.4690971631739732,0.7,0.1,22,PRED,12,0.4690971631739732,2,images/picture_3.png,images/picture_1.png,0,"[-11.733433509789466, -11.733433509789462]",-11.733433509789464,-11.733433509789462,images/picture_2.png,1,"[11.733433509789464, 11.733433509789462]",11.733433509789464,11.733433509789462,images/picture_3.png,2,"[11.733433509789462, -11.733433509789466]",11.733433509789462,-11.733433509789464,images/picture_3.png,2,"[11.733433509789462, -11.733433509789466]","[11.733433509789462, -11.733433509789466]","[11.733433509789462, -11.733433509789466]",0.1,0.4690971631739732,0.5690971631739732,0.23090283682602675,0.7999999999999999,0.3190971631739732,0,0.8999999999999999,0.7999999999999999,0.1,0,0,0,0,0,39,39,22,,,,,,,90.87103025001124,90.87103025001124,90.98455112500233,91.20423629201832,91.41800458301441,91.41800458301441,91.41800458301441,91.41800458301441,91.65134112501983,91.65134112501983,91.65134112501983,91.65134112501983,91.65134112501983,91.97364862501854,0,,,100001,001,2023-04-14_09h54.24.039,DMS_etROI_12-36_stimBlast,2022.2.4,None,
,,,,,,,,,,,,,,,,,,,,,,,,,,,,,,,,,,,,,,,,,,,0,0,0,0,,,,,,,,,91.97364862501854,104.01724820799427,,,,,,,,,,,,,,,,,,100001,001,2023-04-14_09h54.24.039,DMS_etROI_12-36_stimBlast,2022.2.4,None,
stimBlast2,40,0,0.1,0.4690971631739732,0.7,0.1,53,UNPRED,12,0.4690971631739732,0,images/picture_1.png,images/picture_1.png,0,"[11.733433509789462, -11.733433509789466]",11.733433509789462,-11.733433509789464,images/picture_2.png,1,"[11.733433509789464, 11.733433509789462]",11.733433509789464,11.733433509789462,images/picture_3.png,2,"[-11.733433509789462, 11.733433509789464]",-11.733433509789462,11.733433509789464,images/picture_1.png,0,"[11.733433509789462, -11.733433509789466]","[11.733433509789462, -11.733433509789466]","[11.733433509789462, -11.733433509789466]",0.1,0.4690971631739732,0.5690971631739732,0.23090283682602675,0.7999999999999999,0.3190971631739732,0,0.8999999999999999,0.7999999999999999,0.1,1,0,1,0,0,0,0,13,,,,,,,104.01724820799427,104.01724820799427,104.11780112501583,104.35137912500068,104.58461279200856,104.58461279200856,104.58461279200856,104.58461279200856,104.81845812499523,104.81845812499523,104.81845812499523,104.81845812499523,104.81845812499523,104.93704466699273,0,,,100001,001,2023-04-14_09h54.24.039,DMS_etROI_12-36_stimBlast,2022.2.4,None,
stimBlast2,40,0,0.1,0.4690971631739732,0.7,0.1,48,UNPRED,12,0.4690971631739732,2,images/picture_3.png,images/picture_1.png,0,"[-11.733433509789466, -11.733433509789462]",-11.733433509789464,-11.733433509789462,images/picture_2.png,1,"[11.733433509789464, 11.733433509789462]",11.733433509789464,11.733433509789462,images/picture_3.png,2,"[-11.733433509789462, 11.733433509789464]",-11.733433509789462,11.733433509789464,images/picture_3.png,2,"[-11.733433509789462, 11.733433509789464]","[-11.733433509789462, 11.733433509789464]","[-11.733433509789462, 11.733433509789464]",0.1,0.4690971631739732,0.5690971631739732,0.23090283682602675,0.7999999999999999,0.3190971631739732,0,0.8999999999999999,0.7999999999999999,0.1,1,0,1,0,0,1,1,8,,,,,,,104.93704466699273,104.93704466699273,105.05146499999682,105.27158270799555,105.48469683300937,105.48469683300937,105.48469683300937,105.48469683300937,105.71806012501474,105.71806012501474,105.71806012501474,105.71806012501474,105.71806012501474,105.8180512500112,0,,,100001,001,2023-04-14_09h54.24.039,DMS_etROI_12-36_stimBlast,2022.2.4,None,
stimBlast2,40,0,0.1,0.4690971631739732,0.7,0.1,42,UNPRED,12,0.4690971631739732,0,images/picture_1.png,images/picture_1.png,0,"[-11.733433509789466, -11.733433509789462]",-11.733433509789464,-11.733433509789462,images/picture_2.png,1,"[-11.733433509789462, 11.733433509789464]",-11.733433509789462,11.733433509789464,images/picture_3.png,2,"[11.733433509789462, -11.733433509789466]",11.733433509789462,-11.733433509789464,images/picture_1.png,0,"[-11.733433509789466, -11.733433509789462]","[-11.733433509789466, -11.733433509789462]","[-11.733433509789466, -11.733433509789462]",0.1,0.4690971631739732,0.5690971631739732,0.23090283682602675,0.7999999999999999,0.3190971631739732,0,0.8999999999999999,0.7999999999999999,0.1,1,0,1,0,0,2,2,2,,,,,,,105.8180512500112,105.8180512500112,105.91813700000057,106.15144916699501,106.3845242499956,106.3845242499956,106.3845242499956,106.3845242499956,106.61806095801876,106.61806095801876,106.61806095801876,106.61806095801876,106.61806095801876,106.73751150001772,0,,,100001,001,2023-04-14_09h54.24.039,DMS_etROI_12-36_stimBlast,2022.2.4,None,
stimBlast2,40,0,0.1,0.4690971631739732,0.7,0.1,79,UNPRED,12,0.4690971631739732,1,images/picture_2.png,images/picture_1.png,0,"[11.733433509789462, -11.733433509789466]",11.733433509789462,-11.733433509789464,images/picture_2.png,1,"[-11.733433509789466, -11.733433509789462]",-11.733433509789464,-11.733433509789462,images/picture_3.png,2,"[-11.733433509789462, 11.733433509789464]",-11.733433509789462,11.733433509789464,images/picture_2.png,1,"[-11.733433509789466, -11.733433509789462]","[-11.733433509789466, -11.733433509789462]","[-11.733433509789466, -11.733433509789462]",0.1,0.4690971631739732,0.5690971631739732,0.23090283682602675,0.7999999999999999,0.3190971631739732,0,0.8999999999999999,0.7999999999999999,0.1,1,0,1,0,0,3,3,39,,,,,,,106.73751150001772,106.73751150001772,106.85145541699603,107.07090950000565,107.28452225000365,107.28452225000365,107.28452225000365,107.28452225000365,107.51816604202031,107.51816604202031,107.51816604202031,107.51816604202031,107.51816604202031,107.63724104201538,0,,,100001,001,2023-04-14_09h54.24.039,DMS_etROI_12-36_stimBlast,2022.2.4,None,
stimBlast2,40,0,0.1,0.4690971631739732,0.7,0.1,73,UNPRED,12,0.4690971631739732,2,images/picture_3.png,images/picture_1.png,0,"[11.733433509789462, -11.733433509789466]",11.733433509789462,-11.733433509789464,images/picture_2.png,1,"[-11.733433509789462, 11.733433509789464]",-11.733433509789462,11.733433509789464,images/picture_3.png,2,"[11.733433509789464, 11.733433509789462]",11.733433509789464,11.733433509789462,images/picture_3.png,2,"[11.733433509789464, 11.733433509789462]","[11.733433509789464, 11.733433509789462]","[11.733433509789464, 11.733433509789462]",0.1,0.4690971631739732,0.5690971631739732,0.23090283682602675,0.7999999999999999,0.3190971631739732,0,0.8999999999999999,0.7999999999999999,0.1,1,0,1,0,0,4,4,33,,,,,,,107.63724104201538,107.63724104201538,107.75149349999265,107.97085199999856,108.18467762501677,108.18467762501677,108.18467762501677,108.18467762501677,108.41806629201164,108.41806629201164,108.41806629201164,108.41806629201164,108.41806629201164,108.5371553330042,0,,,100001,001,2023-04-14_09h54.24.039,DMS_etROI_12-36_stimBlast,2022.2.4,None,
stimBlast2,40,0,0.1,0.4690971631739732,0.7,0.1,69,UNPRED,12,0.4690971631739732,2,images/picture_3.png,images/picture_1.png,0,"[11.733433509789462, -11.733433509789466]",11.733433509789462,-11.733433509789464,images/picture_2.png,1,"[-11.733433509789466, -11.733433509789462]",-11.733433509789464,-11.733433509789462,images/picture_3.png,2,"[11.733433509789464, 11.733433509789462]",11.733433509789464,11.733433509789462,images/picture_3.png,2,"[11.733433509789464, 11.733433509789462]","[11.733433509789464, 11.733433509789462]","[11.733433509789464, 11.733433509789462]",0.1,0.4690971631739732,0.5690971631739732,0.23090283682602675,0.7999999999999999,0.3190971631739732,0,0.8999999999999999,0.7999999999999999,0.1,1,0,1,0,0,5,5,29,,,,,,,108.5371553330042,108.5371553330042,108.6509811670112,108.87070937501267,109.08447475000867,109.08447475000867,109.08447475000867,109.08447475000867,109.31811695802025,109.31811695802025,109.31811695802025,109.31811695802025,109.31811695802025,109.41813333300524,0,,,100001,001,2023-04-14_09h54.24.039,DMS_etROI_12-36_stimBlast,2022.2.4,None,
stimBlast2,40,0,0.1,0.4690971631739732,0.7,0.1,57,UNPRED,12,0.4690971631739732,0,images/picture_1.png,images/picture_1.png,0,"[11.733433509789464, 11.733433509789462]",11.733433509789464,11.733433509789462,images/picture_2.png,1,"[-11.733433509789462, 11.733433509789464]",-11.733433509789462,11.733433509789464,images/picture_3.png,2,"[-11.733433509789466, -11.733433509789462]",-11.733433509789464,-11.733433509789462,images/picture_1.png,0,"[11.733433509789464, 11.733433509789462]","[11.733433509789464, 11.733433509789462]","[11.733433509789464, 11.733433509789462]",0.1,0.4690971631739732,0.5690971631739732,0.23090283682602675,0.7999999999999999,0.3190971631739732,0,0.8999999999999999,0.7999999999999999,0.1,1,0,1,0,0,6,6,17,,,,,,,109.41813333300524,109.41813333300524,109.51794129199698,109.75142729200888,109.98448099999223,109.98448099999223,109.98448099999223,109.98448099999223,110.21817445801571,110.21817445801571,110.21817445801571,110.21817445801571,110.21817445801571,110.33731966701453,0,,,100001,001,2023-04-14_09h54.24.039,DMS_etROI_12-36_stimBlast,2022.2.4,None,
stimBlast2,40,0,0.1,0.4690971631739732,0.7,0.1,49,UNPRED,12,0.4690971631739732,2,images/picture_3.png,images/picture_1.png,0,"[-11.733433509789466, -11.733433509789462]",-11.733433509789464,-11.733433509789462,images/picture_2.png,1,"[-11.733433509789462, 11.733433509789464]",-11.733433509789462,11.733433509789464,images/picture_3.png,2,"[11.733433509789462, -11.733433509789466]",11.733433509789462,-11.733433509789464,images/picture_3.png,2,"[11.733433509789462, -11.733433509789466]","[11.733433509789462, -11.733433509789466]","[11.733433509789462, -11.733433509789466]",0.1,0.4690971631739732,0.5690971631739732,0.23090283682602675,0.7999999999999999,0.3190971631739732,0,0.8999999999999999,0.7999999999999999,0.1,1,0,1,0,0,7,7,9,,,,,,,110.33731966701453,110.33731966701453,110.45140979200369,110.6708672500099,110.88448783301283,110.88448783301283,110.88448783301283,110.88448783301283,111.11812270799419,111.11812270799419,111.11812270799419,111.11812270799419,111.11812270799419,111.21737154200673,0,,,100001,001,2023-04-14_09h54.24.039,DMS_etROI_12-36_stimBlast,2022.2.4,None,
stimBlast2,40,0,0.1,0.4690971631739732,0.7,0.1,50,UNPRED,12,0.4690971631739732,0,images/picture_1.png,images/picture_1.png,0,"[11.733433509789464, 11.733433509789462]",11.733433509789464,11.733433509789462,images/picture_2.png,1,"[11.733433509789462, -11.733433509789466]",11.733433509789462,-11.733433509789464,images/picture_3.png,2,"[-11.733433509789466, -11.733433509789462]",-11.733433509789464,-11.733433509789462,images/picture_1.png,0,"[11.733433509789464, 11.733433509789462]","[11.733433509789464, 11.733433509789462]","[11.733433509789464, 11.733433509789462]",0.1,0.4690971631739732,0.5690971631739732,0.23090283682602675,0.7999999999999999,0.3190971631739732,0,0.8999999999999999,0.7999999999999999,0.1,1,0,1,0,0,8,8,10,,,,,,,111.21737154200673,111.21737154200673,111.31812687500496,111.55146704200888,111.78443545801565,111.78443545801565,111.78443545801565,111.78443545801565,112.01829004200408,112.01829004200408,112.01829004200408,112.01829004200408,112.01829004200408,112.11750366701744,0,,,100001,001,2023-04-14_09h54.24.039,DMS_etROI_12-36_stimBlast,2022.2.4,None,
stimBlast2,40,0,0.1,0.4690971631739732,0.7,0.1,55,UNPRED,12,0.4690971631739732,0,images/picture_1.png,images/picture_1.png,0,"[11.733433509789464, 11.733433509789462]",11.733433509789464,11.733433509789462,images/picture_2.png,1,"[11.733433509789462, -11.733433509789466]",11.733433509789462,-11.733433509789464,images/picture_3.png,2,"[-11.733433509789466, -11.733433509789462]",-11.733433509789464,-11.733433509789462,images/picture_1.png,0,"[11.733433509789464, 11.733433509789462]","[11.733433509789464, 11.733433509789462]","[11.733433509789464, 11.733433509789462]",0.1,0.4690971631739732,0.5690971631739732,0.23090283682602675,0.7999999999999999,0.3190971631739732,0,0.8999999999999999,0.7999999999999999,0.1,1,0,1,0,0,9,9,15,,,,,,,112.11750366701744,112.11750366701744,112.21813404199202,112.45144608299597,112.68456041699392,112.68456041699392,112.68456041699392,112.68456041699392,112.9177924169926,112.9177924169926,112.9177924169926,112.9177924169926,112.9177924169926,113.03676916699624,0,,,100001,001,2023-04-14_09h54.24.039,DMS_etROI_12-36_stimBlast,2022.2.4,None,
stimBlast2,40,0,0.1,0.4690971631739732,0.7,0.1,74,UNPRED,12,0.4690971631739732,2,images/picture_3.png,images/picture_1.png,0,"[-11.733433509789466, -11.733433509789462]",-11.733433509789464,-11.733433509789462,images/picture_2.png,1,"[-11.733433509789462, 11.733433509789464]",-11.733433509789462,11.733433509789464,images/picture_3.png,2,"[11.733433509789462, -11.733433509789466]",11.733433509789462,-11.733433509789464,images/picture_3.png,2,"[11.733433509789462, -11.733433509789466]","[11.733433509789462, -11.733433509789466]","[11.733433509789462, -11.733433509789466]",0.1,0.4690971631739732,0.5690971631739732,0.23090283682602675,0.7999999999999999,0.3190971631739732,0,0.8999999999999999,0.7999999999999999,0.1,1,0,1,0,0,10,10,34,,,,,,,113.03676916699624,113.03676916699624,113.15134658300667,113.37025183299556,113.58434950001538,113.58434950001538,113.58434950001538,113.58434950001538,113.81798391701886,113.81798391701886,113.81798391701886,113.81798391701886,113.81798391701886,113.93691750001744,0,,,100001,001,2023-04-14_09h54.24.039,DMS_etROI_12-36_stimBlast,2022.2.4,None,
stimBlast2,40,0,0.1,0.4690971631739732,0.7,0.1,47,UNPRED,12,0.4690971631739732,2,images/picture_3.png,images/picture_1.png,0,"[11.733433509789464, 11.733433509789462]",11.733433509789464,11.733433509789462,images/picture_2.png,1,"[-11.733433509789466, -11.733433509789462]",-11.733433509789464,-11.733433509789462,images/picture_3.png,2,"[-11.733433509789462, 11.733433509789464]",-11.733433509789462,11.733433509789464,images/picture_3.png,2,"[-11.733433509789462, 11.733433509789464]","[-11.733433509789462, 11.733433509789464]","[-11.733433509789462, 11.733433509789464]",0.1,0.4690971631739732,0.5690971631739732,0.23090283682602675,0.7999999999999999,0.3190971631739732,0,0.8999999999999999,0.7999999999999999,0.1,1,0,1,0,0,11,11,7,,,,,,,113.93691750001744,113.93691750001744,114.0513853750017,114.27105729200412,114.48451158299576,114.48451158299576,114.48451158299576,114.48451158299576,114.71812595799565,114.71812595799565,114.71812595799565,114.71812595799565,114.71812595799565,114.8178943330131,0,,,100001,001,2023-04-14_09h54.24.039,DMS_etROI_12-36_stimBlast,2022.2.4,None,
stimBlast2,40,0,0.1,0.4690971631739732,0.7,0.1,65,UNPRED,12,0.4690971631739732,0,images/picture_1.png,images/picture_1.png,0,"[11.733433509789464, 11.733433509789462]",11.733433509789464,11.733433509789462,images/picture_2.png,1,"[11.733433509789462, -11.733433509789466]",11.733433509789462,-11.733433509789464,images/picture_3.png,2,"[-11.733433509789462, 11.733433509789464]",-11.733433509789462,11.733433509789464,images/picture_1.png,0,"[11.733433509789464, 11.733433509789462]","[11.733433509789464, 11.733433509789462]","[11.733433509789464, 11.733433509789462]",0.1,0.4690971631739732,0.5690971631739732,0.23090283682602675,0.7999999999999999,0.3190971631739732,0,0.8999999999999999,0.7999999999999999,0.1,1,0,1,0,0,12,12,25,,,,,,,114.8178943330131,114.8178943330131,114.91818070801673,115.15142999999807,115.38447820799774,115.38447820799774,115.38447820799774,115.38447820799774,115.61810695801978,115.61810695801978,115.61810695801978,115.61810695801978,115.61810695801978,115.71878308299347,0,,,100001,001,2023-04-14_09h54.24.039,DMS_etROI_12-36_stimBlast,2022.2.4,None,
stimBlast2,40,0,0.1,0.4690971631739732,0.7,0.1,61,UNPRED,12,0.4690971631739732,1,images/picture_2.png,images/picture_1.png,0,"[11.733433509789464, 11.733433509789462]",11.733433509789464,11.733433509789462,images/picture_2.png,1,"[-11.733433509789466, -11.733433509789462]",-11.733433509789464,-11.733433509789462,images/picture_3.png,2,"[-11.733433509789462, 11.733433509789464]",-11.733433509789462,11.733433509789464,images/picture_2.png,1,"[-11.733433509789466, -11.733433509789462]","[-11.733433509789466, -11.733433509789462]","[-11.733433509789466, -11.733433509789462]",0.1,0.4690971631739732,0.5690971631739732,0.23090283682602675,0.7999999999999999,0.3190971631739732,0,0.8999999999999999,0.7999999999999999,0.1,1,0,1,0,0,13,13,21,,,,,,,115.71878308299347,115.71878308299347,115.81812762501067,116.05139812501147,116.28427820801153,116.28427820801153,116.28427820801153,116.28427820801153,116.51808112501749,116.51808112501749,116.51808112501749,116.51808112501749,116.51808112501749,116.61701833299594,0,,,100001,001,2023-04-14_09h54.24.039,DMS_etROI_12-36_stimBlast,2022.2.4,None,
stimBlast2,40,0,0.1,0.4690971631739732,0.7,0.1,70,UNPRED,12,0.4690971631739732,0,images/picture_1.png,images/picture_1.png,0,"[11.733433509789464, 11.733433509789462]",11.733433509789464,11.733433509789462,images/picture_2.png,1,"[-11.733433509789466, -11.733433509789462]",-11.733433509789464,-11.733433509789462,images/picture_3.png,2,"[-11.733433509789462, 11.733433509789464]",-11.733433509789462,11.733433509789464,images/picture_1.png,0,"[11.733433509789464, 11.733433509789462]","[11.733433509789464, 11.733433509789462]","[11.733433509789464, 11.733433509789462]",0.1,0.4690971631739732,0.5690971631739732,0.23090283682602675,0.7999999999999999,0.3190971631739732,0,0.8999999999999999,0.7999999999999999,0.1,1,0,1,0,0,14,14,30,,,,,,,116.61701833299594,116.61701833299594,116.71816291700816,116.95141941701877,117.18452712500584,117.18452712500584,117.18452712500584,117.18452712500584,117.4181740420172,117.4181740420172,117.4181740420172,117.4181740420172,117.4181740420172,117.51758629200049,0,,,100001,001,2023-04-14_09h54.24.039,DMS_etROI_12-36_stimBlast,2022.2.4,None,
stimBlast2,40,0,0.1,0.4690971631739732,0.7,0.1,66,UNPRED,12,0.4690971631739732,0,images/picture_1.png,images/picture_1.png,0,"[-11.733433509789462, 11.733433509789464]",-11.733433509789462,11.733433509789464,images/picture_2.png,1,"[-11.733433509789466, -11.733433509789462]",-11.733433509789464,-11.733433509789462,images/picture_3.png,2,"[11.733433509789462, -11.733433509789466]",11.733433509789462,-11.733433509789464,images/picture_1.png,0,"[-11.733433509789462, 11.733433509789464]","[-11.733433509789462, 11.733433509789464]","[-11.733433509789462, 11.733433509789464]",0.1,0.4690971631739732,0.5690971631739732,0.23090283682602675,0.7999999999999999,0.3190971631739732,0,0.8999999999999999,0.7999999999999999,0.1,1,0,1,0,0,15,15,26,,,,,,,117.51758629200049,117.51758629200049,117.61815704201581,117.85143316700123,118.08452362500248,118.08452362500248,118.08452362500248,118.08452362500248,118.31790458300384,118.31790458300384,118.31790458300384,118.31790458300384,118.31790458300384,118.41773262500647,0,,,100001,001,2023-04-14_09h54.24.039,DMS_etROI_12-36_stimBlast,2022.2.4,None,
stimBlast2,40,0,0.1,0.4690971631739732,0.7,0.1,76,UNPRED,12,0.4690971631739732,0,images/picture_1.png,images/picture_1.png,0,"[-11.733433509789462, 11.733433509789464]",-11.733433509789462,11.733433509789464,images/picture_2.png,1,"[11.733433509789464, 11.733433509789462]",11.733433509789464,11.733433509789462,images/picture_3.png,2,"[-11.733433509789466, -11.733433509789462]",-11.733433509789464,-11.733433509789462,images/picture_1.png,0,"[-11.733433509789462, 11.733433509789464]","[-11.733433509789462, 11.733433509789464]","[-11.733433509789462, 11.733433509789464]",0.1,0.4690971631739732,0.5690971631739732,0.23090283682602675,0.7999999999999999,0.3190971631739732,0,0.8999999999999999,0.7999999999999999,0.1,1,0,1,0,0,16,16,36,,,,,,,118.41773262500647,118.41773262500647,118.51836416701553,118.75142862499342,118.98452612501569,118.98452612501569,118.98452612501569,118.98452612501569,119.21810929200728,119.21810929200728,119.21810929200728,119.21810929200728,119.21810929200728,119.31807766700513,0,,,100001,001,2023-04-14_09h54.24.039,DMS_etROI_12-36_stimBlast,2022.2.4,None,
stimBlast2,40,0,0.1,0.4690971631739732,0.7,0.1,72,UNPRED,12,0.4690971631739732,0,images/picture_1.png,images/picture_1.png,0,"[-11.733433509789462, 11.733433509789464]",-11.733433509789462,11.733433509789464,images/picture_2.png,1,"[11.733433509789464, 11.733433509789462]",11.733433509789464,11.733433509789462,images/picture_3.png,2,"[-11.733433509789466, -11.733433509789462]",-11.733433509789464,-11.733433509789462,images/picture_1.png,0,"[-11.733433509789462, 11.733433509789464]","[-11.733433509789462, 11.733433509789464]","[-11.733433509789462, 11.733433509789464]",0.1,0.4690971631739732,0.5690971631739732,0.23090283682602675,0.7999999999999999,0.3190971631739732,0,0.8999999999999999,0.7999999999999999,0.1,1,0,1,0,0,17,17,32,,,,,,,119.31807766700513,119.31807766700513,119.41809345799265,119.65142150002066,119.88464699999895,119.88464699999895,119.88464699999895,119.88464699999895,120.11824125002022,120.11824125002022,120.11824125002022,120.11824125002022,120.11824125002022,120.21786879200954,0,,,100001,001,2023-04-14_09h54.24.039,DMS_etROI_12-36_stimBlast,2022.2.4,None,
stimBlast2,40,0,0.1,0.4690971631739732,0.7,0.1,46,UNPRED,12,0.4690971631739732,1,images/picture_2.png,images/picture_1.png,0,"[11.733433509789464, 11.733433509789462]",11.733433509789464,11.733433509789462,images/picture_2.png,1,"[-11.733433509789466, -11.733433509789462]",-11.733433509789464,-11.733433509789462,images/picture_3.png,2,"[11.733433509789462, -11.733433509789466]",11.733433509789462,-11.733433509789464,images/picture_2.png,1,"[-11.733433509789466, -11.733433509789462]","[-11.733433509789466, -11.733433509789462]","[-11.733433509789466, -11.733433509789462]",0.1,0.4690971631739732,0.5690971631739732,0.23090283682602675,0.7999999999999999,0.3190971631739732,0,0.8999999999999999,0.7999999999999999,0.1,1,0,1,0,0,18,18,6,,,,,,,120.21786879200954,120.21786879200954,120.31813754199538,120.55141716700746,120.78488670801744,120.78488670801744,120.78488670801744,120.78488670801744,121.0181808329944,121.0181808329944,121.0181808329944,121.0181808329944,121.0181808329944,121.11728025000775,0,,,100001,001,2023-04-14_09h54.24.039,DMS_etROI_12-36_stimBlast,2022.2.4,None,
stimBlast2,40,0,0.1,0.4690971631739732,0.7,0.1,67,UNPRED,12,0.4690971631739732,1,images/picture_2.png,images/picture_1.png,0,"[11.733433509789462, -11.733433509789466]",11.733433509789462,-11.733433509789464,images/picture_2.png,1,"[11.733433509789464, 11.733433509789462]",11.733433509789464,11.733433509789462,images/picture_3.png,2,"[-11.733433509789466, -11.733433509789462]",-11.733433509789464,-11.733433509789462,images/picture_2.png,1,"[11.733433509789464, 11.733433509789462]","[11.733433509789464, 11.733433509789462]","[11.733433509789464, 11.733433509789462]",0.1,0.4690971631739732,0.5690971631739732,0.23090283682602675,0.7999999999999999,0.3190971631739732,0,0.8999999999999999,0.7999999999999999,0.1,1,0,1,0,0,19,19,27,,,,,,,121.11728025000775,121.11728025000775,121.21813083300367,121.45140195800923,121.68447900001775,121.68447900001775,121.68447900001775,121.68447900001775,121.91816274999292,121.91816274999292,121.91816274999292,121.91816274999292,121.91816274999292,122.01686783300829,0,,,100001,001,2023-04-14_09h54.24.039,DMS_etROI_12-36_stimBlast,2022.2.4,None,
stimBlast2,40,0,0.1,0.4690971631739732,0.7,0.1,56,UNPRED,12,0.4690971631739732,0,images/picture_1.png,images/picture_1.png,0,"[11.733433509789464, 11.733433509789462]",11.733433509789464,11.733433509789462,images/picture_2.png,1,"[-11.733433509789466, -11.733433509789462]",-11.733433509789464,-11.733433509789462,images/picture_3.png,2,"[-11.733433509789462, 11.733433509789464]",-11.733433509789462,11.733433509789464,images/picture_1.png,0,"[11.733433509789464, 11.733433509789462]","[11.733433509789464, 11.733433509789462]","[11.733433509789464, 11.733433509789462]",0.1,0.4690971631739732,0.5690971631739732,0.23090283682602675,0.7999999999999999,0.3190971631739732,0,0.8999999999999999,0.7999999999999999,0.1,1,0,1,0,0,20,20,16,,,,,,,122.01686783300829,122.01686783300829,122.11812954201014,122.35136429200065,122.58493833302055,122.58493833302055,122.58493833302055,122.58493833302055,122.8178679170087,122.8178679170087,122.8178679170087,122.8178679170087,122.8178679170087,122.93750829200144,0,,,100001,001,2023-04-14_09h54.24.039,DMS_etROI_12-36_stimBlast,2022.2.4,None,
stimBlast2,40,0,0.1,0.4690971631739732,0.7,0.1,71,UNPRED,12,0.4690971631739732,2,images/picture_3.png,images/picture_1.png,0,"[11.733433509789464, 11.733433509789462]",11.733433509789464,11.733433509789462,images/picture_2.png,1,"[-11.733433509789466, -11.733433509789462]",-11.733433509789464,-11.733433509789462,images/picture_3.png,2,"[-11.733433509789462, 11.733433509789464]",-11.733433509789462,11.733433509789464,images/picture_3.png,2,"[-11.733433509789462, 11.733433509789464]","[-11.733433509789462, 11.733433509789464]","[-11.733433509789462, 11.733433509789464]",0.1,0.4690971631739732,0.5690971631739732,0.23090283682602675,0.7999999999999999,0.3190971631739732,0,0.8999999999999999,0.7999999999999999,0.1,1,0,1,0,0,21,21,31,,,,,,,122.93750829200144,122.93750829200144,123.05134658300085,123.27037683301023,123.48468395799864,123.48468395799864,123.48468395799864,123.48468395799864,123.71788554202067,123.71788554202067,123.71788554202067,123.71788554202067,123.71788554202067,123.81782387499698,0,,,100001,001,2023-04-14_09h54.24.039,DMS_etROI_12-36_stimBlast,2022.2.4,None,
stimBlast2,40,0,0.1,0.4690971631739732,0.7,0.1,64,UNPRED,12,0.4690971631739732,0,images/picture_1.png,images/picture_1.png,0,"[-11.733433509789462, 11.733433509789464]",-11.733433509789462,11.733433509789464,images/picture_2.png,1,"[11.733433509789462, -11.733433509789466]",11.733433509789462,-11.733433509789464,images/picture_3.png,2,"[11.733433509789464, 11.733433509789462]",11.733433509789464,11.733433509789462,images/picture_1.png,0,"[-11.733433509789462, 11.733433509789464]","[-11.733433509789462, 11.733433509789464]","[-11.733433509789462, 11.733433509789464]",0.1,0.4690971631739732,0.5690971631739732,0.23090283682602675,0.7999999999999999,0.3190971631739732,0,0.8999999999999999,0.7999999999999999,0.1,1,0,1,0,0,22,22,24,,,,,,,123.81782387499698,123.81782387499698,123.91793100000359,124.15143887500744,124.38470870800666,124.38470870800666,124.38470870800666,124.38470870800666,124.61819562499295,124.61819562499295,124.61819562499295,124.61819562499295,124.61819562499295,124.71850804201677,0,,,100001,001,2023-04-14_09h54.24.039,DMS_etROI_12-36_stimBlast,2022.2.4,None,
stimBlast2,40,0,0.1,0.4690971631739732,0.7,0.1,77,UNPRED,12,0.4690971631739732,1,images/picture_2.png,images/picture_1.png,0,"[11.733433509789464, 11.733433509789462]",11.733433509789464,11.733433509789462,images/picture_2.png,1,"[11.733433509789462, -11.733433509789466]",11.733433509789462,-11.733433509789464,images/picture_3.png,2,"[-11.733433509789466, -11.733433509789462]",-11.733433509789464,-11.733433509789462,images/picture_2.png,1,"[11.733433509789462, -11.733433509789466]","[11.733433509789462, -11.733433509789466]","[11.733433509789462, -11.733433509789466]",0.1,0.4690971631739732,0.5690971631739732,0.23090283682602675,0.7999999999999999,0.3190971631739732,0,0.8999999999999999,0.7999999999999999,0.1,1,0,1,0,0,23,23,37,,,,,,,124.71850804201677,124.71850804201677,124.81820100001642,125.05146124999737,125.28450700000394,125.28450700000394,125.28450700000394,125.28450700000394,125.51818337501027,125.51818337501027,125.51818337501027,125.51818337501027,125.51818337501027,125.61749083301402,0,,,100001,001,2023-04-14_09h54.24.039,DMS_etROI_12-36_stimBlast,2022.2.4,None,
stimBlast2,40,0,0.1,0.4690971631739732,0.7,0.1,68,UNPRED,12,0.4690971631739732,1,images/picture_2.png,images/picture_1.png,0,"[11.733433509789464, 11.733433509789462]",11.733433509789464,11.733433509789462,images/picture_2.png,1,"[-11.733433509789462, 11.733433509789464]",-11.733433509789462,11.733433509789464,images/picture_3.png,2,"[11.733433509789462, -11.733433509789466]",11.733433509789462,-11.733433509789464,images/picture_2.png,1,"[-11.733433509789462, 11.733433509789464]","[-11.733433509789462, 11.733433509789464]","[-11.733433509789462, 11.733433509789464]",0.1,0.4690971631739732,0.5690971631739732,0.23090283682602675,0.7999999999999999,0.3190971631739732,0,0.8999999999999999,0.7999999999999999,0.1,1,0,1,0,0,24,24,28,,,,,,,125.61749083301402,125.61749083301402,125.7181473330129,125.95143841701793,126.18461374999606,126.18461374999606,126.18461374999606,126.18461374999606,126.41815520799719,126.41815520799719,126.41815520799719,126.41815520799719,126.41815520799719,126.51731825000024,0,,,100001,001,2023-04-14_09h54.24.039,DMS_etROI_12-36_stimBlast,2022.2.4,None,
stimBlast2,40,0,0.1,0.4690971631739732,0.7,0.1,63,UNPRED,12,0.4690971631739732,0,images/picture_1.png,images/picture_1.png,0,"[11.733433509789464, 11.733433509789462]",11.733433509789464,11.733433509789462,images/picture_2.png,1,"[-11.733433509789462, 11.733433509789464]",-11.733433509789462,11.733433509789464,images/picture_3.png,2,"[11.733433509789462, -11.733433509789466]",11.733433509789462,-11.733433509789464,images/picture_1.png,0,"[11.733433509789464, 11.733433509789462]","[11.733433509789464, 11.733433509789462]","[11.733433509789464, 11.733433509789462]",0.1,0.4690971631739732,0.5690971631739732,0.23090283682602675,0.7999999999999999,0.3190971631739732,0,0.8999999999999999,0.7999999999999999,0.1,1,0,1,0,0,25,25,23,,,,,,,126.51731825000024,126.51731825000024,126.61813054201775,126.85160245801671,127.08434200001648,127.08434200001648,127.08434200001648,127.08434200001648,127.31815391700366,127.31815391700366,127.31815391700366,127.31815391700366,127.31815391700366,127.4176236250205,0,,,100001,001,2023-04-14_09h54.24.039,DMS_etROI_12-36_stimBlast,2022.2.4,None,
stimBlast2,40,0,0.1,0.4690971631739732,0.7,0.1,78,UNPRED,12,0.4690971631739732,0,images/picture_1.png,images/picture_1.png,0,"[-11.733433509789466, -11.733433509789462]",-11.733433509789464,-11.733433509789462,images/picture_2.png,1,"[11.733433509789464, 11.733433509789462]",11.733433509789464,11.733433509789462,images/picture_3.png,2,"[-11.733433509789462, 11.733433509789464]",-11.733433509789462,11.733433509789464,images/picture_1.png,0,"[-11.733433509789466, -11.733433509789462]","[-11.733433509789466, -11.733433509789462]","[-11.733433509789466, -11.733433509789462]",0.1,0.4690971631739732,0.5690971631739732,0.23090283682602675,0.7999999999999999,0.3190971631739732,0,0.8999999999999999,0.7999999999999999,0.1,1,0,1,0,0,26,26,38,,,,,,,127.4176236250205,127.4176236250205,127.51820295801735,127.75181712501217,127.98462887501228,127.98462887501228,127.98462887501228,127.98462887501228,128.21819275000598,128.21819275000598,128.21819275000598,128.21819275000598,128.21819275000598,128.31770291700377,0,,,100001,001,2023-04-14_09h54.24.039,DMS_etROI_12-36_stimBlast,2022.2.4,None,
stimBlast2,40,0,0.1,0.4690971631739732,0.7,0.1,62,UNPRED,12,0.4690971631739732,0,images/picture_1.png,images/picture_1.png,0,"[-11.733433509789462, 11.733433509789464]",-11.733433509789462,11.733433509789464,images/picture_2.png,1,"[11.733433509789464, 11.733433509789462]",11.733433509789464,11.733433509789462,images/picture_3.png,2,"[11.733433509789462, -11.733433509789466]",11.733433509789462,-11.733433509789464,images/picture_1.png,0,"[-11.733433509789462, 11.733433509789464]","[-11.733433509789462, 11.733433509789464]","[-11.733433509789462, 11.733433509789464]",0.1,0.4690971631739732,0.5690971631739732,0.23090283682602675,0.7999999999999999,0.3190971631739732,0,0.8999999999999999,0.7999999999999999,0.1,1,0,1,0,0,27,27,22,,,,,,,128.31770291700377,128.31770291700377,128.41815562499687,128.65215354200336,128.88456504201167,128.88456504201167,128.88456504201167,128.88456504201167,129.11815891700098,129.11815891700098,129.11815891700098,129.11815891700098,129.11815891700098,129.21775754200644,0,,,100001,001,2023-04-14_09h54.24.039,DMS_etROI_12-36_stimBlast,2022.2.4,None,
stimBlast2,40,0,0.1,0.4690971631739732,0.7,0.1,43,UNPRED,12,0.4690971631739732,0,images/picture_1.png,images/picture_1.png,0,"[-11.733433509789462, 11.733433509789464]",-11.733433509789462,11.733433509789464,images/picture_2.png,1,"[11.733433509789464, 11.733433509789462]",11.733433509789464,11.733433509789462,images/picture_3.png,2,"[11.733433509789462, -11.733433509789466]",11.733433509789462,-11.733433509789464,images/picture_1.png,0,"[-11.733433509789462, 11.733433509789464]","[-11.733433509789462, 11.733433509789464]","[-11.733433509789462, 11.733433509789464]",0.1,0.4690971631739732,0.5690971631739732,0.23090283682602675,0.7999999999999999,0.3190971631739732,0,0.8999999999999999,0.7999999999999999,0.1,1,0,1,0,0,28,28,3,,,,,,,129.21775754200644,129.21775754200644,129.3181318330171,129.5516250829969,129.78468541702023,129.78468541702023,129.78468541702023,129.78468541702023,130.01815333301784,130.01815333301784,130.01815333301784,130.01815333301784,130.01815333301784,130.1372742500098,0,,,100001,001,2023-04-14_09h54.24.039,DMS_etROI_12-36_stimBlast,2022.2.4,None,
stimBlast2,40,0,0.1,0.4690971631739732,0.7,0.1,54,UNPRED,12,0.4690971631739732,2,images/picture_3.png,images/picture_1.png,0,"[11.733433509789464, 11.733433509789462]",11.733433509789464,11.733433509789462,images/picture_2.png,1,"[11.733433509789462, -11.733433509789466]",11.733433509789462,-11.733433509789464,images/picture_3.png,2,"[-11.733433509789466, -11.733433509789462]",-11.733433509789464,-11.733433509789462,images/picture_3.png,2,"[-11.733433509789466, -11.733433509789462]","[-11.733433509789466, -11.733433509789462]","[-11.733433509789466, -11.733433509789462]",0.1,0.4690971631739732,0.5690971631739732,0.23090283682602675,0.7999999999999999,0.3190971631739732,0,0.8999999999999999,0.7999999999999999,0.1,1,0,1,0,0,29,29,14,,,,,,,130.1372742500098,130.1372742500098,130.2516810420202,130.47086141700856,130.68495804199483,130.68495804199483,130.68495804199483,130.68495804199483,130.91821062500821,130.91821062500821,130.91821062500821,130.91821062500821,130.91821062500821,131.03734116701526,0,,,100001,001,2023-04-14_09h54.24.039,DMS_etROI_12-36_stimBlast,2022.2.4,None,
stimBlast2,40,0,0.1,0.4690971631739732,0.7,0.1,59,UNPRED,12,0.4690971631739732,2,images/picture_3.png,images/picture_1.png,0,"[11.733433509789464, 11.733433509789462]",11.733433509789464,11.733433509789462,images/picture_2.png,1,"[-11.733433509789462, 11.733433509789464]",-11.733433509789462,11.733433509789464,images/picture_3.png,2,"[-11.733433509789466, -11.733433509789462]",-11.733433509789464,-11.733433509789462,images/picture_3.png,2,"[-11.733433509789466, -11.733433509789462]","[-11.733433509789466, -11.733433509789462]","[-11.733433509789466, -11.733433509789462]",0.1,0.4690971631739732,0.5690971631739732,0.23090283682602675,0.7999999999999999,0.3190971631739732,0,0.8999999999999999,0.7999999999999999,0.1,1,0,1,0,0,30,30,19,,,,,,,131.03734116701526,131.03734116701526,131.15138720799587,131.3708187500015,131.58465983299538,131.58465983299538,131.58465983299538,131.58465983299538,131.81813987501664,131.81813987501664,131.81813987501664,131.81813987501664,131.81813987501664,131.91803299999447,0,,,100001,001,2023-04-14_09h54.24.039,DMS_etROI_12-36_stimBlast,2022.2.4,None,
stimBlast2,40,0,0.1,0.4690971631739732,0.7,0.1,75,UNPRED,12,0.4690971631739732,0,images/picture_1.png,images/picture_1.png,0,"[-11.733433509789462, 11.733433509789464]",-11.733433509789462,11.733433509789464,images/picture_2.png,1,"[11.733433509789462, -11.733433509789466]",11.733433509789462,-11.733433509789464,images/picture_3.png,2,"[11.733433509789464, 11.733433509789462]",11.733433509789464,11.733433509789462,images/picture_1.png,0,"[-11.733433509789462, 11.733433509789464]","[-11.733433509789462, 11.733433509789464]","[-11.733433509789462, 11.733433509789464]",0.1,0.4690971631739732,0.5690971631739732,0.23090283682602675,0.7999999999999999,0.3190971631739732,0,0.8999999999999999,0.7999999999999999,0.1,1,0,1,0,0,31,31,35,,,,,,,131.91803299999447,131.91803299999447,132.01818479201756,132.2516038750182,132.48460654201335,132.48460654201335,132.48460654201335,132.48460654201335,132.71816091699293,132.71816091699293,132.71816091699293,132.71816091699293,132.71816091699293,132.8178220000118,0,,,100001,001,2023-04-14_09h54.24.039,DMS_etROI_12-36_stimBlast,2022.2.4,None,
stimBlast2,40,0,0.1,0.4690971631739732,0.7,0.1,41,UNPRED,12,0.4690971631739732,1,images/picture_2.png,images/picture_1.png,0,"[11.733433509789464, 11.733433509789462]",11.733433509789464,11.733433509789462,images/picture_2.png,1,"[11.733433509789462, -11.733433509789466]",11.733433509789462,-11.733433509789464,images/picture_3.png,2,"[-11.733433509789466, -11.733433509789462]",-11.733433509789464,-11.733433509789462,images/picture_2.png,1,"[11.733433509789462, -11.733433509789466]","[11.733433509789462, -11.733433509789466]","[11.733433509789462, -11.733433509789466]",0.1,0.4690971631739732,0.5690971631739732,0.23090283682602675,0.7999999999999999,0.3190971631739732,0,0.8999999999999999,0.7999999999999999,0.1,1,0,1,0,0,32,32,1,,,,,,,132.8178220000118,132.8178220000118,132.91820712501067,133.1516138750012,133.38446274999296,133.38446274999296,133.38446274999296,133.38446274999296,133.61790720801218,133.61790720801218,133.61790720801218,133.61790720801218,133.61790720801218,133.7179119999928,0,,,100001,001,2023-04-14_09h54.24.039,DMS_etROI_12-36_stimBlast,2022.2.4,None,
stimBlast2,40,0,0.1,0.4690971631739732,0.7,0.1,58,UNPRED,12,0.4690971631739732,0,images/picture_1.png,images/picture_1.png,0,"[-11.733433509789466, -11.733433509789462]",-11.733433509789464,-11.733433509789462,images/picture_2.png,1,"[11.733433509789462, -11.733433509789466]",11.733433509789462,-11.733433509789464,images/picture_3.png,2,"[-11.733433509789462, 11.733433509789464]",-11.733433509789462,11.733433509789464,images/picture_1.png,0,"[-11.733433509789466, -11.733433509789462]","[-11.733433509789466, -11.733433509789462]","[-11.733433509789466, -11.733433509789462]",0.1,0.4690971631739732,0.5690971631739732,0.23090283682602675,0.7999999999999999,0.3190971631739732,0,0.8999999999999999,0.7999999999999999,0.1,1,0,1,0,0,33,33,18,,,,,,,133.7179119999928,133.7179119999928,133.817991332995,134.05122087500058,134.28474712499883,134.28474712499883,134.28474712499883,134.28474712499883,134.51819762500236,134.51819762500236,134.51819762500236,134.51819762500236,134.51819762500236,134.63737620800384,0,,,100001,001,2023-04-14_09h54.24.039,DMS_etROI_12-36_stimBlast,2022.2.4,None,
stimBlast2,40,0,0.1,0.4690971631739732,0.7,0.1,60,UNPRED,12,0.4690971631739732,2,images/picture_3.png,images/picture_1.png,0,"[-11.733433509789462, 11.733433509789464]",-11.733433509789462,11.733433509789464,images/picture_2.png,1,"[11.733433509789464, 11.733433509789462]",11.733433509789464,11.733433509789462,images/picture_3.png,2,"[-11.733433509789466, -11.733433509789462]",-11.733433509789464,-11.733433509789462,images/picture_3.png,2,"[-11.733433509789466, -11.733433509789462]","[-11.733433509789466, -11.733433509789462]","[-11.733433509789466, -11.733433509789462]",0.1,0.4690971631739732,0.5690971631739732,0.23090283682602675,0.7999999999999999,0.3190971631739732,0,0.8999999999999999,0.7999999999999999,0.1,1,0,1,0,0,34,34,20,,,,,,,134.63737620800384,134.63737620800384,134.7509531250107,134.97120895801345,135.18430033299956,135.18430033299956,135.18430033299956,135.18430033299956,135.41822691701236,135.41822691701236,135.41822691701236,135.41822691701236,135.41822691701236,135.51752887500334,0,,,100001,001,2023-04-14_09h54.24.039,DMS_etROI_12-36_stimBlast,2022.2.4,None,
stimBlast2,40,0,0.1,0.4690971631739732,0.7,0.1,40,UNPRED,12,0.4690971631739732,0,images/picture_1.png,images/picture_1.png,0,"[-11.733433509789466, -11.733433509789462]",-11.733433509789464,-11.733433509789462,images/picture_2.png,1,"[-11.733433509789462, 11.733433509789464]",-11.733433509789462,11.733433509789464,images/picture_3.png,2,"[11.733433509789462, -11.733433509789466]",11.733433509789462,-11.733433509789464,images/picture_1.png,0,"[-11.733433509789466, -11.733433509789462]","[-11.733433509789466, -11.733433509789462]","[-11.733433509789466, -11.733433509789462]",0.1,0.4690971631739732,0.5690971631739732,0.23090283682602675,0.7999999999999999,0.3190971631739732,0,0.8999999999999999,0.7999999999999999,0.1,1,0,1,0,0,35,35,0,,,,,,,135.51752887500334,135.51752887500334,135.61819495802047,135.8516234169947,136.08467212499818,136.08467212499818,136.08467212499818,136.08467212499818,136.31820862501627,136.31820862501627,136.31820862501627,136.31820862501627,136.31820862501627,136.4370484999963,0,,,100001,001,2023-04-14_09h54.24.039,DMS_etROI_12-36_stimBlast,2022.2.4,None,
stimBlast2,40,0,0.1,0.4690971631739732,0.7,0.1,44,UNPRED,12,0.4690971631739732,2,images/picture_3.png,images/picture_1.png,0,"[11.733433509789464, 11.733433509789462]",11.733433509789464,11.733433509789462,images/picture_2.png,1,"[-11.733433509789462, 11.733433509789464]",-11.733433509789462,11.733433509789464,images/picture_3.png,2,"[11.733433509789462, -11.733433509789466]",11.733433509789462,-11.733433509789464,images/picture_3.png,2,"[11.733433509789462, -11.733433509789466]","[11.733433509789462, -11.733433509789466]","[11.733433509789462, -11.733433509789466]",0.1,0.4690971631739732,0.5690971631739732,0.23090283682602675,0.7999999999999999,0.3190971631739732,0,0.8999999999999999,0.7999999999999999,0.1,1,0,1,0,0,36,36,4,,,,,,,136.4370484999963,136.4370484999963,136.5516272080131,136.77097112499177,136.98485500001698,136.98485500001698,136.98485500001698,136.98485500001698,137.2181906250189,137.2181906250189,137.2181906250189,137.2181906250189,137.2181906250189,137.3178009169933,0,,,100001,001,2023-04-14_09h54.24.039,DMS_etROI_12-36_stimBlast,2022.2.4,None,
stimBlast2,40,0,0.1,0.4690971631739732,0.7,0.1,52,UNPRED,12,0.4690971631739732,0,images/picture_1.png,images/picture_1.png,0,"[11.733433509789462, -11.733433509789466]",11.733433509789462,-11.733433509789464,images/picture_2.png,1,"[-11.733433509789466, -11.733433509789462]",-11.733433509789464,-11.733433509789462,images/picture_3.png,2,"[-11.733433509789462, 11.733433509789464]",-11.733433509789462,11.733433509789464,images/picture_1.png,0,"[11.733433509789462, -11.733433509789466]","[11.733433509789462, -11.733433509789466]","[11.733433509789462, -11.733433509789466]",0.1,0.4690971631739732,0.5690971631739732,0.23090283682602675,0.7999999999999999,0.3190971631739732,0,0.8999999999999999,0.7999999999999999,0.1,1,0,1,0,0,37,37,12,,,,,,,137.3178009169933,137.3178009169933,137.4183476670005,137.65166191701428,137.8842925420031,137.8842925420031,137.8842925420031,137.8842925420031,138.11819125001784,138.11819125001784,138.11819125001784,138.11819125001784,138.11819125001784,138.23714658300742,0,,,100001,001,2023-04-14_09h54.24.039,DMS_etROI_12-36_stimBlast,2022.2.4,None,
stimBlast2,40,0,0.1,0.4690971631739732,0.7,0.1,51,UNPRED,12,0.4690971631739732,2,images/picture_3.png,images/picture_1.png,0,"[11.733433509789464, 11.733433509789462]",11.733433509789464,11.733433509789462,images/picture_2.png,1,"[11.733433509789462, -11.733433509789466]",11.733433509789462,-11.733433509789464,images/picture_3.png,2,"[-11.733433509789466, -11.733433509789462]",-11.733433509789464,-11.733433509789462,images/picture_3.png,2,"[-11.733433509789466, -11.733433509789462]","[-11.733433509789466, -11.733433509789462]","[-11.733433509789466, -11.733433509789462]",0.1,0.4690971631739732,0.5690971631739732,0.23090283682602675,0.7999999999999999,0.3190971631739732,0,0.8999999999999999,0.7999999999999999,0.1,1,0,1,0,0,38,38,11,,,,,,,138.23714658300742,138.23714658300742,138.35164079201058,138.57096625000122,138.78467662501498,138.78467662501498,138.78467662501498,138.78467662501498,139.0181590830034,139.0181590830034,139.0181590830034,139.0181590830034,139.0181590830034,139.11751125002047,0,,,100001,001,2023-04-14_09h54.24.039,DMS_etROI_12-36_stimBlast,2022.2.4,None,
stimBlast2,40,0,0.1,0.4690971631739732,0.7,0.1,45,UNPRED,12,0.4690971631739732,0,images/picture_1.png,images/picture_1.png,0,"[11.733433509789464, 11.733433509789462]",11.733433509789464,11.733433509789462,images/picture_2.png,1,"[11.733433509789462, -11.733433509789466]",11.733433509789462,-11.733433509789464,images/picture_3.png,2,"[-11.733433509789462, 11.733433509789464]",-11.733433509789462,11.733433509789464,images/picture_1.png,0,"[11.733433509789464, 11.733433509789462]","[11.733433509789464, 11.733433509789462]","[11.733433509789464, 11.733433509789462]",0.1,0.4690971631739732,0.5690971631739732,0.23090283682602675,0.7999999999999999,0.3190971631739732,0,0.8999999999999999,0.7999999999999999,0.1,1,0,1,0,0,39,39,5,,,,,,,139.11751125002047,139.11751125002047,139.21814766700845,139.45161795799504,139.68466695799725,139.68466695799725,139.68466695799725,139.68466695799725,139.9184262920171,139.9184262920171,139.9184262920171,139.9184262920171,139.9184262920171,140.36466179200215,0,,,100001,001,2023-04-14_09h54.24.039,DMS_etROI_12-36_stimBlast,2022.2.4,None,
,,,,,,,,,,,,,,,,,,,,,,,,,,,,,,,,,,,,,,,,,,,1,0,1,0,,,,,,,,,140.36466179200215,152.4131902079971,,,,,,,,,,,,,,,,,,100001,001,2023-04-14_09h54.24.039,DMS_etROI_12-36_stimBlast,2022.2.4,None,
stimBlast2,40,0,0.1,0.4690971631739732,0.7,0.1,87,PRED,12,0.4690971631739732,2,images/picture_3.png,images/picture_1.png,0,"[11.733433509789464, 11.733433509789462]",11.733433509789464,11.733433509789462,images/picture_2.png,1,"[-11.733433509789462, 11.733433509789464]",-11.733433509789462,11.733433509789464,images/picture_3.png,2,"[-11.733433509789466, -11.733433509789462]",-11.733433509789464,-11.733433509789462,images/picture_3.png,2,"[-11.733433509789466, -11.733433509789462]","[-11.733433509789466, -11.733433509789462]","[-11.733433509789466, -11.733433509789462]",0.1,0.4690971631739732,0.5690971631739732,0.23090283682602675,0.7999999999999999,0.3190971631739732,0,0.8999999999999999,0.7999999999999999,0.1,2,0,2,0,0,0,0,7,,,,,,,152.4131902079971,152.4131902079971,152.51813904201845,152.73768550000386,152.9712784170115,152.9712784170115,152.9712784170115,152.9712784170115,153.2044472080015,153.2044472080015,153.2044472080015,153.2044472080015,153.2044472080015,153.33744379199925,0,,,100001,001,2023-04-14_09h54.24.039,DMS_etROI_12-36_stimBlast,2022.2.4,None,
stimBlast2,40,0,0.1,0.4690971631739732,0.7,0.1,82,PRED,12,0.4690971631739732,2,images/picture_3.png,images/picture_1.png,0,"[11.733433509789462, -11.733433509789466]",11.733433509789462,-11.733433509789464,images/picture_2.png,1,"[-11.733433509789466, -11.733433509789462]",-11.733433509789464,-11.733433509789462,images/picture_3.png,2,"[-11.733433509789462, 11.733433509789464]",-11.733433509789462,11.733433509789464,images/picture_3.png,2,"[-11.733433509789462, 11.733433509789464]","[-11.733433509789462, 11.733433509789464]","[-11.733433509789462, 11.733433509789464]",0.1,0.4690971631739732,0.5690971631739732,0.23090283682602675,0.7999999999999999,0.3190971631739732,0,0.8999999999999999,0.7999999999999999,0.1,2,0,2,0,0,1,1,2,,,,,,,153.33744379199925,153.33744379199925,153.45167220800067,153.67038533301093,153.8848759579996,153.8848759579996,153.8848759579996,153.8848759579996,154.11840770801064,154.11840770801064,154.11840770801064,154.11840770801064,154.11840770801064,154.21920462499838,0,,,100001,001,2023-04-14_09h54.24.039,DMS_etROI_12-36_stimBlast,2022.2.4,None,
stimBlast2,40,0,0.1,0.4690971631739732,0.7,0.1,115,PRED,12,0.4690971631739732,2,images/picture_3.png,images/picture_1.png,0,"[11.733433509789462, -11.733433509789466]",11.733433509789462,-11.733433509789464,images/picture_2.png,1,"[11.733433509789464, 11.733433509789462]",11.733433509789464,11.733433509789462,images/picture_3.png,2,"[-11.733433509789462, 11.733433509789464]",-11.733433509789462,11.733433509789464,images/picture_3.png,2,"[-11.733433509789462, 11.733433509789464]","[-11.733433509789462, 11.733433509789464]","[-11.733433509789462, 11.733433509789464]",0.1,0.4690971631739732,0.5690971631739732,0.23090283682602675,0.7999999999999999,0.3190971631739732,0,0.8999999999999999,0.7999999999999999,0.1,2,0,2,0,0,2,2,35,,,,,,,154.21920462499838,154.21920462499838,154.31807379200472,154.55147437501,154.78505554201547,154.78505554201547,154.78505554201547,154.78505554201547,155.01840145801543,155.01840145801543,155.01840145801543,155.01840145801543,155.01840145801543,155.1373497080058,0,,,100001,001,2023-04-14_09h54.24.039,DMS_etROI_12-36_stimBlast,2022.2.4,None,
stimBlast2,40,0,0.1,0.4690971631739732,0.7,0.1,101,PRED,12,0.4690971631739732,2,images/picture_3.png,images/picture_1.png,0,"[11.733433509789462, -11.733433509789466]",11.733433509789462,-11.733433509789464,images/picture_2.png,1,"[11.733433509789464, 11.733433509789462]",11.733433509789464,11.733433509789462,images/picture_3.png,2,"[-11.733433509789466, -11.733433509789462]",-11.733433509789464,-11.733433509789462,images/picture_3.png,2,"[-11.733433509789466, -11.733433509789462]","[-11.733433509789466, -11.733433509789462]","[-11.733433509789466, -11.733433509789462]",0.1,0.4690971631739732,0.5690971631739732,0.23090283682602675,0.7999999999999999,0.3190971631739732,0,0.8999999999999999,0.7999999999999999,0.1,2,0,2,0,0,3,3,21,,,,,,,155.1373497080058,155.1373497080058,155.25176845799433,155.4714015420177,155.68472479199409,155.68472479199409,155.68472479199409,155.68472479199409,155.91845858300803,155.91845858300803,155.91845858300803,155.91845858300803,155.91845858300803,156.0373473750078,0,,,100001,001,2023-04-14_09h54.24.039,DMS_etROI_12-36_stimBlast,2022.2.4,None,
stimBlast2,40,0,0.1,0.4690971631739732,0.7,0.1,86,PRED,12,0.4690971631739732,2,images/picture_3.png,images/picture_1.png,0,"[-11.733433509789462, 11.733433509789464]",-11.733433509789462,11.733433509789464,images/picture_2.png,1,"[11.733433509789462, -11.733433509789466]",11.733433509789462,-11.733433509789464,images/picture_3.png,2,"[-11.733433509789466, -11.733433509789462]",-11.733433509789464,-11.733433509789462,images/picture_3.png,2,"[-11.733433509789466, -11.733433509789462]","[-11.733433509789466, -11.733433509789462]","[-11.733433509789466, -11.733433509789462]",0.1,0.4690971631739732,0.5690971631739732,0.23090283682602675,0.7999999999999999,0.3190971631739732,0,0.8999999999999999,0.7999999999999999,0.1,2,0,2,0,0,4,4,6,,,,,,,156.0373473750078,156.0373473750078,156.1517156670161,156.37139516699244,156.58474287501303,156.58474287501303,156.58474287501303,156.58474287501303,156.8183953750122,156.8183953750122,156.8183953750122,156.8183953750122,156.8183953750122,156.93711779199657,0,,,100001,001,2023-04-14_09h54.24.039,DMS_etROI_12-36_stimBlast,2022.2.4,None,
stimBlast2,40,0,0.1,0.4690971631739732,0.7,0.1,103,PRED,12,0.4690971631739732,2,images/picture_3.png,images/picture_1.png,0,"[-11.733433509789466, -11.733433509789462]",-11.733433509789464,-11.733433509789462,images/picture_2.png,1,"[11.733433509789462, -11.733433509789466]",11.733433509789462,-11.733433509789464,images/picture_3.png,2,"[11.733433509789464, 11.733433509789462]",11.733433509789464,11.733433509789462,images/picture_3.png,2,"[11.733433509789464, 11.733433509789462]","[11.733433509789464, 11.733433509789462]","[11.733433509789464, 11.733433509789462]",0.1,0.4690971631739732,0.5690971631739732,0.23090283682602675,0.7999999999999999,0.3190971631739732,0,0.8999999999999999,0.7999999999999999,0.1,2,0,2,0,0,5,5,23,,,,,,,156.93711779199657,156.93711779199657,157.05152062501293,157.2712262920104,157.48478600001545,157.48478600001545,157.48478600001545,157.48478600001545,157.71846770800767,157.71846770800767,157.71846770800767,157.71846770800767,157.71846770800767,157.83695675001945,0,,,100001,001,2023-04-14_09h54.24.039,DMS_etROI_12-36_stimBlast,2022.2.4,None,
stimBlast2,40,0,0.1,0.4690971631739732,0.7,0.1,96,PRED,12,0.4690971631739732,2,images/picture_3.png,images/picture_1.png,0,"[11.733433509789464, 11.733433509789462]",11.733433509789464,11.733433509789462,images/picture_2.png,1,"[-11.733433509789466, -11.733433509789462]",-11.733433509789464,-11.733433509789462,images/picture_3.png,2,"[-11.733433509789462, 11.733433509789464]",-11.733433509789462,11.733433509789464,images/picture_3.png,2,"[-11.733433509789462, 11.733433509789464]","[-11.733433509789462, 11.733433509789464]","[-11.733433509789462, 11.733433509789464]",0.1,0.4690971631739732,0.5690971631739732,0.23090283682602675,0.7999999999999999,0.3190971631739732,0,0.8999999999999999,0.7999999999999999,0.1,2,0,2,0,0,6,6,16,,,,,,,157.83695675001945,157.83695675001945,157.95146579199354,158.1714327080117,158.38475412499974,158.38475412499974,158.38475412499974,158.38475412499974,158.61843941701227,158.61843941701227,158.61843941701227,158.61843941701227,158.61843941701227,158.73735866701463,0,,,100001,001,2023-04-14_09h54.24.039,DMS_etROI_12-36_stimBlast,2022.2.4,None,
stimBlast2,40,0,0.1,0.4690971631739732,0.7,0.1,90,PRED,12,0.4690971631739732,2,images/picture_3.png,images/picture_1.png,0,"[11.733433509789464, 11.733433509789462]",11.733433509789464,11.733433509789462,images/picture_2.png,1,"[-11.733433509789466, -11.733433509789462]",-11.733433509789464,-11.733433509789462,images/picture_3.png,2,"[-11.733433509789462, 11.733433509789464]",-11.733433509789462,11.733433509789464,images/picture_3.png,2,"[-11.733433509789462, 11.733433509789464]","[-11.733433509789462, 11.733433509789464]","[-11.733433509789462, 11.733433509789464]",0.1,0.4690971631739732,0.5690971631739732,0.23090283682602675,0.7999999999999999,0.3190971631739732,0,0.8999999999999999,0.7999999999999999,0.1,2,0,2,0,0,7,7,10,,,,,,,158.73735866701463,158.73735866701463,158.8516870829917,159.07134629201028,159.28477795800427,159.28477795800427,159.28477795800427,159.28477795800427,159.51842437501182,159.51842437501182,159.51842437501182,159.51842437501182,159.51842437501182,159.63767808300327,0,,,100001,001,2023-04-14_09h54.24.039,DMS_etROI_12-36_stimBlast,2022.2.4,None,
stimBlast2,40,0,0.1,0.4690971631739732,0.7,0.1,109,PRED,12,0.4690971631739732,2,images/picture_3.png,images/picture_1.png,0,"[11.733433509789464, 11.733433509789462]",11.733433509789464,11.733433509789462,images/picture_2.png,1,"[-11.733433509789462, 11.733433509789464]",-11.733433509789462,11.733433509789464,images/picture_3.png,2,"[-11.733433509789466, -11.733433509789462]",-11.733433509789464,-11.733433509789462,images/picture_3.png,2,"[-11.733433509789466, -11.733433509789462]","[-11.733433509789466, -11.733433509789462]","[-11.733433509789466, -11.733433509789462]",0.1,0.4690971631739732,0.5690971631739732,0.23090283682602675,0.7999999999999999,0.3190971631739732,0,0.8999999999999999,0.7999999999999999,0.1,2,0,2,0,0,8,8,29,,,,,,,159.63767808300327,159.63767808300327,159.75178449999657,159.97101170799579,160.18479662502068,160.18479662502068,160.18479662502068,160.18479662502068,160.4184568329947,160.4184568329947,160.4184568329947,160.4184568329947,160.4184568329947,160.53712587500922,0,,,100001,001,2023-04-14_09h54.24.039,DMS_etROI_12-36_stimBlast,2022.2.4,None,
stimBlast2,40,0,0.1,0.4690971631739732,0.7,0.1,116,PRED,12,0.4690971631739732,2,images/picture_3.png,images/picture_1.png,0,"[-11.733433509789466, -11.733433509789462]",-11.733433509789464,-11.733433509789462,images/picture_2.png,1,"[11.733433509789464, 11.733433509789462]",11.733433509789464,11.733433509789462,images/picture_3.png,2,"[-11.733433509789462, 11.733433509789464]",-11.733433509789462,11.733433509789464,images/picture_3.png,2,"[-11.733433509789462, 11.733433509789464]","[-11.733433509789462, 11.733433509789464]","[-11.733433509789462, 11.733433509789464]",0.1,0.4690971631739732,0.5690971631739732,0.23090283682602675,0.7999999999999999,0.3190971631739732,0,0.8999999999999999,0.7999999999999999,0.1,2,0,2,0,0,9,9,36,,,,,,,160.53712587500922,160.53712587500922,160.65166158301872,160.87133645801805,161.08470833301544,161.08470833301544,161.08470833301544,161.08470833301544,161.31840229200316,161.31840229200316,161.31840229200316,161.31840229200316,161.31840229200316,161.4376341669995,0,,,100001,001,2023-04-14_09h54.24.039,DMS_etROI_12-36_stimBlast,2022.2.4,None,
stimBlast2,40,0,0.1,0.4690971631739732,0.7,0.1,92,PRED,12,0.4690971631739732,2,images/picture_3.png,images/picture_1.png,0,"[11.733433509789462, -11.733433509789466]",11.733433509789462,-11.733433509789464,images/picture_2.png,1,"[-11.733433509789466, -11.733433509789462]",-11.733433509789464,-11.733433509789462,images/picture_3.png,2,"[11.733433509789464, 11.733433509789462]",11.733433509789464,11.733433509789462,images/picture_3.png,2,"[11.733433509789464, 11.733433509789462]","[11.733433509789464, 11.733433509789462]","[11.733433509789464, 11.733433509789462]",0.1,0.4690971631739732,0.5690971631739732,0.23090283682602675,0.7999999999999999,0.3190971631739732,0,0.8999999999999999,0.7999999999999999,0.1,2,0,2,0,0,10,10,12,,,,,,,161.4376341669995,161.4376341669995,161.55183141701855,161.75142037501791,161.9848402920179,161.9848402920179,161.9848402920179,161.9848402920179,162.2184948750073,162.2184948750073,162.2184948750073,162.2184948750073,162.2184948750073,162.33711100000073,0,,,100001,001,2023-04-14_09h54.24.039,DMS_etROI_12-36_stimBlast,2022.2.4,None,
