paradigm_name,trialNum,cue_onset,cue_dur,delayTime,delay_resp_period,rest_dur,trial_count,blockType,blockNum,delay_time,stimImage_i,stimImage,responseImage1,responseImage1_i,responseImage1_pos,responseImage1_X,responseImage1_Y,responseImage2,responseImage2_i,responseImage2_pos,responseImage2_X,responseImage2_Y,responseImage3,responseImage3_i,responseImage3_pos,responseImage3_X,responseImage3_Y,targImage,targImage_i,targImage_pos,targImage_X,targImage_Y,delay_onset,delay_dur,resp_onset,resp_dur,rest_onset,circle_dur,circle_onset,total_dur,cross_onset,cross_dur,blocks.thisRepN,blocks.thisTrialN,blocks.thisN,blocks.thisIndex,trials.thisRepN,trials.thisTrialN,trials.thisN,trials.thisIndex,key_resp.started,text.started,key_resp.keys,key_resp.rt,text_2.started,text_2.stopped,sample.started,Delay.started,sample.stopped,Delay.stopped,Response_1.started,Response_2.started,Response_3.started,roi.started,Response_1.stopped,Response_2.stopped,Response_3.stopped,polygon.started,roi.stopped,polygon.stopped,roi.numLooks,roi.timesOn,roi.timesOff,participant,session,date,expName,psychopyVersion,frameRate,
,,,,,,,,,,,,,,,,,,,,,,,,,,,,,,,,,,,,,,,,,,,,,,,,,,,27.77837250000448,27.77837250000448,t,2.2371713340107817,,,,,,,,,,,,,,,,,,,,100001,001,2023-04-13_15h49.17.105,DMS_etROI_12-36_stimBlast,2022.2.4,59.95004649812308,
stimBlast,18,0,0.2,0.4630649138268907,0.8,0.2,0,PRED,12,0.4630649138268907,1,images/picture_2.png,images/picture_1.png,0,"[-11.733433509789462, 11.733433509789464]",-11.733433509789462,11.733433509789464,images/picture_2.png,1,"[11.733433509789464, 11.733433509789462]",11.733433509789464,11.733433509789462,images/picture_3.png,2,"[-11.733433509789466, -11.733433509789462]",-11.733433509789464,-11.733433509789462,images/picture_2.png,1,"[11.733433509789464, 11.733433509789462]","[11.733433509789464, 11.733433509789462]","[11.733433509789464, 11.733433509789462]",0.2,0.4630649138268907,0.6630649138268907,0.3369350861731093,1.0,0.4130649138268907,0,1.2,1.0,0.2,0,0,0,0,0,0,0,0,,,,,30.029309415986063,42.06291958299698,42.06291958299698,42.06291958299698,42.26191645799554,42.47935583299841,42.71305008299532,42.71305008299532,42.71305008299532,42.71305008299532,43.062850540998625,43.062850540998625,43.062850540998625,43.062850540998625,43.062850540998625,43.26239774998976,0,,,100001,001,2023-04-13_15h49.17.105,DMS_etROI_12-36_stimBlast,2022.2.4,59.95004649812308,
stimBlast,18,0,0.2,0.4630649138268907,0.8,0.2,4,PRED,12,0.4630649138268907,1,images/picture_2.png,images/picture_1.png,0,"[-11.733433509789466, -11.733433509789462]",-11.733433509789464,-11.733433509789462,images/picture_2.png,1,"[11.733433509789462, -11.733433509789466]",11.733433509789462,-11.733433509789464,images/picture_3.png,2,"[-11.733433509789462, 11.733433509789464]",-11.733433509789462,11.733433509789464,images/picture_2.png,1,"[11.733433509789462, -11.733433509789466]","[11.733433509789462, -11.733433509789466]","[11.733433509789462, -11.733433509789466]",0.2,0.4630649138268907,0.6630649138268907,0.3369350861731093,1.0,0.4130649138268907,0,1.2,1.0,0.2,0,0,0,0,0,1,1,4,,,,,,,43.26239774998976,43.26239774998976,43.462518832995556,43.6787757499842,43.91270104100113,43.91270104100113,43.91270104100113,43.91270104100113,44.262743957981,44.262743957981,44.262743957981,44.262743957981,44.262743957981,44.461974082980305,0,,,100001,001,2023-04-13_15h49.17.105,DMS_etROI_12-36_stimBlast,2022.2.4,59.95004649812308,
stimBlast,18,0,0.2,0.4630649138268907,0.8,0.2,1,PRED,12,0.4630649138268907,1,images/picture_2.png,images/picture_1.png,0,"[-11.733433509789466, -11.733433509789462]",-11.733433509789464,-11.733433509789462,images/picture_2.png,1,"[11.733433509789462, -11.733433509789466]",11.733433509789462,-11.733433509789464,images/picture_3.png,2,"[11.733433509789464, 11.733433509789462]",11.733433509789464,11.733433509789462,images/picture_2.png,1,"[11.733433509789462, -11.733433509789466]","[11.733433509789462, -11.733433509789466]","[11.733433509789462, -11.733433509789466]",0.2,0.4630649138268907,0.6630649138268907,0.3369350861731093,1.0,0.4130649138268907,0,1.2,1.0,0.2,0,0,0,0,0,2,2,1,,,,,,,44.461974082980305,44.461974082980305,44.66192549999687,44.87849166599335,45.11185762498644,45.11185762498644,45.11185762498644,45.11185762498644,45.46176366598229,45.46176366598229,45.46176366598229,45.46176366598229,45.46176366598229,45.66201158298645,0,,,100001,001,2023-04-13_15h49.17.105,DMS_etROI_12-36_stimBlast,2022.2.4,59.95004649812308,
stimBlast,18,0,0.2,0.4630649138268907,0.8,0.2,6,PRED,12,0.4630649138268907,1,images/picture_2.png,images/picture_1.png,0,"[11.733433509789462, -11.733433509789466]",11.733433509789462,-11.733433509789464,images/picture_2.png,1,"[11.733433509789464, 11.733433509789462]",11.733433509789464,11.733433509789462,images/picture_3.png,2,"[-11.733433509789462, 11.733433509789464]",-11.733433509789462,11.733433509789464,images/picture_2.png,1,"[11.733433509789464, 11.733433509789462]","[11.733433509789464, 11.733433509789462]","[11.733433509789464, 11.733433509789462]",0.2,0.4630649138268907,0.6630649138268907,0.3369350861731093,1.0,0.4130649138268907,0,1.2,1.0,0.2,0,0,0,0,0,3,3,6,,,,,,,45.66201158298645,45.66201158298645,45.862406125001144,46.079460040986305,46.312885749997804,46.312885749997804,46.312885749997804,46.312885749997804,46.662176790996455,46.662176790996455,46.662176790996455,46.64512666600058,46.662176790996455,46.84500779098016,0,,,100001,001,2023-04-13_15h49.17.105,DMS_etROI_12-36_stimBlast,2022.2.4,59.95004649812308,
stimBlast,18,0,0.2,0.4630649138268907,0.8,0.2,10,PRED,12,0.4630649138268907,1,images/picture_2.png,images/picture_1.png,0,"[11.733433509789462, -11.733433509789466]",11.733433509789462,-11.733433509789464,images/picture_2.png,1,"[-11.733433509789462, 11.733433509789464]",-11.733433509789462,11.733433509789464,images/picture_3.png,2,"[-11.733433509789466, -11.733433509789462]",-11.733433509789464,-11.733433509789462,images/picture_2.png,1,"[-11.733433509789462, 11.733433509789464]","[-11.733433509789462, 11.733433509789464]","[-11.733433509789462, 11.733433509789464]",0.2,0.4630649138268907,0.6630649138268907,0.3369350861731093,1.0,0.4130649138268907,0,1.2,1.0,0.2,0,0,0,0,0,4,4,10,,,,,,,46.84500779098016,46.84500779098016,47.0462046659959,47.26225158298621,47.495732165989466,47.495732165989466,47.495732165989466,47.495732165989466,47.846252415998606,47.846252415998606,47.846252415998606,47.846252415998606,47.846252415998606,48.04511945799459,0,,,100001,001,2023-04-13_15h49.17.105,DMS_etROI_12-36_stimBlast,2022.2.4,59.95004649812308,
stimBlast,18,0,0.2,0.4630649138268907,0.8,0.2,8,PRED,12,0.4630649138268907,1,images/picture_2.png,images/picture_1.png,0,"[11.733433509789462, -11.733433509789466]",11.733433509789462,-11.733433509789464,images/picture_2.png,1,"[-11.733433509789462, 11.733433509789464]",-11.733433509789462,11.733433509789464,images/picture_3.png,2,"[11.733433509789464, 11.733433509789462]",11.733433509789464,11.733433509789462,images/picture_2.png,1,"[-11.733433509789462, 11.733433509789464]","[-11.733433509789462, 11.733433509789464]","[-11.733433509789462, 11.733433509789464]",0.2,0.4630649138268907,0.6630649138268907,0.3369350861731093,1.0,0.4130649138268907,0,1.2,1.0,0.2,0,0,0,0,0,5,5,8,,,,,,,48.04511945799459,48.04511945799459,48.24565100000473,48.4625242909824,48.69598520800355,48.69598520800355,48.69598520800355,48.69598520800355,49.04612637500395,49.04612637500395,49.04612637500395,49.04612637500395,49.04612637500395,49.24505429097917,0,,,100001,001,2023-04-13_15h49.17.105,DMS_etROI_12-36_stimBlast,2022.2.4,59.95004649812308,
stimBlast,18,0,0.2,0.4630649138268907,0.8,0.2,16,PRED,12,0.4630649138268907,1,images/picture_2.png,images/picture_1.png,0,"[11.733433509789464, 11.733433509789462]",11.733433509789464,11.733433509789462,images/picture_2.png,1,"[-11.733433509789462, 11.733433509789464]",-11.733433509789462,11.733433509789464,images/picture_3.png,2,"[-11.733433509789466, -11.733433509789462]",-11.733433509789464,-11.733433509789462,images/picture_2.png,1,"[-11.733433509789462, 11.733433509789464]","[-11.733433509789462, 11.733433509789464]","[-11.733433509789462, 11.733433509789464]",0.2,0.4630649138268907,0.6630649138268907,0.3369350861731093,1.0,0.4130649138268907,0,1.2,1.0,0.2,0,0,0,0,0,6,6,16,,,,,,,49.24505429097917,49.24505429097917,49.44599029098754,49.66262233298039,49.8963213749812,49.8963213749812,49.8963213749812,49.8963213749812,50.245904790994246,50.245904790994246,50.245904790994246,50.245904790994246,50.245904790994246,50.44510404099128,0,,,100001,001,2023-04-13_15h49.17.105,DMS_etROI_12-36_stimBlast,2022.2.4,59.95004649812308,
stimBlast,18,0,0.2,0.4630649138268907,0.8,0.2,9,PRED,12,0.4630649138268907,1,images/picture_2.png,images/picture_1.png,0,"[11.733433509789464, 11.733433509789462]",11.733433509789464,11.733433509789462,images/picture_2.png,1,"[11.733433509789462, -11.733433509789466]",11.733433509789462,-11.733433509789464,images/picture_3.png,2,"[-11.733433509789462, 11.733433509789464]",-11.733433509789462,11.733433509789464,images/picture_2.png,1,"[11.733433509789462, -11.733433509789466]","[11.733433509789462, -11.733433509789466]","[11.733433509789462, -11.733433509789466]",0.2,0.4630649138268907,0.6630649138268907,0.3369350861731093,1.0,0.4130649138268907,0,1.2,1.0,0.2,0,0,0,0,0,7,7,9,,,,,,,50.44510404099128,50.44510404099128,50.64572641599807,50.86240949999774,51.09617312499904,51.09617312499904,51.09617312499904,51.09617312499904,51.44579916598741,51.44579916598741,51.44579916598741,51.44579916598741,51.44579916598741,51.64509549998911,0,,,100001,001,2023-04-13_15h49.17.105,DMS_etROI_12-36_stimBlast,2022.2.4,59.95004649812308,
stimBlast,18,0,0.2,0.4630649138268907,0.8,0.2,15,PRED,12,0.4630649138268907,1,images/picture_2.png,images/picture_1.png,0,"[11.733433509789462, -11.733433509789466]",11.733433509789462,-11.733433509789464,images/picture_2.png,1,"[-11.733433509789462, 11.733433509789464]",-11.733433509789462,11.733433509789464,images/picture_3.png,2,"[11.733433509789464, 11.733433509789462]",11.733433509789464,11.733433509789462,images/picture_2.png,1,"[-11.733433509789462, 11.733433509789464]","[-11.733433509789462, 11.733433509789464]","[-11.733433509789462, 11.733433509789464]",0.2,0.4630649138268907,0.6630649138268907,0.3369350861731093,1.0,0.4130649138268907,0,1.2,1.0,0.2,0,0,0,0,0,8,8,15,,,,,,,51.64509549998911,51.64509549998911,51.84518574998947,52.06244370798231,52.29662916599773,52.29662916599773,52.29662916599773,52.29662916599773,52.64592325000558,52.64592325000558,52.64592325000558,52.64592325000558,52.64592325000558,52.84545370799606,0,,,100001,001,2023-04-13_15h49.17.105,DMS_etROI_12-36_stimBlast,2022.2.4,59.95004649812308,
stimBlast,18,0,0.2,0.4630649138268907,0.8,0.2,7,PRED,12,0.4630649138268907,1,images/picture_2.png,images/picture_1.png,0,"[11.733433509789464, 11.733433509789462]",11.733433509789464,11.733433509789462,images/picture_2.png,1,"[-11.733433509789462, 11.733433509789464]",-11.733433509789462,11.733433509789464,images/picture_3.png,2,"[-11.733433509789466, -11.733433509789462]",-11.733433509789464,-11.733433509789462,images/picture_2.png,1,"[-11.733433509789462, 11.733433509789464]","[-11.733433509789462, 11.733433509789464]","[-11.733433509789462, 11.733433509789464]",0.2,0.4630649138268907,0.6630649138268907,0.3369350861731093,1.0,0.4130649138268907,0,1.2,1.0,0.2,0,0,0,0,0,9,9,7,,,,,,,52.84545370799606,52.84545370799606,53.04605779098347,53.26273512499756,53.49644854100188,53.49644854100188,53.49644854100188,53.49644854100188,53.8459870829829,53.8459870829829,53.8459870829829,53.8459870829829,53.8459870829829,54.04524433298502,0,,,100001,001,2023-04-13_15h49.17.105,DMS_etROI_12-36_stimBlast,2022.2.4,59.95004649812308,
stimBlast,18,0,0.2,0.4630649138268907,0.8,0.2,3,PRED,12,0.4630649138268907,1,images/picture_2.png,images/picture_1.png,0,"[11.733433509789462, -11.733433509789466]",11.733433509789462,-11.733433509789464,images/picture_2.png,1,"[-11.733433509789466, -11.733433509789462]",-11.733433509789464,-11.733433509789462,images/picture_3.png,2,"[-11.733433509789462, 11.733433509789464]",-11.733433509789462,11.733433509789464,images/picture_2.png,1,"[-11.733433509789466, -11.733433509789462]","[-11.733433509789466, -11.733433509789462]","[-11.733433509789466, -11.733433509789462]",0.2,0.4630649138268907,0.6630649138268907,0.3369350861731093,1.0,0.4130649138268907,0,1.2,1.0,0.2,0,0,0,0,0,10,10,3,,,,,,,54.04524433298502,54.04524433298502,54.24601487498148,54.46264012498432,54.696149291004986,54.696149291004986,54.696149291004986,54.696149291004986,55.04540916599217,55.04540916599217,55.04540916599217,55.04540916599217,55.04540916599217,55.24522345798323,0,,,100001,001,2023-04-13_15h49.17.105,DMS_etROI_12-36_stimBlast,2022.2.4,59.95004649812308,
stimBlast,18,0,0.2,0.4630649138268907,0.8,0.2,14,PRED,12,0.4630649138268907,1,images/picture_2.png,images/picture_1.png,0,"[11.733433509789462, -11.733433509789466]",11.733433509789462,-11.733433509789464,images/picture_2.png,1,"[-11.733433509789462, 11.733433509789464]",-11.733433509789462,11.733433509789464,images/picture_3.png,2,"[11.733433509789464, 11.733433509789462]",11.733433509789464,11.733433509789462,images/picture_2.png,1,"[-11.733433509789462, 11.733433509789464]","[-11.733433509789462, 11.733433509789464]","[-11.733433509789462, 11.733433509789464]",0.2,0.4630649138268907,0.6630649138268907,0.3369350861731093,1.0,0.4130649138268907,0,1.2,1.0,0.2,0,0,0,0,0,11,11,14,,,,,,,55.24522345798323,55.24522345798323,55.44523745798506,55.66197508299956,55.89613129099598,55.89613129099598,55.89613129099598,55.89613129099598,56.2460347499873,56.2460347499873,56.2460347499873,56.22937524999725,56.2460347499873,56.42872308299411,0,,,100001,001,2023-04-13_15h49.17.105,DMS_etROI_12-36_stimBlast,2022.2.4,59.95004649812308,
stimBlast,18,0,0.2,0.4630649138268907,0.8,0.2,12,PRED,12,0.4630649138268907,1,images/picture_2.png,images/picture_1.png,0,"[11.733433509789462, -11.733433509789466]",11.733433509789462,-11.733433509789464,images/picture_2.png,1,"[11.733433509789464, 11.733433509789462]",11.733433509789464,11.733433509789462,images/picture_3.png,2,"[-11.733433509789462, 11.733433509789464]",-11.733433509789462,11.733433509789464,images/picture_2.png,1,"[11.733433509789464, 11.733433509789462]","[11.733433509789464, 11.733433509789462]","[11.733433509789464, 11.733433509789462]",0.2,0.4630649138268907,0.6630649138268907,0.3369350861731093,1.0,0.4130649138268907,0,1.2,1.0,0.2,0,0,0,0,0,12,12,12,,,,,,,56.42872308299411,56.42872308299411,56.62942362498143,56.84530945800361,57.079658040980576,57.079658040980576,57.079658040980576,57.079658040980576,57.42942474997835,57.42942474997835,57.42942474997835,57.42942474997835,57.42942474997835,57.62868720799452,0,,,100001,001,2023-04-13_15h49.17.105,DMS_etROI_12-36_stimBlast,2022.2.4,59.95004649812308,
stimBlast,18,0,0.2,0.4630649138268907,0.8,0.2,5,PRED,12,0.4630649138268907,1,images/picture_2.png,images/picture_1.png,0,"[-11.733433509789466, -11.733433509789462]",-11.733433509789464,-11.733433509789462,images/picture_2.png,1,"[11.733433509789462, -11.733433509789466]",11.733433509789462,-11.733433509789464,images/picture_3.png,2,"[-11.733433509789462, 11.733433509789464]",-11.733433509789462,11.733433509789464,images/picture_2.png,1,"[11.733433509789462, -11.733433509789466]","[11.733433509789462, -11.733433509789466]","[11.733433509789462, -11.733433509789466]",0.2,0.4630649138268907,0.6630649138268907,0.3369350861731093,1.0,0.4130649138268907,0,1.2,1.0,0.2,0,0,0,0,0,13,13,5,,,,,,,57.62868720799452,57.62868720799452,57.829419165995205,58.0462580829917,58.279540666000685,58.279540666000685,58.279540666000685,58.279540666000685,58.62939270798233,58.62939270798233,58.62939270798233,58.62939270798233,58.62939270798233,58.82863304100465,0,,,100001,001,2023-04-13_15h49.17.105,DMS_etROI_12-36_stimBlast,2022.2.4,59.95004649812308,
stimBlast,18,0,0.2,0.4630649138268907,0.8,0.2,11,PRED,12,0.4630649138268907,1,images/picture_2.png,images/picture_1.png,0,"[-11.733433509789466, -11.733433509789462]",-11.733433509789464,-11.733433509789462,images/picture_2.png,1,"[11.733433509789464, 11.733433509789462]",11.733433509789464,11.733433509789462,images/picture_3.png,2,"[-11.733433509789462, 11.733433509789464]",-11.733433509789462,11.733433509789464,images/picture_2.png,1,"[11.733433509789464, 11.733433509789462]","[11.733433509789464, 11.733433509789462]","[11.733433509789464, 11.733433509789462]",0.2,0.4630649138268907,0.6630649138268907,0.3369350861731093,1.0,0.4130649138268907,0,1.2,1.0,0.2,0,0,0,0,0,14,14,11,,,,,,,58.82863304100465,58.82863304100465,59.02897183300229,59.24620833300287,59.47928008300369,59.47928008300369,59.47928008300369,59.47928008300369,59.82945570797892,59.82945570797892,59.82945570797892,59.82945570797892,59.82945570797892,60.02856554099708,0,,,100001,001,2023-04-13_15h49.17.105,DMS_etROI_12-36_stimBlast,2022.2.4,59.95004649812308,
stimBlast,18,0,0.2,0.4630649138268907,0.8,0.2,13,PRED,12,0.4630649138268907,1,images/picture_2.png,images/picture_1.png,0,"[-11.733433509789462, 11.733433509789464]",-11.733433509789462,11.733433509789464,images/picture_2.png,1,"[11.733433509789464, 11.733433509789462]",11.733433509789464,11.733433509789462,images/picture_3.png,2,"[11.733433509789462, -11.733433509789466]",11.733433509789462,-11.733433509789464,images/picture_2.png,1,"[11.733433509789464, 11.733433509789462]","[11.733433509789464, 11.733433509789462]","[11.733433509789464, 11.733433509789462]",0.2,0.4630649138268907,0.6630649138268907,0.3369350861731093,1.0,0.4130649138268907,0,1.2,1.0,0.2,0,0,0,0,0,15,15,13,,,,,,,60.02856554099708,60.02856554099708,60.22850254099467,60.44622029099264,60.67937516598613,60.67937516598613,60.67937516598613,60.67937516598613,61.02959274998284,61.02959274998284,61.02959274998284,61.02959274998284,61.02959274998284,61.228858665999724,0,,,100001,001,2023-04-13_15h49.17.105,DMS_etROI_12-36_stimBlast,2022.2.4,59.95004649812308,
stimBlast,18,0,0.2,0.4630649138268907,0.8,0.2,17,PRED,12,0.4630649138268907,1,images/picture_2.png,images/picture_1.png,0,"[11.733433509789464, 11.733433509789462]",11.733433509789464,11.733433509789462,images/picture_2.png,1,"[-11.733433509789462, 11.733433509789464]",-11.733433509789462,11.733433509789464,images/picture_3.png,2,"[11.733433509789462, -11.733433509789466]",11.733433509789462,-11.733433509789464,images/picture_2.png,1,"[-11.733433509789462, 11.733433509789464]","[-11.733433509789462, 11.733433509789464]","[-11.733433509789462, 11.733433509789464]",0.2,0.4630649138268907,0.6630649138268907,0.3369350861731093,1.0,0.4130649138268907,0,1.2,1.0,0.2,0,0,0,0,0,16,16,17,,,,,,,61.228858665999724,61.228858665999724,61.4290708329936,61.64606170798652,61.87886904098559,61.87886904098559,61.87886904098559,61.87886904098559,62.229326665983535,62.229326665983535,62.229326665983535,62.229326665983535,62.229326665983535,62.428509207995376,0,,,100001,001,2023-04-13_15h49.17.105,DMS_etROI_12-36_stimBlast,2022.2.4,59.95004649812308,
stimBlast,18,0,0.2,0.4630649138268907,0.8,0.2,2,PRED,12,0.4630649138268907,1,images/picture_2.png,images/picture_1.png,0,"[-11.733433509789466, -11.733433509789462]",-11.733433509789464,-11.733433509789462,images/picture_2.png,1,"[11.733433509789464, 11.733433509789462]",11.733433509789464,11.733433509789462,images/picture_3.png,2,"[-11.733433509789462, 11.733433509789464]",-11.733433509789462,11.733433509789464,images/picture_2.png,1,"[11.733433509789464, 11.733433509789462]","[11.733433509789464, 11.733433509789462]","[11.733433509789464, 11.733433509789462]",0.2,0.4630649138268907,0.6630649138268907,0.3369350861731093,1.0,0.4130649138268907,0,1.2,1.0,0.2,0,0,0,0,0,17,17,2,,,,,,,62.428509207995376,62.428509207995376,62.62931458299863,62.845576749998145,63.079248915979406,63.079248915979406,63.079248915979406,63.079248915979406,63.429576750000706,63.429576750000706,63.429576750000706,63.429576750000706,63.429576750000706,63.696132915996714,0,,,100001,001,2023-04-13_15h49.17.105,DMS_etROI_12-36_stimBlast,2022.2.4,59.95004649812308,
,,,,,,,,,,,,,,,,,,,,,,,,,,,,,,,,,,,,,,,,,,,0,0,0,0,,,,,,,,,63.696132915996714,75.70760983298533,,,,,,,,,,,,,,,,,,100001,001,2023-04-13_15h49.17.105,DMS_etROI_12-36_stimBlast,2022.2.4,59.95004649812308,
stimBlast,18,0,0.2,0.4630649138268907,0.8,0.2,24,UNPRED,12,0.4630649138268907,2,images/picture_3.png,images/picture_1.png,0,"[-11.733433509789466, -11.733433509789462]",-11.733433509789464,-11.733433509789462,images/picture_2.png,1,"[-11.733433509789462, 11.733433509789464]",-11.733433509789462,11.733433509789464,images/picture_3.png,2,"[11.733433509789464, 11.733433509789462]",11.733433509789464,11.733433509789462,images/picture_3.png,2,"[11.733433509789464, 11.733433509789462]","[11.733433509789464, 11.733433509789462]","[11.733433509789464, 11.733433509789462]",0.2,0.4630649138268907,0.6630649138268907,0.3369350861731093,1.0,0.4130649138268907,0,1.2,1.0,0.2,1,0,1,0,0,0,0,6,,,,,,,75.70760983298533,75.70760983298533,75.91197345798719,76.12871320798877,76.36318995800684,76.36318995800684,76.36318995800684,76.36318995800684,76.71275287499884,76.71275287499884,76.71275287499884,76.69546354099293,76.71275287499884,76.89632999998867,0,,,100001,001,2023-04-13_15h49.17.105,DMS_etROI_12-36_stimBlast,2022.2.4,59.95004649812308,
stimBlast,18,0,0.2,0.4630649138268907,0.8,0.2,33,UNPRED,12,0.4630649138268907,1,images/picture_2.png,images/picture_1.png,0,"[-11.733433509789462, 11.733433509789464]",-11.733433509789462,11.733433509789464,images/picture_2.png,1,"[-11.733433509789466, -11.733433509789462]",-11.733433509789464,-11.733433509789462,images/picture_3.png,2,"[11.733433509789464, 11.733433509789462]",11.733433509789464,11.733433509789462,images/picture_2.png,1,"[-11.733433509789466, -11.733433509789462]","[-11.733433509789466, -11.733433509789462]","[-11.733433509789466, -11.733433509789462]",0.2,0.4630649138268907,0.6630649138268907,0.3369350861731093,1.0,0.4130649138268907,0,1.2,1.0,0.2,1,0,1,0,0,1,1,15,,,,,,,76.89632999998867,76.89632999998867,77.0960052080045,77.31244654097827,77.54638733298634,77.54638733298634,77.54638733298634,77.54638733298634,77.89671616599662,77.89671616599662,77.89671616599662,77.89671616599662,77.89671616599662,78.09551049998845,0,,,100001,001,2023-04-13_15h49.17.105,DMS_etROI_12-36_stimBlast,2022.2.4,59.95004649812308,
stimBlast,18,0,0.2,0.4630649138268907,0.8,0.2,32,UNPRED,12,0.4630649138268907,1,images/picture_2.png,images/picture_1.png,0,"[-11.733433509789466, -11.733433509789462]",-11.733433509789464,-11.733433509789462,images/picture_2.png,1,"[11.733433509789462, -11.733433509789466]",11.733433509789462,-11.733433509789464,images/picture_3.png,2,"[11.733433509789464, 11.733433509789462]",11.733433509789464,11.733433509789462,images/picture_2.png,1,"[11.733433509789462, -11.733433509789466]","[11.733433509789462, -11.733433509789466]","[11.733433509789462, -11.733433509789466]",0.2,0.4630649138268907,0.6630649138268907,0.3369350861731093,1.0,0.4130649138268907,0,1.2,1.0,0.2,1,0,1,0,0,2,2,14,,,,,,,78.09551049998845,78.09551049998845,78.29604091600049,78.5126266249863,78.74562037500436,78.74562037500436,78.74562037500436,78.74562037500436,79.09622350000427,79.09622350000427,79.09622350000427,79.09622350000427,79.09622350000427,79.29549308298738,0,,,100001,001,2023-04-13_15h49.17.105,DMS_etROI_12-36_stimBlast,2022.2.4,59.95004649812308,
stimBlast,18,0,0.2,0.4630649138268907,0.8,0.2,22,UNPRED,12,0.4630649138268907,0,images/picture_1.png,images/picture_1.png,0,"[-11.733433509789462, 11.733433509789464]",-11.733433509789462,11.733433509789464,images/picture_2.png,1,"[11.733433509789462, -11.733433509789466]",11.733433509789462,-11.733433509789464,images/picture_3.png,2,"[-11.733433509789466, -11.733433509789462]",-11.733433509789464,-11.733433509789462,images/picture_1.png,0,"[-11.733433509789462, 11.733433509789464]","[-11.733433509789462, 11.733433509789464]","[-11.733433509789462, 11.733433509789464]",0.2,0.4630649138268907,0.6630649138268907,0.3369350861731093,1.0,0.4130649138268907,0,1.2,1.0,0.2,1,0,1,0,0,3,3,4,,,,,,,79.29549308298738,79.29549308298738,79.49612491598236,79.71253991598496,79.94615604099818,79.94615604099818,79.94615604099818,79.94615604099818,80.29606074999901,80.29606074999901,80.29606074999901,80.29606074999901,80.29606074999901,80.49578766600462,0,,,100001,001,2023-04-13_15h49.17.105,DMS_etROI_12-36_stimBlast,2022.2.4,59.95004649812308,
stimBlast,18,0,0.2,0.4630649138268907,0.8,0.2,30,UNPRED,12,0.4630649138268907,1,images/picture_2.png,images/picture_1.png,0,"[11.733433509789464, 11.733433509789462]",11.733433509789464,11.733433509789462,images/picture_2.png,1,"[-11.733433509789466, -11.733433509789462]",-11.733433509789464,-11.733433509789462,images/picture_3.png,2,"[11.733433509789462, -11.733433509789466]",11.733433509789462,-11.733433509789464,images/picture_2.png,1,"[-11.733433509789466, -11.733433509789462]","[-11.733433509789466, -11.733433509789462]","[-11.733433509789466, -11.733433509789462]",0.2,0.4630649138268907,0.6630649138268907,0.3369350861731093,1.0,0.4130649138268907,0,1.2,1.0,0.2,1,0,1,0,0,4,4,12,,,,,,,80.49578766600462,80.49578766600462,80.69666412498918,80.91245304100448,81.1464248749835,81.1464248749835,81.1464248749835,81.1464248749835,81.4962144579913,81.4962144579913,81.4962144579913,81.4962144579913,81.4962144579913,81.69538191598258,0,,,100001,001,2023-04-13_15h49.17.105,DMS_etROI_12-36_stimBlast,2022.2.4,59.95004649812308,
stimBlast,18,0,0.2,0.4630649138268907,0.8,0.2,34,UNPRED,12,0.4630649138268907,0,images/picture_1.png,images/picture_1.png,0,"[-11.733433509789466, -11.733433509789462]",-11.733433509789464,-11.733433509789462,images/picture_2.png,1,"[11.733433509789464, 11.733433509789462]",11.733433509789464,11.733433509789462,images/picture_3.png,2,"[11.733433509789462, -11.733433509789466]",11.733433509789462,-11.733433509789464,images/picture_1.png,0,"[-11.733433509789466, -11.733433509789462]","[-11.733433509789466, -11.733433509789462]","[-11.733433509789466, -11.733433509789462]",0.2,0.4630649138268907,0.6630649138268907,0.3369350861731093,1.0,0.4130649138268907,0,1.2,1.0,0.2,1,0,1,0,0,5,5,16,,,,,,,81.69538191598258,81.69538191598258,81.89666075000423,82.11272633299814,82.34532087499974,82.34532087499974,82.34532087499974,82.34532087499974,82.69627899999614,82.69627899999614,82.69627899999614,82.69627899999614,82.69627899999614,82.90795224998146,0,,,100001,001,2023-04-13_15h49.17.105,DMS_etROI_12-36_stimBlast,2022.2.4,59.95004649812308,
stimBlast,18,0,0.2,0.4630649138268907,0.8,0.2,26,UNPRED,12,0.4630649138268907,2,images/picture_3.png,images/picture_1.png,0,"[-11.733433509789466, -11.733433509789462]",-11.733433509789464,-11.733433509789462,images/picture_2.png,1,"[11.733433509789464, 11.733433509789462]",11.733433509789464,11.733433509789462,images/picture_3.png,2,"[11.733433509789462, -11.733433509789466]",11.733433509789462,-11.733433509789464,images/picture_3.png,2,"[11.733433509789462, -11.733433509789466]","[11.733433509789462, -11.733433509789466]","[11.733433509789462, -11.733433509789466]",0.2,0.4630649138268907,0.6630649138268907,0.3369350861731093,1.0,0.4130649138268907,0,1.2,1.0,0.2,1,0,1,0,0,6,6,8,,,,,,,82.90795224998146,82.90795224998146,83.11250383299193,83.3294147499837,83.5463652079925,83.5463652079925,83.5463652079925,83.5463652079925,83.89646645798348,83.89646645798348,83.89646645798348,83.89646645798348,83.89646645798348,84.09590804099571,0,,,100001,001,2023-04-13_15h49.17.105,DMS_etROI_12-36_stimBlast,2022.2.4,59.95004649812308,
stimBlast,18,0,0.2,0.4630649138268907,0.8,0.2,20,UNPRED,12,0.4630649138268907,0,images/picture_1.png,images/picture_1.png,0,"[-11.733433509789462, 11.733433509789464]",-11.733433509789462,11.733433509789464,images/picture_2.png,1,"[-11.733433509789466, -11.733433509789462]",-11.733433509789464,-11.733433509789462,images/picture_3.png,2,"[11.733433509789464, 11.733433509789462]",11.733433509789464,11.733433509789462,images/picture_1.png,0,"[-11.733433509789462, 11.733433509789464]","[-11.733433509789462, 11.733433509789464]","[-11.733433509789462, 11.733433509789464]",0.2,0.4630649138268907,0.6630649138268907,0.3369350861731093,1.0,0.4130649138268907,0,1.2,1.0,0.2,1,0,1,0,0,7,7,2,,,,,,,84.09590804099571,84.09590804099571,84.29594820798957,84.51267199998256,84.74619745797827,84.74619745797827,84.74619745797827,84.74619745797827,85.09624141600216,85.09624141600216,85.09624141600216,85.09624141600216,85.09624141600216,85.29708466600277,0,,,100001,001,2023-04-13_15h49.17.105,DMS_etROI_12-36_stimBlast,2022.2.4,59.95004649812308,
stimBlast,18,0,0.2,0.4630649138268907,0.8,0.2,27,UNPRED,12,0.4630649138268907,2,images/picture_3.png,images/picture_1.png,0,"[-11.733433509789462, 11.733433509789464]",-11.733433509789462,11.733433509789464,images/picture_2.png,1,"[11.733433509789462, -11.733433509789466]",11.733433509789462,-11.733433509789464,images/picture_3.png,2,"[-11.733433509789466, -11.733433509789462]",-11.733433509789464,-11.733433509789462,images/picture_3.png,2,"[-11.733433509789466, -11.733433509789462]","[-11.733433509789466, -11.733433509789462]","[-11.733433509789466, -11.733433509789462]",0.2,0.4630649138268907,0.6630649138268907,0.3369350861731093,1.0,0.4130649138268907,0,1.2,1.0,0.2,1,0,1,0,0,8,8,9,,,,,,,85.29708466600277,85.29708466600277,85.51225512498058,85.71201533300336,85.94553174998146,85.94553174998146,85.94553174998146,85.94553174998146,86.29530787499971,86.29530787499971,86.29530787499971,86.29530787499971,86.29530787499971,86.49557870798162,0,,,100001,001,2023-04-13_15h49.17.105,DMS_etROI_12-36_stimBlast,2022.2.4,59.95004649812308,
stimBlast,18,0,0.2,0.4630649138268907,0.8,0.2,31,UNPRED,12,0.4630649138268907,0,images/picture_1.png,images/picture_1.png,0,"[11.733433509789464, 11.733433509789462]",11.733433509789464,11.733433509789462,images/picture_2.png,1,"[-11.733433509789462, 11.733433509789464]",-11.733433509789462,11.733433509789464,images/picture_3.png,2,"[-11.733433509789466, -11.733433509789462]",-11.733433509789464,-11.733433509789462,images/picture_1.png,0,"[11.733433509789464, 11.733433509789462]","[11.733433509789464, 11.733433509789462]","[11.733433509789464, 11.733433509789462]",0.2,0.4630649138268907,0.6630649138268907,0.3369350861731093,1.0,0.4130649138268907,0,1.2,1.0,0.2,1,0,1,0,0,9,9,13,,,,,,,86.49557870798162,86.49557870798162,86.69621658299002,86.91247937499429,87.1462137500057,87.1462137500057,87.1462137500057,87.1462137500057,87.49519708298612,87.49519708298612,87.49519708298612,87.49519708298612,87.49519708298612,87.6955764159793,0,,,100001,001,2023-04-13_15h49.17.105,DMS_etROI_12-36_stimBlast,2022.2.4,59.95004649812308,
stimBlast,18,0,0.2,0.4630649138268907,0.8,0.2,28,UNPRED,12,0.4630649138268907,0,images/picture_1.png,images/picture_1.png,0,"[11.733433509789462, -11.733433509789466]",11.733433509789462,-11.733433509789464,images/picture_2.png,1,"[-11.733433509789466, -11.733433509789462]",-11.733433509789464,-11.733433509789462,images/picture_3.png,2,"[11.733433509789464, 11.733433509789462]",11.733433509789464,11.733433509789462,images/picture_1.png,0,"[11.733433509789462, -11.733433509789466]","[11.733433509789462, -11.733433509789466]","[11.733433509789462, -11.733433509789466]",0.2,0.4630649138268907,0.6630649138268907,0.3369350861731093,1.0,0.4130649138268907,0,1.2,1.0,0.2,1,0,1,0,0,10,10,10,,,,,,,87.6955764159793,87.6955764159793,87.8963658749999,88.11254274999374,88.34619566600304,88.34619566600304,88.34619566600304,88.34619566600304,88.6961719999963,88.6961719999963,88.6961719999963,88.6961719999963,88.6961719999963,88.90959549997933,0,,,100001,001,2023-04-13_15h49.17.105,DMS_etROI_12-36_stimBlast,2022.2.4,59.95004649812308,
stimBlast,18,0,0.2,0.4630649138268907,0.8,0.2,23,UNPRED,12,0.4630649138268907,2,images/picture_3.png,images/picture_1.png,0,"[-11.733433509789462, 11.733433509789464]",-11.733433509789462,11.733433509789464,images/picture_2.png,1,"[-11.733433509789466, -11.733433509789462]",-11.733433509789464,-11.733433509789462,images/picture_3.png,2,"[11.733433509789464, 11.733433509789462]",11.733433509789464,11.733433509789462,images/picture_3.png,2,"[11.733433509789464, 11.733433509789462]","[11.733433509789464, 11.733433509789462]","[11.733433509789464, 11.733433509789462]",0.2,0.4630649138268907,0.6630649138268907,0.3369350861731093,1.0,0.4130649138268907,0,1.2,1.0,0.2,1,0,1,0,0,11,11,5,,,,,,,88.90959549997933,88.90959549997933,89.11301741600619,89.32908958298503,89.54577899997821,89.54577899997821,89.54577899997821,89.54577899997821,89.89626729098381,89.89626729098381,89.89626729098381,89.89626729098381,89.89626729098381,90.0958833329787,0,,,100001,001,2023-04-13_15h49.17.105,DMS_etROI_12-36_stimBlast,2022.2.4,59.95004649812308,
stimBlast,18,0,0.2,0.4630649138268907,0.8,0.2,21,UNPRED,12,0.4630649138268907,1,images/picture_2.png,images/picture_1.png,0,"[-11.733433509789462, 11.733433509789464]",-11.733433509789462,11.733433509789464,images/picture_2.png,1,"[11.733433509789462, -11.733433509789466]",11.733433509789462,-11.733433509789464,images/picture_3.png,2,"[11.733433509789464, 11.733433509789462]",11.733433509789464,11.733433509789462,images/picture_2.png,1,"[11.733433509789462, -11.733433509789466]","[11.733433509789462, -11.733433509789466]","[11.733433509789462, -11.733433509789466]",0.2,0.4630649138268907,0.6630649138268907,0.3369350861731093,1.0,0.4130649138268907,0,1.2,1.0,0.2,1,0,1,0,0,12,12,3,,,,,,,90.0958833329787,90.0958833329787,90.29608400000143,90.5125632499985,90.74642341598519,90.74642341598519,90.74642341598519,90.74642341598519,91.09643416598556,91.09643416598556,91.09643416598556,91.09643416598556,91.09643416598556,91.30907279098756,0,,,100001,001,2023-04-13_15h49.17.105,DMS_etROI_12-36_stimBlast,2022.2.4,59.95004649812308,
stimBlast,18,0,0.2,0.4630649138268907,0.8,0.2,29,UNPRED,12,0.4630649138268907,2,images/picture_3.png,images/picture_1.png,0,"[11.733433509789462, -11.733433509789466]",11.733433509789462,-11.733433509789464,images/picture_2.png,1,"[-11.733433509789462, 11.733433509789464]",-11.733433509789462,11.733433509789464,images/picture_3.png,2,"[11.733433509789464, 11.733433509789462]",11.733433509789464,11.733433509789462,images/picture_3.png,2,"[11.733433509789464, 11.733433509789462]","[11.733433509789464, 11.733433509789462]","[11.733433509789464, 11.733433509789462]",0.2,0.4630649138268907,0.6630649138268907,0.3369350861731093,1.0,0.4130649138268907,0,1.2,1.0,0.2,1,0,1,0,0,13,13,11,,,,,,,91.30907279098756,91.30907279098756,91.51243933298974,91.72908925000229,91.94651358298142,91.94651358298142,91.94651358298142,91.94651358298142,92.29626479098806,92.29626479098806,92.29626479098806,92.29626479098806,92.29626479098806,92.51207058300497,0,,,100001,001,2023-04-13_15h49.17.105,DMS_etROI_12-36_stimBlast,2022.2.4,59.95004649812308,
stimBlast,18,0,0.2,0.4630649138268907,0.8,0.2,35,UNPRED,12,0.4630649138268907,0,images/picture_1.png,images/picture_1.png,0,"[-11.733433509789466, -11.733433509789462]",-11.733433509789464,-11.733433509789462,images/picture_2.png,1,"[11.733433509789462, -11.733433509789466]",11.733433509789462,-11.733433509789464,images/picture_3.png,2,"[-11.733433509789462, 11.733433509789464]",-11.733433509789462,11.733433509789464,images/picture_1.png,0,"[-11.733433509789466, -11.733433509789462]","[-11.733433509789466, -11.733433509789462]","[-11.733433509789466, -11.733433509789462]",0.2,0.4630649138268907,0.6630649138268907,0.3369350861731093,1.0,0.4130649138268907,0,1.2,1.0,0.2,1,0,1,0,0,14,14,17,,,,,,,92.51207058300497,92.51207058300497,92.71324120799545,92.92950312499306,93.16265183300129,93.16265183300129,93.16265183300129,93.16265183300129,93.51318524999078,93.51318524999078,93.51318524999078,93.51318524999078,93.51318524999078,93.72527199998149,0,,,100001,001,2023-04-13_15h49.17.105,DMS_etROI_12-36_stimBlast,2022.2.4,59.95004649812308,
stimBlast,18,0,0.2,0.4630649138268907,0.8,0.2,18,UNPRED,12,0.4630649138268907,2,images/picture_3.png,images/picture_1.png,0,"[-11.733433509789462, 11.733433509789464]",-11.733433509789462,11.733433509789464,images/picture_2.png,1,"[11.733433509789462, -11.733433509789466]",11.733433509789462,-11.733433509789464,images/picture_3.png,2,"[11.733433509789464, 11.733433509789462]",11.733433509789464,11.733433509789462,images/picture_3.png,2,"[11.733433509789464, 11.733433509789462]","[11.733433509789464, 11.733433509789462]","[11.733433509789464, 11.733433509789462]",0.2,0.4630649138268907,0.6630649138268907,0.3369350861731093,1.0,0.4130649138268907,0,1.2,1.0,0.2,1,0,1,0,0,15,15,0,,,,,,,93.72527199998149,93.72527199998149,93.92953487500199,94.14658587498707,94.36256704098196,94.36256704098196,94.36256704098196,94.36256704098196,94.71271941598388,94.71271941598388,94.71271941598388,94.71271941598388,94.71271941598388,94.91281883299234,0,,,100001,001,2023-04-13_15h49.17.105,DMS_etROI_12-36_stimBlast,2022.2.4,59.95004649812308,
stimBlast,18,0,0.2,0.4630649138268907,0.8,0.2,19,UNPRED,12,0.4630649138268907,0,images/picture_1.png,images/picture_1.png,0,"[-11.733433509789462, 11.733433509789464]",-11.733433509789462,11.733433509789464,images/picture_2.png,1,"[11.733433509789462, -11.733433509789466]",11.733433509789462,-11.733433509789464,images/picture_3.png,2,"[-11.733433509789466, -11.733433509789462]",-11.733433509789464,-11.733433509789462,images/picture_1.png,0,"[-11.733433509789462, 11.733433509789464]","[-11.733433509789462, 11.733433509789464]","[-11.733433509789462, 11.733433509789464]",0.2,0.4630649138268907,0.6630649138268907,0.3369350861731093,1.0,0.4130649138268907,0,1.2,1.0,0.2,1,0,1,0,0,16,16,1,,,,,,,94.91281883299234,94.91281883299234,95.11279991597985,95.32962937498814,95.57893141600653,95.57893141600653,95.57893141600653,95.57893141600653,95.92868945800001,95.92868945800001,95.92868945800001,95.91203795798356,95.92868945800001,96.111917000002,0,,,100001,001,2023-04-13_15h49.17.105,DMS_etROI_12-36_stimBlast,2022.2.4,59.95004649812308,
stimBlast,18,0,0.2,0.4630649138268907,0.8,0.2,25,UNPRED,12,0.4630649138268907,0,images/picture_1.png,images/picture_1.png,0,"[-11.733433509789466, -11.733433509789462]",-11.733433509789464,-11.733433509789462,images/picture_2.png,1,"[11.733433509789464, 11.733433509789462]",11.733433509789464,11.733433509789462,images/picture_3.png,2,"[-11.733433509789462, 11.733433509789464]",-11.733433509789462,11.733433509789464,images/picture_1.png,0,"[-11.733433509789466, -11.733433509789462]","[-11.733433509789466, -11.733433509789462]","[-11.733433509789466, -11.733433509789462]",0.2,0.4630649138268907,0.6630649138268907,0.3369350861731093,1.0,0.4130649138268907,0,1.2,1.0,0.2,1,0,1,0,0,17,17,7,,,,,,,96.111917000002,96.111917000002,96.31222424999578,96.52903241600143,96.76271749997977,96.76271749997977,96.76271749997977,96.76271749997977,97.11266008298844,97.11266008298844,97.11266008298844,97.0961672909907,97.11266008298844,97.41187166600139,0,,,100001,001,2023-04-13_15h49.17.105,DMS_etROI_12-36_stimBlast,2022.2.4,59.95004649812308,
,,,,,,,,,,,,,,,,,,,,,,,,,,,,,,,,,,,,,,,,,,,1,0,1,0,,,,,,,,,97.41187166600139,109.4439306659915,,,,,,,,,,,,,,,,,,100001,001,2023-04-13_15h49.17.105,DMS_etROI_12-36_stimBlast,2022.2.4,59.95004649812308,
stimBlast,18,0,0.2,0.4630649138268907,0.8,0.2,43,PRED,12,0.4630649138268907,0,images/picture_1.png,images/picture_1.png,0,"[-11.733433509789466, -11.733433509789462]",-11.733433509789464,-11.733433509789462,images/picture_2.png,1,"[11.733433509789464, 11.733433509789462]",11.733433509789464,11.733433509789462,images/picture_3.png,2,"[11.733433509789462, -11.733433509789466]",11.733433509789462,-11.733433509789464,images/picture_1.png,0,"[-11.733433509789466, -11.733433509789462]","[-11.733433509789466, -11.733433509789462]","[-11.733433509789466, -11.733433509789462]",0.2,0.4630649138268907,0.6630649138268907,0.3369350861731093,1.0,0.4130649138268907,0,1.2,1.0,0.2,2,0,2,0,0,0,0,7,,,,,,,109.4439306659915,109.4439306659915,109.6461883749871,109.8628752079967,110.11316624999745,110.11316624999745,110.11316624999745,110.11316624999745,110.4632780829852,110.4632780829852,110.4632780829852,110.4460426659789,110.4632780829852,110.64550837498973,0,,,100001,001,2023-04-13_15h49.17.105,DMS_etROI_12-36_stimBlast,2022.2.4,59.95004649812308,
stimBlast,18,0,0.2,0.4630649138268907,0.8,0.2,36,PRED,12,0.4630649138268907,0,images/picture_1.png,images/picture_1.png,0,"[-11.733433509789466, -11.733433509789462]",-11.733433509789464,-11.733433509789462,images/picture_2.png,1,"[11.733433509789464, 11.733433509789462]",11.733433509789464,11.733433509789462,images/picture_3.png,2,"[-11.733433509789462, 11.733433509789464]",-11.733433509789462,11.733433509789464,images/picture_1.png,0,"[-11.733433509789466, -11.733433509789462]","[-11.733433509789466, -11.733433509789462]","[-11.733433509789466, -11.733433509789462]",0.2,0.4630649138268907,0.6630649138268907,0.3369350861731093,1.0,0.4130649138268907,0,1.2,1.0,0.2,2,0,2,0,0,1,1,0,,,,,,,110.64550837498973,110.64550837498973,110.84617149998667,111.06284216599306,111.31341804098338,111.31341804098338,111.31341804098338,111.31341804098338,111.66300579099334,111.66300579099334,111.66300579099334,111.64644949999638,111.66300579099334,111.84586429098272,0,,,100001,001,2023-04-13_15h49.17.105,DMS_etROI_12-36_stimBlast,2022.2.4,59.95004649812308,
stimBlast,18,0,0.2,0.4630649138268907,0.8,0.2,46,PRED,12,0.4630649138268907,0,images/picture_1.png,images/picture_1.png,0,"[-11.733433509789466, -11.733433509789462]",-11.733433509789464,-11.733433509789462,images/picture_2.png,1,"[11.733433509789464, 11.733433509789462]",11.733433509789464,11.733433509789462,images/picture_3.png,2,"[-11.733433509789462, 11.733433509789464]",-11.733433509789462,11.733433509789464,images/picture_1.png,0,"[-11.733433509789466, -11.733433509789462]","[-11.733433509789466, -11.733433509789462]","[-11.733433509789466, -11.733433509789462]",0.2,0.4630649138268907,0.6630649138268907,0.3369350861731093,1.0,0.4130649138268907,0,1.2,1.0,0.2,2,0,2,0,0,2,2,10,,,,,,,111.84586429098272,111.84586429098272,112.0459596249857,112.26256516599096,112.49644854100188,112.49644854100188,112.49644854100188,112.49644854100188,112.84559787498438,112.84559787498438,112.84559787498438,112.84559787498438,112.84559787498438,113.04537879099371,0,,,100001,001,2023-04-13_15h49.17.105,DMS_etROI_12-36_stimBlast,2022.2.4,59.95004649812308,
stimBlast,18,0,0.2,0.4630649138268907,0.8,0.2,48,PRED,12,0.4630649138268907,0,images/picture_1.png,images/picture_1.png,0,"[-11.733433509789462, 11.733433509789464]",-11.733433509789462,11.733433509789464,images/picture_2.png,1,"[11.733433509789464, 11.733433509789462]",11.733433509789464,11.733433509789462,images/picture_3.png,2,"[-11.733433509789466, -11.733433509789462]",-11.733433509789464,-11.733433509789462,images/picture_1.png,0,"[-11.733433509789462, 11.733433509789464]","[-11.733433509789462, 11.733433509789464]","[-11.733433509789462, 11.733433509789464]",0.2,0.4630649138268907,0.6630649138268907,0.3369350861731093,1.0,0.4130649138268907,0,1.2,1.0,0.2,2,0,2,0,0,3,3,12,,,,,,,113.04537879099371,113.04537879099371,113.24644149999949,113.46305620798375,113.69638849998591,113.69638849998591,113.69638849998591,113.69638849998591,114.04611429100623,114.04611429100623,114.04611429100623,114.04611429100623,114.04611429100623,114.24591737499577,0,,,100001,001,2023-04-13_15h49.17.105,DMS_etROI_12-36_stimBlast,2022.2.4,59.95004649812308,
stimBlast,18,0,0.2,0.4630649138268907,0.8,0.2,37,PRED,12,0.4630649138268907,0,images/picture_1.png,images/picture_1.png,0,"[-11.733433509789462, 11.733433509789464]",-11.733433509789462,11.733433509789464,images/picture_2.png,1,"[11.733433509789464, 11.733433509789462]",11.733433509789464,11.733433509789462,images/picture_3.png,2,"[11.733433509789462, -11.733433509789466]",11.733433509789462,-11.733433509789464,images/picture_1.png,0,"[-11.733433509789462, 11.733433509789464]","[-11.733433509789462, 11.733433509789464]","[-11.733433509789462, 11.733433509789464]",0.2,0.4630649138268907,0.6630649138268907,0.3369350861731093,1.0,0.4130649138268907,0,1.2,1.0,0.2,2,0,2,0,0,4,4,1,,,,,,,114.24591737499577,114.24591737499577,114.44604941600119,114.66287979099434,114.89615250000497,114.89615250000497,114.89615250000497,114.89615250000497,115.24641879097908,115.24641879097908,115.24641879097908,115.24641879097908,115.24641879097908,115.44549045799067,0,,,100001,001,2023-04-13_15h49.17.105,DMS_etROI_12-36_stimBlast,2022.2.4,59.95004649812308,
stimBlast,18,0,0.2,0.4630649138268907,0.8,0.2,45,PRED,12,0.4630649138268907,0,images/picture_1.png,images/picture_1.png,0,"[11.733433509789462, -11.733433509789466]",11.733433509789462,-11.733433509789464,images/picture_2.png,1,"[-11.733433509789462, 11.733433509789464]",-11.733433509789462,11.733433509789464,images/picture_3.png,2,"[11.733433509789464, 11.733433509789462]",11.733433509789464,11.733433509789462,images/picture_1.png,0,"[11.733433509789462, -11.733433509789466]","[11.733433509789462, -11.733433509789466]","[11.733433509789462, -11.733433509789466]",0.2,0.4630649138268907,0.6630649138268907,0.3369350861731093,1.0,0.4130649138268907,0,1.2,1.0,0.2,2,0,2,0,0,5,5,9,,,,,,,115.44549045799067,115.44549045799067,115.64592962499592,115.86279774998548,116.09567495799274,116.09567495799274,116.09567495799274,116.09567495799274,116.44548562497948,116.44548562497948,116.44548562497948,116.44548562497948,116.44548562497948,116.64538537498447,0,,,100001,001,2023-04-13_15h49.17.105,DMS_etROI_12-36_stimBlast,2022.2.4,59.95004649812308,
stimBlast,18,0,0.2,0.4630649138268907,0.8,0.2,49,PRED,12,0.4630649138268907,0,images/picture_1.png,images/picture_1.png,0,"[-11.733433509789466, -11.733433509789462]",-11.733433509789464,-11.733433509789462,images/picture_2.png,1,"[-11.733433509789462, 11.733433509789464]",-11.733433509789462,11.733433509789464,images/picture_3.png,2,"[11.733433509789462, -11.733433509789466]",11.733433509789462,-11.733433509789464,images/picture_1.png,0,"[-11.733433509789466, -11.733433509789462]","[-11.733433509789466, -11.733433509789462]","[-11.733433509789466, -11.733433509789462]",0.2,0.4630649138268907,0.6630649138268907,0.3369350861731093,1.0,0.4130649138268907,0,1.2,1.0,0.2,2,0,2,0,0,6,6,13,,,,,,,116.64538537498447,116.64538537498447,116.8455551659863,117.06242474997998,117.29673858298338,117.29673858298338,117.29673858298338,117.29673858298338,117.64589362498373,117.64589362498373,117.64589362498373,117.62948674999643,117.64589362498373,117.82889633299783,0,,,100001,001,2023-04-13_15h49.17.105,DMS_etROI_12-36_stimBlast,2022.2.4,59.95004649812308,
stimBlast,18,0,0.2,0.4630649138268907,0.8,0.2,44,PRED,12,0.4630649138268907,0,images/picture_1.png,images/picture_1.png,0,"[-11.733433509789466, -11.733433509789462]",-11.733433509789464,-11.733433509789462,images/picture_2.png,1,"[11.733433509789462, -11.733433509789466]",11.733433509789462,-11.733433509789464,images/picture_3.png,2,"[-11.733433509789462, 11.733433509789464]",-11.733433509789462,11.733433509789464,images/picture_1.png,0,"[-11.733433509789466, -11.733433509789462]","[-11.733433509789466, -11.733433509789462]","[-11.733433509789466, -11.733433509789462]",0.2,0.4630649138268907,0.6630649138268907,0.3369350861731093,1.0,0.4130649138268907,0,1.2,1.0,0.2,2,0,2,0,0,7,7,8,,,,,,,117.82889633299783,117.82889633299783,118.0290741249919,118.24637354098377,118.47998595799436,118.47998595799436,118.47998595799436,118.47998595799436,118.82958037499338,118.82958037499338,118.82958037499338,118.82958037499338,118.82958037499338,119.02922075000242,0,,,100001,001,2023-04-13_15h49.17.105,DMS_etROI_12-36_stimBlast,2022.2.4,59.95004649812308,
stimBlast,18,0,0.2,0.4630649138268907,0.8,0.2,40,PRED,12,0.4630649138268907,0,images/picture_1.png,images/picture_1.png,0,"[-11.733433509789462, 11.733433509789464]",-11.733433509789462,11.733433509789464,images/picture_2.png,1,"[11.733433509789464, 11.733433509789462]",11.733433509789464,11.733433509789462,images/picture_3.png,2,"[-11.733433509789466, -11.733433509789462]",-11.733433509789464,-11.733433509789462,images/picture_1.png,0,"[-11.733433509789462, 11.733433509789464]","[-11.733433509789462, 11.733433509789464]","[-11.733433509789462, 11.733433509789464]",0.2,0.4630649138268907,0.6630649138268907,0.3369350861731093,1.0,0.4130649138268907,0,1.2,1.0,0.2,2,0,2,0,0,8,8,4,,,,,,,119.02922075000242,119.02922075000242,119.22960120800417,119.44634854097967,119.68007504098932,119.68007504098932,119.68007504098932,119.68007504098932,120.02943745799712,120.02943745799712,120.02943745799712,120.02943745799712,120.02943745799712,120.22876612498658,0,,,100001,001,2023-04-13_15h49.17.105,DMS_etROI_12-36_stimBlast,2022.2.4,59.95004649812308,
stimBlast,18,0,0.2,0.4630649138268907,0.8,0.2,39,PRED,12,0.4630649138268907,0,images/picture_1.png,images/picture_1.png,0,"[11.733433509789462, -11.733433509789466]",11.733433509789462,-11.733433509789464,images/picture_2.png,1,"[-11.733433509789462, 11.733433509789464]",-11.733433509789462,11.733433509789464,images/picture_3.png,2,"[-11.733433509789466, -11.733433509789462]",-11.733433509789464,-11.733433509789462,images/picture_1.png,0,"[11.733433509789462, -11.733433509789466]","[11.733433509789462, -11.733433509789466]","[11.733433509789462, -11.733433509789466]",0.2,0.4630649138268907,0.6630649138268907,0.3369350861731093,1.0,0.4130649138268907,0,1.2,1.0,0.2,2,0,2,0,0,9,9,3,,,,,,,120.22876612498658,120.22876612498658,120.42956854100339,120.6462067909888,120.87902945798123,120.87902945798123,120.87902945798123,120.87902945798123,121.2301839159918,121.2301839159918,121.2301839159918,121.2301839159918,121.2301839159918,121.42953083300381,0,,,100001,001,2023-04-13_15h49.17.105,DMS_etROI_12-36_stimBlast,2022.2.4,59.95004649812308,
stimBlast,18,0,0.2,0.4630649138268907,0.8,0.2,51,PRED,12,0.4630649138268907,0,images/picture_1.png,images/picture_1.png,0,"[-11.733433509789466, -11.733433509789462]",-11.733433509789464,-11.733433509789462,images/picture_2.png,1,"[-11.733433509789462, 11.733433509789464]",-11.733433509789462,11.733433509789464,images/picture_3.png,2,"[11.733433509789464, 11.733433509789462]",11.733433509789464,11.733433509789462,images/picture_1.png,0,"[-11.733433509789466, -11.733433509789462]","[-11.733433509789466, -11.733433509789462]","[-11.733433509789466, -11.733433509789462]",0.2,0.4630649138268907,0.6630649138268907,0.3369350861731093,1.0,0.4130649138268907,0,1.2,1.0,0.2,2,0,2,0,0,10,10,15,,,,,,,121.42953083300381,121.42953083300381,121.62980820800294,121.84598587499931,122.07901958300499,122.07901958300499,122.07901958300499,122.07901958300499,122.42934137498378,122.42934137498378,122.42934137498378,122.42934137498378,122.42934137498378,122.6289654999855,0,,,100001,001,2023-04-13_15h49.17.105,DMS_etROI_12-36_stimBlast,2022.2.4,59.95004649812308,
stimBlast,18,0,0.2,0.4630649138268907,0.8,0.2,41,PRED,12,0.4630649138268907,0,images/picture_1.png,images/picture_1.png,0,"[-11.733433509789466, -11.733433509789462]",-11.733433509789464,-11.733433509789462,images/picture_2.png,1,"[11.733433509789462, -11.733433509789466]",11.733433509789462,-11.733433509789464,images/picture_3.png,2,"[-11.733433509789462, 11.733433509789464]",-11.733433509789462,11.733433509789464,images/picture_1.png,0,"[-11.733433509789466, -11.733433509789462]","[-11.733433509789466, -11.733433509789462]","[-11.733433509789466, -11.733433509789462]",0.2,0.4630649138268907,0.6630649138268907,0.3369350861731093,1.0,0.4130649138268907,0,1.2,1.0,0.2,2,0,2,0,0,11,11,5,,,,,,,122.6289654999855,122.6289654999855,122.82950249998248,123.04591454099864,123.28015079098986,123.28015079098986,123.28015079098986,123.28015079098986,123.62955724998028,123.62955724998028,123.62955724998028,123.62955724998028,123.62955724998028,123.82882879098179,0,,,100001,001,2023-04-13_15h49.17.105,DMS_etROI_12-36_stimBlast,2022.2.4,59.95004649812308,
stimBlast,18,0,0.2,0.4630649138268907,0.8,0.2,47,PRED,12,0.4630649138268907,0,images/picture_1.png,images/picture_1.png,0,"[11.733433509789462, -11.733433509789466]",11.733433509789462,-11.733433509789464,images/picture_2.png,1,"[-11.733433509789466, -11.733433509789462]",-11.733433509789464,-11.733433509789462,images/picture_3.png,2,"[11.733433509789464, 11.733433509789462]",11.733433509789464,11.733433509789462,images/picture_1.png,0,"[11.733433509789462, -11.733433509789466]","[11.733433509789462, -11.733433509789466]","[11.733433509789462, -11.733433509789466]",0.2,0.4630649138268907,0.6630649138268907,0.3369350861731093,1.0,0.4130649138268907,0,1.2,1.0,0.2,2,0,2,0,0,12,12,11,,,,,,,123.82882879098179,123.82882879098179,124.02984241599916,124.24615695799002,124.48002925000037,124.48002925000037,124.48002925000037,124.48002925000037,124.82993224999518,124.82993224999518,124.82993224999518,124.82993224999518,124.82993224999518,125.02910312497988,0,,,100001,001,2023-04-13_15h49.17.105,DMS_etROI_12-36_stimBlast,2022.2.4,59.95004649812308,
stimBlast,18,0,0.2,0.4630649138268907,0.8,0.2,53,PRED,12,0.4630649138268907,0,images/picture_1.png,images/picture_1.png,0,"[11.733433509789462, -11.733433509789466]",11.733433509789462,-11.733433509789464,images/picture_2.png,1,"[-11.733433509789462, 11.733433509789464]",-11.733433509789462,11.733433509789464,images/picture_3.png,2,"[11.733433509789464, 11.733433509789462]",11.733433509789464,11.733433509789462,images/picture_1.png,0,"[11.733433509789462, -11.733433509789466]","[11.733433509789462, -11.733433509789466]","[11.733433509789462, -11.733433509789466]",0.2,0.4630649138268907,0.6630649138268907,0.3369350861731093,1.0,0.4130649138268907,0,1.2,1.0,0.2,2,0,2,0,0,13,13,17,,,,,,,125.02910312497988,125.02910312497988,125.22947645798558,125.4458637079806,125.67976037500193,125.67976037500193,125.67976037500193,125.67976037500193,126.02956816600636,126.02956816600636,126.02956816600636,126.02956816600636,126.02956816600636,126.22898174999864,0,,,100001,001,2023-04-13_15h49.17.105,DMS_etROI_12-36_stimBlast,2022.2.4,59.95004649812308,
stimBlast,18,0,0.2,0.4630649138268907,0.8,0.2,38,PRED,12,0.4630649138268907,0,images/picture_1.png,images/picture_1.png,0,"[11.733433509789464, 11.733433509789462]",11.733433509789464,11.733433509789462,images/picture_2.png,1,"[11.733433509789462, -11.733433509789466]",11.733433509789462,-11.733433509789464,images/picture_3.png,2,"[-11.733433509789462, 11.733433509789464]",-11.733433509789462,11.733433509789464,images/picture_1.png,0,"[11.733433509789464, 11.733433509789462]","[11.733433509789464, 11.733433509789462]","[11.733433509789464, 11.733433509789462]",0.2,0.4630649138268907,0.6630649138268907,0.3369350861731093,1.0,0.4130649138268907,0,1.2,1.0,0.2,2,0,2,0,0,14,14,2,,,,,,,126.22898174999864,126.22898174999864,126.4288599579886,126.64581179097877,126.87897391599836,126.87897391599836,126.87897391599836,126.87897391599836,127.22915058300714,127.22915058300714,127.22915058300714,127.22915058300714,127.22915058300714,127.42896379099693,0,,,100001,001,2023-04-13_15h49.17.105,DMS_etROI_12-36_stimBlast,2022.2.4,59.95004649812308,
stimBlast,18,0,0.2,0.4630649138268907,0.8,0.2,50,PRED,12,0.4630649138268907,0,images/picture_1.png,images/picture_1.png,0,"[11.733433509789464, 11.733433509789462]",11.733433509789464,11.733433509789462,images/picture_2.png,1,"[-11.733433509789466, -11.733433509789462]",-11.733433509789464,-11.733433509789462,images/picture_3.png,2,"[-11.733433509789462, 11.733433509789464]",-11.733433509789462,11.733433509789464,images/picture_1.png,0,"[11.733433509789464, 11.733433509789462]","[11.733433509789464, 11.733433509789462]","[11.733433509789464, 11.733433509789462]",0.2,0.4630649138268907,0.6630649138268907,0.3369350861731093,1.0,0.4130649138268907,0,1.2,1.0,0.2,2,0,2,0,0,15,15,14,,,,,,,127.42896379099693,127.42896379099693,127.62952833299641,127.84630124998512,128.07858033300727,128.07858033300727,128.07858033300727,128.07858033300727,128.42972049998934,128.42972049998934,128.42972049998934,128.42972049998934,128.42972049998934,128.62898624999798,0,,,100001,001,2023-04-13_15h49.17.105,DMS_etROI_12-36_stimBlast,2022.2.4,59.95004649812308,
stimBlast,18,0,0.2,0.4630649138268907,0.8,0.2,42,PRED,12,0.4630649138268907,0,images/picture_1.png,images/picture_1.png,0,"[11.733433509789462, -11.733433509789466]",11.733433509789462,-11.733433509789464,images/picture_2.png,1,"[11.733433509789464, 11.733433509789462]",11.733433509789464,11.733433509789462,images/picture_3.png,2,"[-11.733433509789462, 11.733433509789464]",-11.733433509789462,11.733433509789464,images/picture_1.png,0,"[11.733433509789462, -11.733433509789466]","[11.733433509789462, -11.733433509789466]","[11.733433509789462, -11.733433509789466]",0.2,0.4630649138268907,0.6630649138268907,0.3369350861731093,1.0,0.4130649138268907,0,1.2,1.0,0.2,2,0,2,0,0,16,16,6,,,,,,,128.62898624999798,128.62898624999798,128.8295032499882,129.04640770799597,129.2798538749921,129.2798538749921,129.2798538749921,129.2798538749921,129.62952695798595,129.62952695798595,129.62952695798595,129.62952695798595,129.62952695798595,129.82908558298368,0,,,100001,001,2023-04-13_15h49.17.105,DMS_etROI_12-36_stimBlast,2022.2.4,59.95004649812308,
stimBlast,18,0,0.2,0.4630649138268907,0.8,0.2,52,PRED,12,0.4630649138268907,0,images/picture_1.png,images/picture_1.png,0,"[11.733433509789462, -11.733433509789466]",11.733433509789462,-11.733433509789464,images/picture_2.png,1,"[-11.733433509789466, -11.733433509789462]",-11.733433509789464,-11.733433509789462,images/picture_3.png,2,"[-11.733433509789462, 11.733433509789464]",-11.733433509789462,11.733433509789464,images/picture_1.png,0,"[11.733433509789462, -11.733433509789466]","[11.733433509789462, -11.733433509789466]","[11.733433509789462, -11.733433509789466]",0.2,0.4630649138268907,0.6630649138268907,0.3369350861731093,1.0,0.4130649138268907,0,1.2,1.0,0.2,2,0,2,0,0,17,17,16,,,,,,,129.82908558298368,129.82908558298368,130.02974833300686,130.2459941249981,130.48000004098867,130.48000004098867,130.48000004098867,130.48000004098867,130.82971941598225,130.82971941598225,130.82971941598225,130.82971941598225,130.82971941598225,131.23557170800632,0,,,100001,001,2023-04-13_15h49.17.105,DMS_etROI_12-36_stimBlast,2022.2.4,59.95004649812308,
,,,,,,,,,,,,,,,,,,,,,,,,,,,,,,,,,,,,,,,,,,,2,0,2,0,,,,,,,,,131.23557170800632,143.26339974999428,,,,,,,,,,,,,,,,,,100001,001,2023-04-13_15h49.17.105,DMS_etROI_12-36_stimBlast,2022.2.4,59.95004649812308,
stimBlast,18,0,0.2,0.4630649138268907,0.8,0.2,70,UNPRED,12,0.4630649138268907,2,images/picture_3.png,images/picture_1.png,0,"[11.733433509789464, 11.733433509789462]",11.733433509789464,11.733433509789462,images/picture_2.png,1,"[-11.733433509789466, -11.733433509789462]",-11.733433509789464,-11.733433509789462,images/picture_3.png,2,"[-11.733433509789462, 11.733433509789464]",-11.733433509789462,11.733433509789464,images/picture_3.png,2,"[-11.733433509789462, 11.733433509789464]","[-11.733433509789462, 11.733433509789464]","[-11.733433509789462, 11.733433509789464]",0.2,0.4630649138268907,0.6630649138268907,0.3369350861731093,1.0,0.4130649138268907,0,1.2,1.0,0.2,3,0,3,0,0,0,0,16,,,,,,,143.26339974999428,143.26339974999428,143.47870804098784,143.67873858299572,143.91230724999332,143.91230724999332,143.91230724999332,143.91230724999332,144.2626496659941,144.2626496659941,144.2626496659941,144.2626496659941,144.2626496659941,144.46204712498002,0,,,100001,001,2023-04-13_15h49.17.105,DMS_etROI_12-36_stimBlast,2022.2.4,59.95004649812308,
stimBlast,18,0,0.2,0.4630649138268907,0.8,0.2,63,UNPRED,12,0.4630649138268907,1,images/picture_2.png,images/picture_1.png,0,"[11.733433509789462, -11.733433509789466]",11.733433509789462,-11.733433509789464,images/picture_2.png,1,"[-11.733433509789462, 11.733433509789464]",-11.733433509789462,11.733433509789464,images/picture_3.png,2,"[11.733433509789464, 11.733433509789462]",11.733433509789464,11.733433509789462,images/picture_2.png,1,"[-11.733433509789462, 11.733433509789464]","[-11.733433509789462, 11.733433509789464]","[-11.733433509789462, 11.733433509789464]",0.2,0.4630649138268907,0.6630649138268907,0.3369350861731093,1.0,0.4130649138268907,0,1.2,1.0,0.2,3,0,3,0,0,1,1,9,,,,,,,144.46204712498002,144.46204712498002,144.66241299998364,144.8791377079906,145.11227462498937,145.11227462498937,145.11227462498937,145.11227462498937,145.46230508299777,145.46230508299777,145.46230508299777,145.46230508299777,145.46230508299777,145.66205250000348,0,,,100001,001,2023-04-13_15h49.17.105,DMS_etROI_12-36_stimBlast,2022.2.4,59.95004649812308,
stimBlast,18,0,0.2,0.4630649138268907,0.8,0.2,54,UNPRED,12,0.4630649138268907,0,images/picture_1.png,images/picture_1.png,0,"[11.733433509789462, -11.733433509789466]",11.733433509789462,-11.733433509789464,images/picture_2.png,1,"[-11.733433509789462, 11.733433509789464]",-11.733433509789462,11.733433509789464,images/picture_3.png,2,"[11.733433509789464, 11.733433509789462]",11.733433509789464,11.733433509789462,images/picture_1.png,0,"[11.733433509789462, -11.733433509789466]","[11.733433509789462, -11.733433509789466]","[11.733433509789462, -11.733433509789466]",0.2,0.4630649138268907,0.6630649138268907,0.3369350861731093,1.0,0.4130649138268907,0,1.2,1.0,0.2,3,0,3,0,0,2,2,0,,,,,,,145.66205250000348,145.66205250000348,145.8630868329783,146.0795177499822,146.3125965409854,146.3125965409854,146.3125965409854,146.3125965409854,146.662065624987,146.662065624987,146.662065624987,146.64658095798222,146.662065624987,146.8623953750066,0,,,100001,001,2023-04-13_15h49.17.105,DMS_etROI_12-36_stimBlast,2022.2.4,59.95004649812308,
stimBlast,18,0,0.2,0.4630649138268907,0.8,0.2,61,UNPRED,12,0.4630649138268907,2,images/picture_3.png,images/picture_1.png,0,"[-11.733433509789462, 11.733433509789464]",-11.733433509789462,11.733433509789464,images/picture_2.png,1,"[-11.733433509789466, -11.733433509789462]",-11.733433509789464,-11.733433509789462,images/picture_3.png,2,"[11.733433509789464, 11.733433509789462]",11.733433509789464,11.733433509789462,images/picture_3.png,2,"[11.733433509789464, 11.733433509789462]","[11.733433509789464, 11.733433509789462]","[11.733433509789464, 11.733433509789462]",0.2,0.4630649138268907,0.6630649138268907,0.3369350861731093,1.0,0.4130649138268907,0,1.2,1.0,0.2,3,0,3,0,0,3,3,7,,,,,,,146.8623953750066,146.8623953750066,147.06242558298982,147.27886704099365,147.51245466599357,147.51245466599357,147.51245466599357,147.51245466599357,147.86296149998088,147.86296149998088,147.86296149998088,147.86296149998088,147.86296149998088,148.0630560409918,0,,,100001,001,2023-04-13_15h49.17.105,DMS_etROI_12-36_stimBlast,2022.2.4,59.95004649812308,
stimBlast,18,0,0.2,0.4630649138268907,0.8,0.2,60,UNPRED,12,0.4630649138268907,1,images/picture_2.png,images/picture_1.png,0,"[11.733433509789464, 11.733433509789462]",11.733433509789464,11.733433509789462,images/picture_2.png,1,"[-11.733433509789466, -11.733433509789462]",-11.733433509789464,-11.733433509789462,images/picture_3.png,2,"[11.733433509789462, -11.733433509789466]",11.733433509789462,-11.733433509789464,images/picture_2.png,1,"[-11.733433509789466, -11.733433509789462]","[-11.733433509789466, -11.733433509789462]","[-11.733433509789466, -11.733433509789462]",0.2,0.4630649138268907,0.6630649138268907,0.3369350861731093,1.0,0.4130649138268907,0,1.2,1.0,0.2,3,0,3,0,0,4,4,6,,,,,,,148.0630560409918,148.0630560409918,148.26264054098283,148.47944812499918,148.71304029098246,148.71304029098246,148.71304029098246,148.71304029098246,149.06361474998994,149.06361474998994,149.06361474998994,149.06361474998994,149.06361474998994,149.26234479100094,0,,,100001,001,2023-04-13_15h49.17.105,DMS_etROI_12-36_stimBlast,2022.2.4,59.95004649812308,
stimBlast,18,0,0.2,0.4630649138268907,0.8,0.2,69,UNPRED,12,0.4630649138268907,0,images/picture_1.png,images/picture_1.png,0,"[-11.733433509789462, 11.733433509789464]",-11.733433509789462,11.733433509789464,images/picture_2.png,1,"[11.733433509789464, 11.733433509789462]",11.733433509789464,11.733433509789462,images/picture_3.png,2,"[-11.733433509789466, -11.733433509789462]",-11.733433509789464,-11.733433509789462,images/picture_1.png,0,"[-11.733433509789462, 11.733433509789464]","[-11.733433509789462, 11.733433509789464]","[-11.733433509789462, 11.733433509789464]",0.2,0.4630649138268907,0.6630649138268907,0.3369350861731093,1.0,0.4130649138268907,0,1.2,1.0,0.2,3,0,3,0,0,5,5,15,,,,,,,149.26234479100094,149.26234479100094,149.46271587497904,149.6793283750012,149.9127517080051,149.9127517080051,149.9127517080051,149.9127517080051,150.2633942909888,150.2633942909888,150.2633942909888,150.2633942909888,150.2633942909888,150.4751772499876,0,,,100001,001,2023-04-13_15h49.17.105,DMS_etROI_12-36_stimBlast,2022.2.4,59.95004649812308,
stimBlast,18,0,0.2,0.4630649138268907,0.8,0.2,71,UNPRED,12,0.4630649138268907,2,images/picture_3.png,images/picture_1.png,0,"[-11.733433509789466, -11.733433509789462]",-11.733433509789464,-11.733433509789462,images/picture_2.png,1,"[-11.733433509789462, 11.733433509789464]",-11.733433509789462,11.733433509789464,images/picture_3.png,2,"[11.733433509789464, 11.733433509789462]",11.733433509789464,11.733433509789462,images/picture_3.png,2,"[11.733433509789464, 11.733433509789462]","[11.733433509789464, 11.733433509789462]","[11.733433509789464, 11.733433509789462]",0.2,0.4630649138268907,0.6630649138268907,0.3369350861731093,1.0,0.4130649138268907,0,1.2,1.0,0.2,3,0,3,0,0,6,6,17,,,,,,,150.4751772499876,150.4751772499876,150.67934112498187,150.89568449999206,151.11374958298984,151.11374958298984,151.11374958298984,151.11374958298984,151.46313308298704,151.46313308298704,151.46313308298704,151.46313308298704,151.46313308298704,151.66315687500173,0,,,100001,001,2023-04-13_15h49.17.105,DMS_etROI_12-36_stimBlast,2022.2.4,59.95004649812308,
stimBlast,18,0,0.2,0.4630649138268907,0.8,0.2,56,UNPRED,12,0.4630649138268907,1,images/picture_2.png,images/picture_1.png,0,"[11.733433509789462, -11.733433509789466]",11.733433509789462,-11.733433509789464,images/picture_2.png,1,"[-11.733433509789466, -11.733433509789462]",-11.733433509789464,-11.733433509789462,images/picture_3.png,2,"[-11.733433509789462, 11.733433509789464]",-11.733433509789462,11.733433509789464,images/picture_2.png,1,"[-11.733433509789466, -11.733433509789462]","[-11.733433509789466, -11.733433509789462]","[-11.733433509789466, -11.733433509789462]",0.2,0.4630649138268907,0.6630649138268907,0.3369350861731093,1.0,0.4130649138268907,0,1.2,1.0,0.2,3,0,3,0,0,7,7,2,,,,,,,151.66315687500173,151.66315687500173,151.86296066598152,152.0802058329864,152.31341579099535,152.31341579099535,152.31341579099535,152.31341579099535,152.6628733749967,152.6628733749967,152.6628733749967,152.6628733749967,152.6628733749967,152.86217112498707,0,,,100001,001,2023-04-13_15h49.17.105,DMS_etROI_12-36_stimBlast,2022.2.4,59.95004649812308,
stimBlast,18,0,0.2,0.4630649138268907,0.8,0.2,62,UNPRED,12,0.4630649138268907,0,images/picture_1.png,images/picture_1.png,0,"[11.733433509789462, -11.733433509789466]",11.733433509789462,-11.733433509789464,images/picture_2.png,1,"[11.733433509789464, 11.733433509789462]",11.733433509789464,11.733433509789462,images/picture_3.png,2,"[-11.733433509789462, 11.733433509789464]",-11.733433509789462,11.733433509789464,images/picture_1.png,0,"[11.733433509789462, -11.733433509789466]","[11.733433509789462, -11.733433509789466]","[11.733433509789462, -11.733433509789466]",0.2,0.4630649138268907,0.6630649138268907,0.3369350861731093,1.0,0.4130649138268907,0,1.2,1.0,0.2,3,0,3,0,0,8,8,8,,,,,,,152.86217112498707,152.86217112498707,153.0627007499861,153.27965645800577,153.5123910830007,153.5123910830007,153.5123910830007,153.5123910830007,153.86301287499373,153.86301287499373,153.86301287499373,153.86301287499373,153.86301287499373,154.0753629579849,0,,,100001,001,2023-04-13_15h49.17.105,DMS_etROI_12-36_stimBlast,2022.2.4,59.95004649812308,
stimBlast,18,0,0.2,0.4630649138268907,0.8,0.2,57,UNPRED,12,0.4630649138268907,2,images/picture_3.png,images/picture_1.png,0,"[11.733433509789462, -11.733433509789466]",11.733433509789462,-11.733433509789464,images/picture_2.png,1,"[-11.733433509789462, 11.733433509789464]",-11.733433509789462,11.733433509789464,images/picture_3.png,2,"[-11.733433509789466, -11.733433509789462]",-11.733433509789464,-11.733433509789462,images/picture_3.png,2,"[-11.733433509789466, -11.733433509789462]","[-11.733433509789466, -11.733433509789462]","[-11.733433509789466, -11.733433509789462]",0.2,0.4630649138268907,0.6630649138268907,0.3369350861731093,1.0,0.4130649138268907,0,1.2,1.0,0.2,3,0,3,0,0,9,9,3,,,,,,,154.0753629579849,154.0753629579849,154.2793786249822,154.49612733299728,154.71341708299587,154.71341708299587,154.71341708299587,154.71341708299587,155.06280637500458,155.06280637500458,155.06280637500458,155.06280637500458,155.06280637500458,155.26301054100622,0,,,100001,001,2023-04-13_15h49.17.105,DMS_etROI_12-36_stimBlast,2022.2.4,59.95004649812308,
stimBlast,18,0,0.2,0.4630649138268907,0.8,0.2,64,UNPRED,12,0.4630649138268907,0,images/picture_1.png,images/picture_1.png,0,"[11.733433509789464, 11.733433509789462]",11.733433509789464,11.733433509789462,images/picture_2.png,1,"[11.733433509789462, -11.733433509789466]",11.733433509789462,-11.733433509789464,images/picture_3.png,2,"[-11.733433509789462, 11.733433509789464]",-11.733433509789462,11.733433509789464,images/picture_1.png,0,"[11.733433509789464, 11.733433509789462]","[11.733433509789464, 11.733433509789462]","[11.733433509789464, 11.733433509789462]",0.2,0.4630649138268907,0.6630649138268907,0.3369350861731093,1.0,0.4130649138268907,0,1.2,1.0,0.2,3,0,3,0,0,10,10,10,,,,,,,155.26301054100622,155.26301054100622,155.46270350000123,155.67921754097915,155.913379332982,155.913379332982,155.913379332982,155.913379332982,156.26337908298592,156.26337908298592,156.26337908298592,156.26337908298592,156.26337908298592,156.46233833298902,0,,,100001,001,2023-04-13_15h49.17.105,DMS_etROI_12-36_stimBlast,2022.2.4,59.95004649812308,
stimBlast,18,0,0.2,0.4630649138268907,0.8,0.2,55,UNPRED,12,0.4630649138268907,1,images/picture_2.png,images/picture_1.png,0,"[-11.733433509789466, -11.733433509789462]",-11.733433509789464,-11.733433509789462,images/picture_2.png,1,"[-11.733433509789462, 11.733433509789464]",-11.733433509789462,11.733433509789464,images/picture_3.png,2,"[11.733433509789462, -11.733433509789466]",11.733433509789462,-11.733433509789464,images/picture_2.png,1,"[-11.733433509789462, 11.733433509789464]","[-11.733433509789462, 11.733433509789464]","[-11.733433509789462, 11.733433509789464]",0.2,0.4630649138268907,0.6630649138268907,0.3369350861731093,1.0,0.4130649138268907,0,1.2,1.0,0.2,3,0,3,0,0,11,11,1,,,,,,,156.46233833298902,156.46233833298902,156.66299095799332,156.87903804099187,157.11232366599143,157.11232366599143,157.11232366599143,157.11232366599143,157.4623648749839,157.4623648749839,157.4623648749839,157.4623648749839,157.4623648749839,157.66253737499937,0,,,100001,001,2023-04-13_15h49.17.105,DMS_etROI_12-36_stimBlast,2022.2.4,59.95004649812308,
stimBlast,18,0,0.2,0.4630649138268907,0.8,0.2,59,UNPRED,12,0.4630649138268907,2,images/picture_3.png,images/picture_1.png,0,"[-11.733433509789462, 11.733433509789464]",-11.733433509789462,11.733433509789464,images/picture_2.png,1,"[11.733433509789464, 11.733433509789462]",11.733433509789464,11.733433509789462,images/picture_3.png,2,"[-11.733433509789466, -11.733433509789462]",-11.733433509789464,-11.733433509789462,images/picture_3.png,2,"[-11.733433509789466, -11.733433509789462]","[-11.733433509789466, -11.733433509789462]","[-11.733433509789466, -11.733433509789462]",0.2,0.4630649138268907,0.6630649138268907,0.3369350861731093,1.0,0.4130649138268907,0,1.2,1.0,0.2,3,0,3,0,0,12,12,5,,,,,,,157.66253737499937,157.66253737499937,157.86269124998944,158.0788584999973,158.31296637500054,158.31296637500054,158.31296637500054,158.31296637500054,158.66260533299646,158.66260533299646,158.66260533299646,158.66260533299646,158.66260533299646,158.8625177909853,0,,,100001,001,2023-04-13_15h49.17.105,DMS_etROI_12-36_stimBlast,2022.2.4,59.95004649812308,
stimBlast,18,0,0.2,0.4630649138268907,0.8,0.2,68,UNPRED,12,0.4630649138268907,0,images/picture_1.png,images/picture_1.png,0,"[11.733433509789462, -11.733433509789466]",11.733433509789462,-11.733433509789464,images/picture_2.png,1,"[11.733433509789464, 11.733433509789462]",11.733433509789464,11.733433509789462,images/picture_3.png,2,"[-11.733433509789466, -11.733433509789462]",-11.733433509789464,-11.733433509789462,images/picture_1.png,0,"[11.733433509789462, -11.733433509789466]","[11.733433509789462, -11.733433509789466]","[11.733433509789462, -11.733433509789466]",0.2,0.4630649138268907,0.6630649138268907,0.3369350861731093,1.0,0.4130649138268907,0,1.2,1.0,0.2,3,0,3,0,0,13,13,14,,,,,,,158.8625177909853,158.8625177909853,159.06274979098816,159.2793094579829,159.51296683299006,159.51296683299006,159.51296683299006,159.51296683299006,159.86407170799794,159.86407170799794,159.86407170799794,159.86407170799794,159.86407170799794,160.0792046249844,0,,,100001,001,2023-04-13_15h49.17.105,DMS_etROI_12-36_stimBlast,2022.2.4,59.95004649812308,
stimBlast,18,0,0.2,0.4630649138268907,0.8,0.2,67,UNPRED,12,0.4630649138268907,1,images/picture_2.png,images/picture_1.png,0,"[11.733433509789462, -11.733433509789466]",11.733433509789462,-11.733433509789464,images/picture_2.png,1,"[-11.733433509789462, 11.733433509789464]",-11.733433509789462,11.733433509789464,images/picture_3.png,2,"[-11.733433509789466, -11.733433509789462]",-11.733433509789464,-11.733433509789462,images/picture_2.png,1,"[-11.733433509789462, 11.733433509789464]","[-11.733433509789462, 11.733433509789464]","[-11.733433509789462, 11.733433509789464]",0.2,0.4630649138268907,0.6630649138268907,0.3369350861731093,1.0,0.4130649138268907,0,1.2,1.0,0.2,3,0,3,0,0,14,14,13,,,,,,,160.0792046249844,160.0792046249844,160.27925862499978,160.49650045798626,160.72977549998905,160.72977549998905,160.72977549998905,160.72977549998905,161.0797743749863,161.0797743749863,161.0797743749863,161.0797743749863,161.0797743749863,161.2791240410006,0,,,100001,001,2023-04-13_15h49.17.105,DMS_etROI_12-36_stimBlast,2022.2.4,59.95004649812308,
stimBlast,18,0,0.2,0.4630649138268907,0.8,0.2,66,UNPRED,12,0.4630649138268907,1,images/picture_2.png,images/picture_1.png,0,"[-11.733433509789462, 11.733433509789464]",-11.733433509789462,11.733433509789464,images/picture_2.png,1,"[-11.733433509789466, -11.733433509789462]",-11.733433509789464,-11.733433509789462,images/picture_3.png,2,"[11.733433509789464, 11.733433509789462]",11.733433509789464,11.733433509789462,images/picture_2.png,1,"[-11.733433509789466, -11.733433509789462]","[-11.733433509789466, -11.733433509789462]","[-11.733433509789466, -11.733433509789462]",0.2,0.4630649138268907,0.6630649138268907,0.3369350861731093,1.0,0.4130649138268907,0,1.2,1.0,0.2,3,0,3,0,0,15,15,12,,,,,,,161.2791240410006,161.2791240410006,161.47964499998488,161.69662908298778,161.92972133299918,161.92972133299918,161.92972133299918,161.92972133299918,162.27968854099163,162.27968854099163,162.27968854099163,162.27968854099163,162.27968854099163,162.4791461249988,0,,,100001,001,2023-04-13_15h49.17.105,DMS_etROI_12-36_stimBlast,2022.2.4,59.95004649812308,
stimBlast,18,0,0.2,0.4630649138268907,0.8,0.2,65,UNPRED,12,0.4630649138268907,1,images/picture_2.png,images/picture_1.png,0,"[11.733433509789464, 11.733433509789462]",11.733433509789464,11.733433509789462,images/picture_2.png,1,"[11.733433509789462, -11.733433509789466]",11.733433509789462,-11.733433509789464,images/picture_3.png,2,"[-11.733433509789466, -11.733433509789462]",-11.733433509789464,-11.733433509789462,images/picture_2.png,1,"[11.733433509789462, -11.733433509789466]","[11.733433509789462, -11.733433509789466]","[11.733433509789462, -11.733433509789466]",0.2,0.4630649138268907,0.6630649138268907,0.3369350861731093,1.0,0.4130649138268907,0,1.2,1.0,0.2,3,0,3,0,0,16,16,11,,,,,,,162.4791461249988,162.4791461249988,162.6797375830065,162.8959455830045,163.1296770409972,163.1296770409972,163.1296770409972,163.1296770409972,163.47943616600242,163.47943616600242,163.47943616600242,163.47943616600242,163.47943616600242,163.67913158299052,0,,,100001,001,2023-04-13_15h49.17.105,DMS_etROI_12-36_stimBlast,2022.2.4,59.95004649812308,
stimBlast,18,0,0.2,0.4630649138268907,0.8,0.2,58,UNPRED,12,0.4630649138268907,0,images/picture_1.png,images/picture_1.png,0,"[-11.733433509789466, -11.733433509789462]",-11.733433509789464,-11.733433509789462,images/picture_2.png,1,"[11.733433509789464, 11.733433509789462]",11.733433509789464,11.733433509789462,images/picture_3.png,2,"[11.733433509789462, -11.733433509789466]",11.733433509789462,-11.733433509789464,images/picture_1.png,0,"[-11.733433509789466, -11.733433509789462]","[-11.733433509789466, -11.733433509789462]","[-11.733433509789466, -11.733433509789462]",0.2,0.4630649138268907,0.6630649138268907,0.3369350861731093,1.0,0.4130649138268907,0,1.2,1.0,0.2,3,0,3,0,0,17,17,4,,,,,,,163.67913158299052,163.67913158299052,163.87954654099303,164.09688749999623,164.3294399580045,164.3294399580045,164.3294399580045,164.3294399580045,164.67971579098958,164.67971579098958,164.67971579098958,164.67971579098958,164.67971579098958,165.08715599999414,0,,,100001,001,2023-04-13_15h49.17.105,DMS_etROI_12-36_stimBlast,2022.2.4,59.95004649812308,
,,,,,,,,,,,,,,,,,,,,,,,,,,,,,,,,,,,,,,,,,,,3,0,3,0,,,,,,,,,165.08715599999414,177.14356845800648,,,,,,,,,,,,,,,,,,100001,001,2023-04-13_15h49.17.105,DMS_etROI_12-36_stimBlast,2022.2.4,59.95004649812308,
stimBlast,18,0,0.2,0.4630649138268907,0.8,0.2,79,PRED,12,0.4630649138268907,2,images/picture_3.png,images/picture_1.png,0,"[-11.733433509789466, -11.733433509789462]",-11.733433509789464,-11.733433509789462,images/picture_2.png,1,"[11.733433509789464, 11.733433509789462]",11.733433509789464,11.733433509789462,images/picture_3.png,2,"[-11.733433509789462, 11.733433509789464]",-11.733433509789462,11.733433509789464,images/picture_3.png,2,"[-11.733433509789462, 11.733433509789464]","[-11.733433509789462, 11.733433509789464]","[-11.733433509789462, 11.733433509789464]",0.2,0.4630649138268907,0.6630649138268907,0.3369350861731093,1.0,0.4130649138268907,0,1.2,1.0,0.2,4,0,4,0,0,0,0,7,,,,,,,177.14356845800648,177.14356845800648,177.34592366599827,177.56231820798712,177.79610383298132,177.79610383298132,177.79610383298132,177.79610383298132,178.1458693750028,178.1458693750028,178.1458693750028,178.12922616599826,178.1458693750028,178.34047416600515,0,,,100001,001,2023-04-13_15h49.17.105,DMS_etROI_12-36_stimBlast,2022.2.4,59.95004649812308,
stimBlast,18,0,0.2,0.4630649138268907,0.8,0.2,75,PRED,12,0.4630649138268907,2,images/picture_3.png,images/picture_1.png,0,"[-11.733433509789466, -11.733433509789462]",-11.733433509789464,-11.733433509789462,images/picture_2.png,1,"[11.733433509789464, 11.733433509789462]",11.733433509789464,11.733433509789462,images/picture_3.png,2,"[-11.733433509789462, 11.733433509789464]",-11.733433509789462,11.733433509789464,images/picture_3.png,2,"[-11.733433509789462, 11.733433509789464]","[-11.733433509789462, 11.733433509789464]","[-11.733433509789462, 11.733433509789464]",0.2,0.4630649138268907,0.6630649138268907,0.3369350861731093,1.0,0.4130649138268907,0,1.2,1.0,0.2,4,0,4,0,0,1,1,3,,,,,,,178.34047416600515,178.34047416600515,178.54650900000706,178.76335658298922,178.9793497500068,178.9793497500068,178.9793497500068,178.9793497500068,179.3305407500011,179.3305407500011,179.3305407500011,179.3305407500011,179.3305407500011,179.55975575000048,0,,,100001,001,2023-04-13_15h49.17.105,DMS_etROI_12-36_stimBlast,2022.2.4,59.95004649812308,
stimBlast,18,0,0.2,0.4630649138268907,0.8,0.2,81,PRED,12,0.4630649138268907,2,images/picture_3.png,images/picture_1.png,0,"[-11.733433509789466, -11.733433509789462]",-11.733433509789464,-11.733433509789462,images/picture_2.png,1,"[11.733433509789464, 11.733433509789462]",11.733433509789464,11.733433509789462,images/picture_3.png,2,"[11.733433509789462, -11.733433509789466]",11.733433509789462,-11.733433509789464,images/picture_3.png,2,"[11.733433509789462, -11.733433509789466]","[11.733433509789462, -11.733433509789466]","[11.733433509789462, -11.733433509789466]",0.2,0.4630649138268907,0.6630649138268907,0.3369350861731093,1.0,0.4130649138268907,0,1.2,1.0,0.2,4,0,4,0,0,2,2,9,,,,,,,179.55975575000048,179.55975575000048,179.76280816597864,179.97959274999448,180.19607520799036,180.19607520799036,180.19607520799036,180.19607520799036,180.5461835830065,180.5461835830065,180.5461835830065,180.5461835830065,180.5461835830065,180.75658245797968,0,,,100001,001,2023-04-13_15h49.17.105,DMS_etROI_12-36_stimBlast,2022.2.4,59.95004649812308,
stimBlast,18,0,0.2,0.4630649138268907,0.8,0.2,86,PRED,12,0.4630649138268907,2,images/picture_3.png,images/picture_1.png,0,"[-11.733433509789466, -11.733433509789462]",-11.733433509789464,-11.733433509789462,images/picture_2.png,1,"[11.733433509789462, -11.733433509789466]",11.733433509789462,-11.733433509789464,images/picture_3.png,2,"[11.733433509789464, 11.733433509789462]",11.733433509789464,11.733433509789462,images/picture_3.png,2,"[11.733433509789464, 11.733433509789462]","[11.733433509789464, 11.733433509789462]","[11.733433509789464, 11.733433509789462]",0.2,0.4630649138268907,0.6630649138268907,0.3369350861731093,1.0,0.4130649138268907,0,1.2,1.0,0.2,4,0,4,0,0,3,3,14,,,,,,,180.75658245797968,180.75658245797968,180.96361487498507,181.17940479097888,181.39632008300396,181.39632008300396,181.39632008300396,181.39632008300396,181.7463421249995,181.7463421249995,181.7463421249995,181.7463421249995,181.7463421249995,181.9565671249875,0,,,100001,001,2023-04-13_15h49.17.105,DMS_etROI_12-36_stimBlast,2022.2.4,59.95004649812308,
stimBlast,18,0,0.2,0.4630649138268907,0.8,0.2,74,PRED,12,0.4630649138268907,2,images/picture_3.png,images/picture_1.png,0,"[11.733433509789464, 11.733433509789462]",11.733433509789464,11.733433509789462,images/picture_2.png,1,"[11.733433509789462, -11.733433509789466]",11.733433509789462,-11.733433509789464,images/picture_3.png,2,"[-11.733433509789462, 11.733433509789464]",-11.733433509789462,11.733433509789464,images/picture_3.png,2,"[-11.733433509789462, 11.733433509789464]","[-11.733433509789462, 11.733433509789464]","[-11.733433509789462, 11.733433509789464]",0.2,0.4630649138268907,0.6630649138268907,0.3369350861731093,1.0,0.4130649138268907,0,1.2,1.0,0.2,4,0,4,0,0,4,4,2,,,,,,,181.9565671249875,181.9565671249875,182.16307399998186,182.38047845798428,182.59657174997847,182.59657174997847,182.59657174997847,182.59657174997847,182.94552787498105,182.94552787498105,182.94552787498105,182.94552787498105,182.94552787498105,183.15628795800149,0,,,100001,001,2023-04-13_15h49.17.105,DMS_etROI_12-36_stimBlast,2022.2.4,59.95004649812308,
stimBlast,18,0,0.2,0.4630649138268907,0.8,0.2,77,PRED,12,0.4630649138268907,2,images/picture_3.png,images/picture_1.png,0,"[11.733433509789464, 11.733433509789462]",11.733433509789464,11.733433509789462,images/picture_2.png,1,"[-11.733433509789462, 11.733433509789464]",-11.733433509789462,11.733433509789464,images/picture_3.png,2,"[-11.733433509789466, -11.733433509789462]",-11.733433509789464,-11.733433509789462,images/picture_3.png,2,"[-11.733433509789466, -11.733433509789462]","[-11.733433509789466, -11.733433509789462]","[-11.733433509789466, -11.733433509789462]",0.2,0.4630649138268907,0.6630649138268907,0.3369350861731093,1.0,0.4130649138268907,0,1.2,1.0,0.2,4,0,4,0,0,5,5,5,,,,,,,183.15628795800149,183.15628795800149,183.36299983298522,183.58061995799653,183.7971253329888,183.7971253329888,183.7971253329888,183.7971253329888,184.14559133298462,184.14559133298462,184.14559133298462,184.14559133298462,184.14559133298462,184.35702254099306,0,,,100001,001,2023-04-13_15h49.17.105,DMS_etROI_12-36_stimBlast,2022.2.4,59.95004649812308,
stimBlast,18,0,0.2,0.4630649138268907,0.8,0.2,89,PRED,12,0.4630649138268907,2,images/picture_3.png,images/picture_1.png,0,"[-11.733433509789466, -11.733433509789462]",-11.733433509789464,-11.733433509789462,images/picture_2.png,1,"[11.733433509789464, 11.733433509789462]",11.733433509789464,11.733433509789462,images/picture_3.png,2,"[-11.733433509789462, 11.733433509789464]",-11.733433509789462,11.733433509789464,images/picture_3.png,2,"[-11.733433509789462, 11.733433509789464]","[-11.733433509789462, 11.733433509789464]","[-11.733433509789462, 11.733433509789464]",0.2,0.4630649138268907,0.6630649138268907,0.3369350861731093,1.0,0.4130649138268907,0,1.2,1.0,0.2,4,0,4,0,0,6,6,17,,,,,,,184.35702254099306,184.35702254099306,184.5628122499911,184.77964483300457,184.99700404098257,184.99700404098257,184.99700404098257,184.99700404098257,185.34618362499168,185.34618362499168,185.34618362499168,185.34618362499168,185.34618362499168,185.55630866598221,0,,,100001,001,2023-04-13_15h49.17.105,DMS_etROI_12-36_stimBlast,2022.2.4,59.95004649812308,
stimBlast,18,0,0.2,0.4630649138268907,0.8,0.2,72,PRED,12,0.4630649138268907,2,images/picture_3.png,images/picture_1.png,0,"[-11.733433509789462, 11.733433509789464]",-11.733433509789462,11.733433509789464,images/picture_2.png,1,"[-11.733433509789466, -11.733433509789462]",-11.733433509789464,-11.733433509789462,images/picture_3.png,2,"[11.733433509789462, -11.733433509789466]",11.733433509789462,-11.733433509789464,images/picture_3.png,2,"[11.733433509789462, -11.733433509789466]","[11.733433509789462, -11.733433509789466]","[11.733433509789462, -11.733433509789466]",0.2,0.4630649138268907,0.6630649138268907,0.3369350861731093,1.0,0.4130649138268907,0,1.2,1.0,0.2,4,0,4,0,0,7,7,0,,,,,,,185.55630866598221,185.55630866598221,185.76279770798283,185.9795153749874,186.1963435409998,186.1963435409998,186.1963435409998,186.1963435409998,186.54650658299215,186.54650658299215,186.54650658299215,186.54650658299215,186.54650658299215,186.75691620798898,0,,,100001,001,2023-04-13_15h49.17.105,DMS_etROI_12-36_stimBlast,2022.2.4,59.95004649812308,
stimBlast,18,0,0.2,0.4630649138268907,0.8,0.2,82,PRED,12,0.4630649138268907,2,images/picture_3.png,images/picture_1.png,0,"[11.733433509789462, -11.733433509789466]",11.733433509789462,-11.733433509789464,images/picture_2.png,1,"[11.733433509789464, 11.733433509789462]",11.733433509789464,11.733433509789462,images/picture_3.png,2,"[-11.733433509789462, 11.733433509789464]",-11.733433509789462,11.733433509789464,images/picture_3.png,2,"[-11.733433509789462, 11.733433509789464]","[-11.733433509789462, 11.733433509789464]","[-11.733433509789462, 11.733433509789464]",0.2,0.4630649138268907,0.6630649138268907,0.3369350861731093,1.0,0.4130649138268907,0,1.2,1.0,0.2,4,0,4,0,0,8,8,10,,,,,,,186.75691620798898,186.75691620798898,186.9634082079865,187.1794608749915,187.3956541660009,187.3956541660009,187.3956541660009,187.3956541660009,187.74582020798698,187.74582020798698,187.74582020798698,187.74582020798698,187.74582020798698,187.94566858297912,0,,,100001,001,2023-04-13_15h49.17.105,DMS_etROI_12-36_stimBlast,2022.2.4,59.95004649812308,
stimBlast,18,0,0.2,0.4630649138268907,0.8,0.2,80,PRED,12,0.4630649138268907,2,images/picture_3.png,images/picture_1.png,0,"[11.733433509789464, 11.733433509789462]",11.733433509789464,11.733433509789462,images/picture_2.png,1,"[-11.733433509789462, 11.733433509789464]",-11.733433509789462,11.733433509789464,images/picture_3.png,2,"[-11.733433509789466, -11.733433509789462]",-11.733433509789464,-11.733433509789462,images/picture_3.png,2,"[-11.733433509789466, -11.733433509789462]","[-11.733433509789466, -11.733433509789462]","[-11.733433509789466, -11.733433509789462]",0.2,0.4630649138268907,0.6630649138268907,0.3369350861731093,1.0,0.4130649138268907,0,1.2,1.0,0.2,4,0,4,0,0,9,9,8,,,,,,,187.94566858297912,187.94566858297912,188.14588712499244,188.3626234580006,188.59611120799673,188.59611120799673,188.59611120799673,188.59611120799673,188.94655399999465,188.94655399999465,188.94655399999465,188.92975304098218,188.94655399999465,189.12889454100514,0,,,100001,001,2023-04-13_15h49.17.105,DMS_etROI_12-36_stimBlast,2022.2.4,59.95004649812308,
stimBlast,18,0,0.2,0.4630649138268907,0.8,0.2,76,PRED,12,0.4630649138268907,2,images/picture_3.png,images/picture_1.png,0,"[11.733433509789462, -11.733433509789466]",11.733433509789462,-11.733433509789464,images/picture_2.png,1,"[-11.733433509789466, -11.733433509789462]",-11.733433509789464,-11.733433509789462,images/picture_3.png,2,"[11.733433509789464, 11.733433509789462]",11.733433509789464,11.733433509789462,images/picture_3.png,2,"[11.733433509789464, 11.733433509789462]","[11.733433509789464, 11.733433509789462]","[11.733433509789464, 11.733433509789462]",0.2,0.4630649138268907,0.6630649138268907,0.3369350861731093,1.0,0.4130649138268907,0,1.2,1.0,0.2,4,0,4,0,0,10,10,4,,,,,,,189.12889454100514,189.12889454100514,189.32984024999314,189.54611895798007,189.77975795799284,189.77975795799284,189.77975795799284,189.77975795799284,190.1295833750046,190.1295833750046,190.1295833750046,190.1295833750046,190.1295833750046,190.3401132079889,0,,,100001,001,2023-04-13_15h49.17.105,DMS_etROI_12-36_stimBlast,2022.2.4,59.95004649812308,
stimBlast,18,0,0.2,0.4630649138268907,0.8,0.2,84,PRED,12,0.4630649138268907,2,images/picture_3.png,images/picture_1.png,0,"[11.733433509789464, 11.733433509789462]",11.733433509789464,11.733433509789462,images/picture_2.png,1,"[11.733433509789462, -11.733433509789466]",11.733433509789462,-11.733433509789464,images/picture_3.png,2,"[-11.733433509789466, -11.733433509789462]",-11.733433509789464,-11.733433509789462,images/picture_3.png,2,"[-11.733433509789466, -11.733433509789462]","[-11.733433509789466, -11.733433509789462]","[-11.733433509789466, -11.733433509789462]",0.2,0.4630649138268907,0.6630649138268907,0.3369350861731093,1.0,0.4130649138268907,0,1.2,1.0,0.2,4,0,4,0,0,11,11,12,,,,,,,190.3401132079889,190.3401132079889,190.54642733299988,190.76323183299974,190.9804941659968,190.9804941659968,190.9804941659968,190.9804941659968,191.32960133298184,191.32960133298184,191.32960133298184,191.32960133298184,191.32960133298184,191.54047258300125,0,,,100001,001,2023-04-13_15h49.17.105,DMS_etROI_12-36_stimBlast,2022.2.4,59.95004649812308,
stimBlast,18,0,0.2,0.4630649138268907,0.8,0.2,78,PRED,12,0.4630649138268907,2,images/picture_3.png,images/picture_1.png,0,"[11.733433509789462, -11.733433509789466]",11.733433509789462,-11.733433509789464,images/picture_2.png,1,"[11.733433509789464, 11.733433509789462]",11.733433509789464,11.733433509789462,images/picture_3.png,2,"[-11.733433509789466, -11.733433509789462]",-11.733433509789464,-11.733433509789462,images/picture_3.png,2,"[-11.733433509789466, -11.733433509789462]","[-11.733433509789466, -11.733433509789462]","[-11.733433509789466, -11.733433509789462]",0.2,0.4630649138268907,0.6630649138268907,0.3369350861731093,1.0,0.4130649138268907,0,1.2,1.0,0.2,4,0,4,0,0,12,12,6,,,,,,,191.54047258300125,191.54047258300125,191.7461537909985,191.96295166600612,192.18040687500616,192.18040687500616,192.18040687500616,192.18040687500616,192.52964237498236,192.52964237498236,192.52964237498236,192.52964237498236,192.52964237498236,192.74025412500487,0,,,100001,001,2023-04-13_15h49.17.105,DMS_etROI_12-36_stimBlast,2022.2.4,59.95004649812308,
stimBlast,18,0,0.2,0.4630649138268907,0.8,0.2,88,PRED,12,0.4630649138268907,2,images/picture_3.png,images/picture_1.png,0,"[-11.733433509789466, -11.733433509789462]",-11.733433509789464,-11.733433509789462,images/picture_2.png,1,"[11.733433509789464, 11.733433509789462]",11.733433509789464,11.733433509789462,images/picture_3.png,2,"[11.733433509789462, -11.733433509789466]",11.733433509789462,-11.733433509789464,images/picture_3.png,2,"[11.733433509789462, -11.733433509789466]","[11.733433509789462, -11.733433509789466]","[11.733433509789462, -11.733433509789466]",0.2,0.4630649138268907,0.6630649138268907,0.3369350861731093,1.0,0.4130649138268907,0,1.2,1.0,0.2,4,0,4,0,0,13,13,16,,,,,,,192.74025412500487,192.74025412500487,192.94638258300256,193.1631479159987,193.38012554100715,193.38012554100715,193.38012554100715,193.38012554100715,193.72999466600595,193.72999466600595,193.72999466600595,193.72999466600595,193.72999466600595,193.94045912500587,0,,,100001,001,2023-04-13_15h49.17.105,DMS_etROI_12-36_stimBlast,2022.2.4,59.95004649812308,
stimBlast,18,0,0.2,0.4630649138268907,0.8,0.2,73,PRED,12,0.4630649138268907,2,images/picture_3.png,images/picture_1.png,0,"[11.733433509789464, 11.733433509789462]",11.733433509789464,11.733433509789462,images/picture_2.png,1,"[-11.733433509789466, -11.733433509789462]",-11.733433509789464,-11.733433509789462,images/picture_3.png,2,"[11.733433509789462, -11.733433509789466]",11.733433509789462,-11.733433509789464,images/picture_3.png,2,"[11.733433509789462, -11.733433509789466]","[11.733433509789462, -11.733433509789466]","[11.733433509789462, -11.733433509789466]",0.2,0.4630649138268907,0.6630649138268907,0.3369350861731093,1.0,0.4130649138268907,0,1.2,1.0,0.2,4,0,4,0,0,14,14,1,,,,,,,193.94045912500587,193.94045912500587,194.14593679099926,194.36302820799756,194.5802969999786,194.5802969999786,194.5802969999786,194.5802969999786,194.92949899999076,194.92949899999076,194.92949899999076,194.92949899999076,194.92949899999076,195.1406942080066,0,,,100001,001,2023-04-13_15h49.17.105,DMS_etROI_12-36_stimBlast,2022.2.4,59.95004649812308,
stimBlast,18,0,0.2,0.4630649138268907,0.8,0.2,85,PRED,12,0.4630649138268907,2,images/picture_3.png,images/picture_1.png,0,"[11.733433509789462, -11.733433509789466]",11.733433509789462,-11.733433509789464,images/picture_2.png,1,"[-11.733433509789462, 11.733433509789464]",-11.733433509789462,11.733433509789464,images/picture_3.png,2,"[-11.733433509789466, -11.733433509789462]",-11.733433509789464,-11.733433509789462,images/picture_3.png,2,"[-11.733433509789466, -11.733433509789462]","[-11.733433509789466, -11.733433509789462]","[-11.733433509789466, -11.733433509789462]",0.2,0.4630649138268907,0.6630649138268907,0.3369350861731093,1.0,0.4130649138268907,0,1.2,1.0,0.2,4,0,4,0,0,15,15,13,,,,,,,195.1406942080066,195.1406942080066,195.34687300000223,195.56276854098542,195.77952887499123,195.77952887499123,195.77952887499123,195.77952887499123,196.13013858298655,196.13013858298655,196.13013858298655,196.13013858298655,196.13013858298655,196.34105012498912,0,,,100001,001,2023-04-13_15h49.17.105,DMS_etROI_12-36_stimBlast,2022.2.4,59.95004649812308,
stimBlast,18,0,0.2,0.4630649138268907,0.8,0.2,87,PRED,12,0.4630649138268907,2,images/picture_3.png,images/picture_1.png,0,"[11.733433509789462, -11.733433509789466]",11.733433509789462,-11.733433509789464,images/picture_2.png,1,"[-11.733433509789466, -11.733433509789462]",-11.733433509789464,-11.733433509789462,images/picture_3.png,2,"[-11.733433509789462, 11.733433509789464]",-11.733433509789462,11.733433509789464,images/picture_3.png,2,"[-11.733433509789462, 11.733433509789464]","[-11.733433509789462, 11.733433509789464]","[-11.733433509789462, 11.733433509789464]",0.2,0.4630649138268907,0.6630649138268907,0.3369350861731093,1.0,0.4130649138268907,0,1.2,1.0,0.2,4,0,4,0,0,16,16,15,,,,,,,196.34105012498912,196.34105012498912,196.54633924999507,196.76288795800065,196.97975445800694,196.97975445800694,196.97975445800694,196.97975445800694,197.32951645800495,197.32951645800495,197.32951645800495,197.32951645800495,197.32951645800495,197.539818499994,0,,,100001,001,2023-04-13_15h49.17.105,DMS_etROI_12-36_stimBlast,2022.2.4,59.95004649812308,
stimBlast,18,0,0.2,0.4630649138268907,0.8,0.2,83,PRED,12,0.4630649138268907,2,images/picture_3.png,images/picture_1.png,0,"[-11.733433509789462, 11.733433509789464]",-11.733433509789462,11.733433509789464,images/picture_2.png,1,"[11.733433509789462, -11.733433509789466]",11.733433509789462,-11.733433509789464,images/picture_3.png,2,"[11.733433509789464, 11.733433509789462]",11.733433509789464,11.733433509789462,images/picture_3.png,2,"[11.733433509789464, 11.733433509789462]","[11.733433509789464, 11.733433509789462]","[11.733433509789464, 11.733433509789462]",0.2,0.4630649138268907,0.6630649138268907,0.3369350861731093,1.0,0.4130649138268907,0,1.2,1.0,0.2,4,0,4,0,0,17,17,11,,,,,,,197.539818499994,197.539818499994,197.7458274999808,197.96216866598115,198.17907854099758,198.17907854099758,198.17907854099758,198.17907854099758,198.5293123750016,198.5293123750016,198.5293123750016,198.5293123750016,198.5293123750016,198.96677329100203,0,,,100001,001,2023-04-13_15h49.17.105,DMS_etROI_12-36_stimBlast,2022.2.4,59.95004649812308,
,,,,,,,,,,,,,,,,,,,,,,,,,,,,,,,,,,,,,,,,,,,4,0,4,0,,,,,,,,,198.96677329100203,211.01802954098093,,,,,,,,,,,,,,,,,,100001,001,2023-04-13_15h49.17.105,DMS_etROI_12-36_stimBlast,2022.2.4,59.95004649812308,
stimBlast,18,0,0.2,0.4630649138268907,0.8,0.2,101,UNPRED,12,0.4630649138268907,0,images/picture_1.png,images/picture_1.png,0,"[11.733433509789464, 11.733433509789462]",11.733433509789464,11.733433509789462,images/picture_2.png,1,"[-11.733433509789462, 11.733433509789464]",-11.733433509789462,11.733433509789464,images/picture_3.png,2,"[-11.733433509789466, -11.733433509789462]",-11.733433509789464,-11.733433509789462,images/picture_1.png,0,"[11.733433509789464, 11.733433509789462]","[11.733433509789464, 11.733433509789462]","[11.733433509789464, 11.733433509789462]",0.2,0.4630649138268907,0.6630649138268907,0.3369350861731093,1.0,0.4130649138268907,0,1.2,1.0,0.2,5,0,5,0,0,0,0,11,,,,,,,211.01802954098093,211.01802954098093,211.22962320799707,211.44719183299458,211.68053770798724,211.68053770798724,211.68053770798724,211.68053770798724,212.0301938749908,212.0301938749908,212.0301938749908,212.01379054097924,212.0301938749908,212.21364549998543,0,,,100001,001,2023-04-13_15h49.17.105,DMS_etROI_12-36_stimBlast,2022.2.4,59.95004649812308,
stimBlast,18,0,0.2,0.4630649138268907,0.8,0.2,92,UNPRED,12,0.4630649138268907,1,images/picture_2.png,images/picture_1.png,0,"[-11.733433509789462, 11.733433509789464]",-11.733433509789462,11.733433509789464,images/picture_2.png,1,"[11.733433509789464, 11.733433509789462]",11.733433509789464,11.733433509789462,images/picture_3.png,2,"[11.733433509789462, -11.733433509789466]",11.733433509789462,-11.733433509789464,images/picture_2.png,1,"[11.733433509789464, 11.733433509789462]","[11.733433509789464, 11.733433509789462]","[11.733433509789464, 11.733433509789462]",0.2,0.4630649138268907,0.6630649138268907,0.3369350861731093,1.0,0.4130649138268907,0,1.2,1.0,0.2,5,0,5,0,0,1,1,2,,,,,,,212.21364549998543,212.21364549998543,212.4136497080035,212.6296857080015,212.88016891598818,212.88016891598818,212.88016891598818,212.88016891598818,213.2298259579984,213.2298259579984,213.2298259579984,213.21300983297988,213.2298259579984,213.41227012500167,0,,,100001,001,2023-04-13_15h49.17.105,DMS_etROI_12-36_stimBlast,2022.2.4,59.95004649812308,
stimBlast,18,0,0.2,0.4630649138268907,0.8,0.2,103,UNPRED,12,0.4630649138268907,0,images/picture_1.png,images/picture_1.png,0,"[11.733433509789464, 11.733433509789462]",11.733433509789464,11.733433509789462,images/picture_2.png,1,"[-11.733433509789466, -11.733433509789462]",-11.733433509789464,-11.733433509789462,images/picture_3.png,2,"[11.733433509789462, -11.733433509789466]",11.733433509789462,-11.733433509789464,images/picture_1.png,0,"[11.733433509789464, 11.733433509789462]","[11.733433509789464, 11.733433509789462]","[11.733433509789464, 11.733433509789462]",0.2,0.4630649138268907,0.6630649138268907,0.3369350861731093,1.0,0.4130649138268907,0,1.2,1.0,0.2,5,0,5,0,0,2,2,13,,,,,,,213.41227012500167,213.41227012500167,213.61276066600112,213.82965912498184,214.063166582986,214.063166582986,214.063166582986,214.063166582986,214.41351641598158,214.41351641598158,214.41351641598158,214.41351641598158,214.41351641598158,214.61241004097974,0,,,100001,001,2023-04-13_15h49.17.105,DMS_etROI_12-36_stimBlast,2022.2.4,59.95004649812308,
