trial_count,blockType,blockNum,delay_time,stimImage_i,stimImage,responseImage1,responseImage1_i,responseImage1_pos,responseImage1_X,responseImage1_Y,responseImage2,responseImage2_i,responseImage2_pos,responseImage2_X,responseImage2_Y,responseImage3,responseImage3_i,responseImage3_pos,responseImage3_X,responseImage3_Y,cue_onset,cue_dur,delay_onset,delay_dur,resp_onset,resp_dur,rest_onset,rest_dur,circle_dur,circle_onset,total_dur,cross_onset,cross_dur,delay_resp_period,blocks.thisRepN,blocks.thisTrialN,blocks.thisN,blocks.thisIndex,trials.thisRepN,trials.thisTrialN,trials.thisN,trials.thisIndex,key_resp.started,text.started,key_resp.keys,key_resp.rt,text_2.started,text_2.stopped,sample.started,Delay.started,sample.stopped,Delay.stopped,Response_1.started,Response_2.started,Response_3.started,Response_1.stopped,Response_2.stopped,Response_3.stopped,polygon.started,polygon.stopped,participant,session,date,expName,psychopyVersion,frameRate,
,,,,,,,,,,,,,,,,,,,,,,,,,,,,,,,,,,,,,,,,,,,42.59655020898208,42.59655020898208,t,12.202182709006593,,,,,,,,,,,,,,,100001,001,2023-03-27_13h00.07.398,DMS_et_12-36,2022.2.4,None,
7,PRED,12,1.1363968393226498,2,images/picture_3.png,images/picture_1.png,0,"[-11.733433509789466, -11.733433509789462]",-11.733433509789464,-11.733433509789462,images/picture_2.png,1,"[-11.733433509789462, 11.733433509789464]",-11.733433509789462,11.733433509789464,images/picture_3.png,2,"[11.733433509789462, -11.733433509789466]",11.733433509789462,-11.733433509789464,0,1,1,1.1363968393226498,2.13639683932265,0.86360316067735,3.0,1,1.8863968393226498,0,4.0,3.0,1,2,0,0,0,0,0,0,0,7,,,,,55.31688749999739,67.36224179191049,67.36224179191049,67.36224179191049,68.37606599996798,69.2624752089614,69.4762572919717,69.4762572919717,69.4762572919717,70.34299495897721,70.34299495897721,70.34299495897721,70.34299495897721,71.36164116696455,100001,001,2023-03-27_13h00.07.398,DMS_et_12-36,2022.2.4,None,
0,PRED,12,1.1363968393226498,2,images/picture_3.png,images/picture_1.png,0,"[-11.733433509789462, 11.733433509789464]",-11.733433509789462,11.733433509789464,images/picture_2.png,1,"[11.733433509789462, -11.733433509789466]",11.733433509789462,-11.733433509789464,images/picture_3.png,2,"[-11.733433509789466, -11.733433509789462]",-11.733433509789464,-11.733433509789462,0,1,1,1.1363968393226498,2.13639683932265,0.86360316067735,3.0,1,1.8863968393226498,0,4.0,3.0,1,2,0,0,0,0,0,1,1,0,,,,,,,71.36164116696455,71.36164116696455,72.37647675001062,73.26236333395354,73.47618224995676,73.47618224995676,73.47618224995676,74.34296945889946,74.34296945889946,74.34296945889946,74.34296945889946,75.36184066697024,100001,001,2023-03-27_13h00.07.398,DMS_et_12-36,2022.2.4,None,
1,PRED,12,1.1363968393226498,2,images/picture_3.png,images/picture_1.png,0,"[11.733433509789462, -11.733433509789466]",11.733433509789462,-11.733433509789464,images/picture_2.png,1,"[11.733433509789464, 11.733433509789462]",11.733433509789464,11.733433509789462,images/picture_3.png,2,"[-11.733433509789466, -11.733433509789462]",-11.733433509789464,-11.733433509789462,0,1,1,1.1363968393226498,2.13639683932265,0.86360316067735,3.0,1,1.8863968393226498,0,4.0,3.0,1,2,0,0,0,0,0,2,2,1,,,,,,,75.36184066697024,75.36184066697024,76.37643579195719,77.26238266692962,77.47622495889664,77.47622495889664,77.47622495889664,78.34273570892401,78.34273570892401,78.34273570892401,78.34273570892401,79.3618347919546,100001,001,2023-03-27_13h00.07.398,DMS_et_12-36,2022.2.4,None,
8,PRED,12,1.1363968393226498,2,images/picture_3.png,images/picture_1.png,0,"[11.733433509789462, -11.733433509789466]",11.733433509789462,-11.733433509789464,images/picture_2.png,1,"[11.733433509789464, 11.733433509789462]",11.733433509789464,11.733433509789462,images/picture_3.png,2,"[-11.733433509789466, -11.733433509789462]",-11.733433509789464,-11.733433509789462,0,1,1,1.1363968393226498,2.13639683932265,0.86360316067735,3.0,1,1.8863968393226498,0,4.0,3.0,1,2,0,0,0,0,0,3,3,8,,,,,,,79.3618347919546,79.3618347919546,80.37651424994692,81.26234487490728,81.47643099993002,81.47643099993002,81.47643099993002,82.34299095894676,82.34299095894676,82.34299095894676,82.34299095894676,83.36185220896732,100001,001,2023-03-27_13h00.07.398,DMS_et_12-36,2022.2.4,None,
6,PRED,12,1.1363968393226498,2,images/picture_3.png,images/picture_1.png,0,"[-11.733433509789462, 11.733433509789464]",-11.733433509789462,11.733433509789464,images/picture_2.png,1,"[-11.733433509789466, -11.733433509789462]",-11.733433509789464,-11.733433509789462,images/picture_3.png,2,"[11.733433509789464, 11.733433509789462]",11.733433509789464,11.733433509789462,0,1,1,1.1363968393226498,2.13639683932265,0.86360316067735,3.0,1,1.8863968393226498,0,4.0,3.0,1,2,0,0,0,0,0,4,4,6,,,,,,,83.36185220896732,83.36185220896732,84.37643858394586,85.26245220890269,85.47643991699442,85.47643991699442,85.47643991699442,86.34295104199555,86.34295104199555,86.34295104199555,86.34295104199555,87.36248433392029,100001,001,2023-03-27_13h00.07.398,DMS_et_12-36,2022.2.4,None,
3,PRED,12,1.1363968393226498,2,images/picture_3.png,images/picture_1.png,0,"[-11.733433509789466, -11.733433509789462]",-11.733433509789464,-11.733433509789462,images/picture_2.png,1,"[11.733433509789464, 11.733433509789462]",11.733433509789464,11.733433509789462,images/picture_3.png,2,"[-11.733433509789462, 11.733433509789464]",-11.733433509789462,11.733433509789464,0,1,1,1.1363968393226498,2.13639683932265,0.86360316067735,3.0,1,1.8863968393226498,0,4.0,3.0,1,2,0,0,0,0,0,5,5,3,,,,,,,87.36248433392029,87.36248433392029,88.37619499990251,89.26187866693363,89.4764248339925,89.4764248339925,89.4764248339925,90.34319374989718,90.34319374989718,90.34319374989718,90.34319374989718,91.36241270892788,100001,001,2023-03-27_13h00.07.398,DMS_et_12-36,2022.2.4,None,
5,PRED,12,1.1363968393226498,2,images/picture_3.png,images/picture_1.png,0,"[11.733433509789462, -11.733433509789466]",11.733433509789462,-11.733433509789464,images/picture_2.png,1,"[11.733433509789464, 11.733433509789462]",11.733433509789464,11.733433509789462,images/picture_3.png,2,"[-11.733433509789466, -11.733433509789462]",-11.733433509789464,-11.733433509789462,0,1,1,1.1363968393226498,2.13639683932265,0.86360316067735,3.0,1,1.8863968393226498,0,4.0,3.0,1,2,0,0,0,0,0,6,6,5,,,,,,,91.36241270892788,91.36241270892788,92.37645045900717,93.26261970889755,93.47647854196839,93.47647854196839,93.47647854196839,94.34323387499899,94.34323387499899,94.34323387499899,94.34323387499899,95.36398129200097,100001,001,2023-03-27_13h00.07.398,DMS_et_12-36,2022.2.4,None,
2,PRED,12,1.1363968393226498,2,images/picture_3.png,images/picture_1.png,0,"[-11.733433509789462, 11.733433509789464]",-11.733433509789462,11.733433509789464,images/picture_2.png,1,"[-11.733433509789466, -11.733433509789462]",-11.733433509789464,-11.733433509789462,images/picture_3.png,2,"[11.733433509789462, -11.733433509789466]",11.733433509789462,-11.733433509789464,0,1,1,1.1363968393226498,2.13639683932265,0.86360316067735,3.0,1,1.8863968393226498,0,4.0,3.0,1,2,0,0,0,0,0,7,7,2,,,,,,,95.36398129200097,95.36398129200097,96.37654191697948,97.26252599991858,97.47643758391496,97.47643758391496,97.47643758391496,98.34278883400839,98.34278883400839,98.34278883400839,98.34278883400839,99.36194887501188,100001,001,2023-03-27_13h00.07.398,DMS_et_12-36,2022.2.4,None,
4,PRED,12,1.1363968393226498,2,images/picture_3.png,images/picture_1.png,0,"[11.733433509789462, -11.733433509789466]",11.733433509789462,-11.733433509789464,images/picture_2.png,1,"[-11.733433509789462, 11.733433509789464]",-11.733433509789462,11.733433509789464,images/picture_3.png,2,"[-11.733433509789466, -11.733433509789462]",-11.733433509789464,-11.733433509789462,0,1,1,1.1363968393226498,2.13639683932265,0.86360316067735,3.0,1,1.8863968393226498,0,4.0,3.0,1,2,0,0,0,0,0,8,8,4,,,,,,,99.36194887501188,99.36194887501188,100.3764454589691,101.262742208899,101.4764386669267,101.4764386669267,101.4764386669267,102.3431618749164,102.3431618749164,102.3431618749164,102.3431618749164,103.36454108392354,100001,001,2023-03-27_13h00.07.398,DMS_et_12-36,2022.2.4,None,
,,,,,,,,,,,,,,,,,,,,,,,,,,,,,,,,,,,0,0,0,0,,,,,,,,,103.36454108392354,115.4026837919373,,,,,,,,,,,,,100001,001,2023-03-27_13h00.07.398,DMS_et_12-36,2022.2.4,None,
12,UNPRED,12,1.1363968393226498,2,images/picture_3.png,images/picture_1.png,0,"[11.733433509789462, -11.733433509789466]",11.733433509789462,-11.733433509789464,images/picture_2.png,1,"[-11.733433509789462, 11.733433509789464]",-11.733433509789462,11.733433509789464,images/picture_3.png,2,"[11.733433509789464, 11.733433509789462]",11.733433509789464,11.733433509789462,0,1,1,1.1363968393226498,2.13639683932265,0.86360316067735,3.0,1,1.8863968393226498,0,4.0,3.0,1,2,1,0,1,0,0,0,0,3,,,,,,,115.4026837919373,115.4026837919373,116.4099748339504,117.29614737490192,117.52926158392802,117.52926158392802,117.52926158392802,118.3960245839553,118.3960245839553,118.3960245839553,118.3960245839553,119.4095745839877,100001,001,2023-03-27_13h00.07.398,DMS_et_12-36,2022.2.4,None,
16,UNPRED,12,1.1363968393226498,1,images/picture_2.png,images/picture_1.png,0,"[11.733433509789462, -11.733433509789466]",11.733433509789462,-11.733433509789464,images/picture_2.png,1,"[-11.733433509789466, -11.733433509789462]",-11.733433509789464,-11.733433509789462,images/picture_3.png,2,"[11.733433509789464, 11.733433509789462]",11.733433509789464,11.733433509789462,0,1,1,1.1363968393226498,2.13639683932265,0.86360316067735,3.0,1,1.8863968393226498,0,4.0,3.0,1,2,1,0,1,0,0,1,1,7,,,,,,,119.4095745839877,119.4095745839877,120.40988445898984,121.3099693339318,121.5431801249506,121.5431801249506,121.5431801249506,122.40992491692305,122.40992491692305,122.40992491692305,122.40992491692305,123.40992599993479,100001,001,2023-03-27_13h00.07.398,DMS_et_12-36,2022.2.4,None,
17,UNPRED,12,1.1363968393226498,1,images/picture_2.png,images/picture_1.png,0,"[-11.733433509789462, 11.733433509789464]",-11.733433509789462,11.733433509789464,images/picture_2.png,1,"[11.733433509789462, -11.733433509789466]",11.733433509789462,-11.733433509789464,images/picture_3.png,2,"[11.733433509789464, 11.733433509789462]",11.733433509789464,11.733433509789462,0,1,1,1.1363968393226498,2.13639683932265,0.86360316067735,3.0,1,1.8863968393226498,0,4.0,3.0,1,2,1,0,1,0,0,2,2,8,,,,,,,123.40992599993479,123.40992599993479,124.40999079192989,125.30995404196437,125.543210083968,125.543210083968,125.543210083968,126.40998541691806,126.40998541691806,126.40998541691806,126.40998541691806,127.40944762493018,100001,001,2023-03-27_13h00.07.398,DMS_et_12-36,2022.2.4,None,
14,UNPRED,12,1.1363968393226498,0,images/picture_1.png,images/picture_1.png,0,"[11.733433509789464, 11.733433509789462]",11.733433509789464,11.733433509789462,images/picture_2.png,1,"[11.733433509789462, -11.733433509789466]",11.733433509789462,-11.733433509789464,images/picture_3.png,2,"[-11.733433509789462, 11.733433509789464]",-11.733433509789462,11.733433509789464,0,1,1,1.1363968393226498,2.13639683932265,0.86360316067735,3.0,1,1.8863968393226498,0,4.0,3.0,1,2,1,0,1,0,0,3,3,5,,,,,,,127.40944762493018,127.40944762493018,128.4099427089095,129.30958262493368,129.54289866692852,129.54289866692852,129.54289866692852,130.40995566698257,130.40995566698257,130.40995566698257,130.40995566698257,131.409908792004,100001,001,2023-03-27_13h00.07.398,DMS_et_12-36,2022.2.4,None,
9,UNPRED,12,1.1363968393226498,1,images/picture_2.png,images/picture_1.png,0,"[11.733433509789464, 11.733433509789462]",11.733433509789464,11.733433509789462,images/picture_2.png,1,"[-11.733433509789462, 11.733433509789464]",-11.733433509789462,11.733433509789464,images/picture_3.png,2,"[-11.733433509789466, -11.733433509789462]",-11.733433509789464,-11.733433509789462,0,1,1,1.1363968393226498,2.13639683932265,0.86360316067735,3.0,1,1.8863968393226498,0,4.0,3.0,1,2,1,0,1,0,0,4,4,0,,,,,,,131.409908792004,131.409908792004,132.40996562491637,133.31000037491322,133.54321924992837,133.54321924992837,133.54321924992837,134.4099472919479,134.4099472919479,134.4099472919479,134.4099472919479,135.40964145900216,100001,001,2023-03-27_13h00.07.398,DMS_et_12-36,2022.2.4,None,
10,UNPRED,12,1.1363968393226498,0,images/picture_1.png,images/picture_1.png,0,"[-11.733433509789462, 11.733433509789464]",-11.733433509789462,11.733433509789464,images/picture_2.png,1,"[11.733433509789462, -11.733433509789466]",11.733433509789462,-11.733433509789464,images/picture_3.png,2,"[-11.733433509789466, -11.733433509789462]",-11.733433509789464,-11.733433509789462,0,1,1,1.1363968393226498,2.13639683932265,0.86360316067735,3.0,1,1.8863968393226498,0,4.0,3.0,1,2,1,0,1,0,0,5,5,1,,,,,,,135.40964145900216,135.40964145900216,136.40998995897826,137.30993670900352,137.54342141700909,137.54342141700909,137.54342141700909,138.40994770894758,138.40994770894758,138.40994770894758,138.40994770894758,139.42853229190223,100001,001,2023-03-27_13h00.07.398,DMS_et_12-36,2022.2.4,None,
13,UNPRED,12,1.1363968393226498,2,images/picture_3.png,images/picture_1.png,0,"[-11.733433509789466, -11.733433509789462]",-11.733433509789464,-11.733433509789462,images/picture_2.png,1,"[11.733433509789464, 11.733433509789462]",11.733433509789464,11.733433509789462,images/picture_3.png,2,"[-11.733433509789462, 11.733433509789464]",-11.733433509789462,11.733433509789464,0,1,1,1.1363968393226498,2.13639683932265,0.86360316067735,3.0,1,1.8863968393226498,0,4.0,3.0,1,2,1,0,1,0,0,6,6,4,,,,,,,139.42853229190223,139.42853229190223,140.44293137500063,141.32954858394805,141.54323529195972,141.54323529195972,141.54323529195972,142.4099382919958,142.4099382919958,142.4099382919958,142.4099382919958,143.4103813749971,100001,001,2023-03-27_13h00.07.398,DMS_et_12-36,2022.2.4,None,
15,UNPRED,12,1.1363968393226498,0,images/picture_1.png,images/picture_1.png,0,"[-11.733433509789462, 11.733433509789464]",-11.733433509789462,11.733433509789464,images/picture_2.png,1,"[11.733433509789464, 11.733433509789462]",11.733433509789464,11.733433509789462,images/picture_3.png,2,"[-11.733433509789466, -11.733433509789462]",-11.733433509789464,-11.733433509789462,0,1,1,1.1363968393226498,2.13639683932265,0.86360316067735,3.0,1,1.8863968393226498,0,4.0,3.0,1,2,1,0,1,0,0,7,7,6,,,,,,,143.4103813749971,143.4103813749971,144.41010841692332,145.30999454192352,145.54319799994119,145.54319799994119,145.54319799994119,146.41000916692428,146.41000916692428,146.41000916692428,146.41000916692428,147.42885704198852,100001,001,2023-03-27_13h00.07.398,DMS_et_12-36,2022.2.4,None,
11,UNPRED,12,1.1363968393226498,2,images/picture_3.png,images/picture_1.png,0,"[11.733433509789464, 11.733433509789462]",11.733433509789464,11.733433509789462,images/picture_2.png,1,"[11.733433509789462, -11.733433509789466]",11.733433509789462,-11.733433509789464,images/picture_3.png,2,"[-11.733433509789466, -11.733433509789462]",-11.733433509789464,-11.733433509789462,0,1,1,1.1363968393226498,2.13639683932265,0.86360316067735,3.0,1,1.8863968393226498,0,4.0,3.0,1,2,1,0,1,0,0,8,8,2,,,,,,,147.42885704198852,147.42885704198852,148.44323154189624,149.32949583395384,149.54353008395992,149.54353008395992,149.54353008395992,150.40976858395152,150.40976858395152,150.40976858395152,150.40976858395152,151.44208379194606,100001,001,2023-03-27_13h00.07.398,DMS_et_12-36,2022.2.4,None,
,,,,,,,,,,,,,,,,,,,,,,,,,,,,,,,,,,,1,0,1,0,,,,,,,,,151.44208379194606,163.4630458749598,,,,,,,,,,,,,100001,001,2023-03-27_13h00.07.398,DMS_et_12-36,2022.2.4,None,
18,PRED,12,1.1363968393226498,0,images/picture_1.png,images/picture_1.png,0,"[-11.733433509789466, -11.733433509789462]",-11.733433509789464,-11.733433509789462,images/picture_2.png,1,"[11.733433509789462, -11.733433509789466]",11.733433509789462,-11.733433509789464,images/picture_3.png,2,"[-11.733433509789462, 11.733433509789464]",-11.733433509789462,11.733433509789464,0,1,1,1.1363968393226498,2.13639683932265,0.86360316067735,3.0,1,1.8863968393226498,0,4.0,3.0,1,2,2,0,2,0,0,0,0,0,,,,,,,163.4630458749598,163.4630458749598,164.47678645898122,165.3628932919819,165.59633833391126,165.59633833391126,165.59633833391126,166.46298524993472,166.46298524993472,166.46298524993472,166.46298524993472,167.47621241700836,100001,001,2023-03-27_13h00.07.398,DMS_et_12-36,2022.2.4,None,
26,PRED,12,1.1363968393226498,0,images/picture_1.png,images/picture_1.png,0,"[-11.733433509789462, 11.733433509789464]",-11.733433509789462,11.733433509789464,images/picture_2.png,1,"[11.733433509789464, 11.733433509789462]",11.733433509789464,11.733433509789462,images/picture_3.png,2,"[11.733433509789462, -11.733433509789466]",11.733433509789462,-11.733433509789464,0,1,1,1.1363968393226498,2.13639683932265,0.86360316067735,3.0,1,1.8863968393226498,0,4.0,3.0,1,2,2,0,2,0,0,1,1,8,,,,,,,167.47621241700836,167.47621241700836,168.47693099989556,169.3768111669924,169.61019541695714,169.61019541695714,169.61019541695714,170.476537374896,170.476537374896,170.476537374896,170.476537374896,171.47632249991875,100001,001,2023-03-27_13h00.07.398,DMS_et_12-36,2022.2.4,None,
22,PRED,12,1.1363968393226498,0,images/picture_1.png,images/picture_1.png,0,"[-11.733433509789462, 11.733433509789464]",-11.733433509789462,11.733433509789464,images/picture_2.png,1,"[11.733433509789462, -11.733433509789466]",11.733433509789462,-11.733433509789464,images/picture_3.png,2,"[-11.733433509789466, -11.733433509789462]",-11.733433509789464,-11.733433509789462,0,1,1,1.1363968393226498,2.13639683932265,0.86360316067735,3.0,1,1.8863968393226498,0,4.0,3.0,1,2,2,0,2,0,0,2,2,4,,,,,,,171.47632249991875,171.47632249991875,172.47678274998907,173.37679170898627,173.61021233396605,173.61021233396605,173.61021233396605,174.47696016693953,174.47696016693953,174.47696016693953,174.47696016693953,175.47630883392412,100001,001,2023-03-27_13h00.07.398,DMS_et_12-36,2022.2.4,None,
19,PRED,12,1.1363968393226498,0,images/picture_1.png,images/picture_1.png,0,"[-11.733433509789466, -11.733433509789462]",-11.733433509789464,-11.733433509789462,images/picture_2.png,1,"[-11.733433509789462, 11.733433509789464]",-11.733433509789462,11.733433509789464,images/picture_3.png,2,"[11.733433509789462, -11.733433509789466]",11.733433509789462,-11.733433509789464,0,1,1,1.1363968393226498,2.13639683932265,0.86360316067735,3.0,1,1.8863968393226498,0,4.0,3.0,1,2,2,0,2,0,0,3,3,1,,,,,,,175.47630883392412,175.47630883392412,176.47670041699894,177.3769598749932,177.6100543749053,177.6100543749053,177.6100543749053,178.4768040420022,178.4768040420022,178.4768040420022,178.4768040420022,179.49552620900795,100001,001,2023-03-27_13h00.07.398,DMS_et_12-36,2022.2.4,None,
20,PRED,12,1.1363968393226498,0,images/picture_1.png,images/picture_1.png,0,"[-11.733433509789466, -11.733433509789462]",-11.733433509789464,-11.733433509789462,images/picture_2.png,1,"[-11.733433509789462, 11.733433509789464]",-11.733433509789462,11.733433509789464,images/picture_3.png,2,"[11.733433509789464, 11.733433509789462]",11.733433509789464,11.733433509789462,0,1,1,1.1363968393226498,2.13639683932265,0.86360316067735,3.0,1,1.8863968393226498,0,4.0,3.0,1,2,2,0,2,0,0,4,4,2,,,,,,,179.49552620900795,179.49552620900795,180.50991366698872,181.3957854169421,181.6100635419134,181.6100635419134,181.6100635419134,182.47694424993824,182.47694424993824,182.47694424993824,182.47694424993824,183.47637783398386,100001,001,2023-03-27_13h00.07.398,DMS_et_12-36,2022.2.4,None,
23,PRED,12,1.1363968393226498,0,images/picture_1.png,images/picture_1.png,0,"[11.733433509789462, -11.733433509789466]",11.733433509789462,-11.733433509789464,images/picture_2.png,1,"[-11.733433509789466, -11.733433509789462]",-11.733433509789464,-11.733433509789462,images/picture_3.png,2,"[-11.733433509789462, 11.733433509789464]",-11.733433509789462,11.733433509789464,0,1,1,1.1363968393226498,2.13639683932265,0.86360316067735,3.0,1,1.8863968393226498,0,4.0,3.0,1,2,2,0,2,0,0,5,5,5,,,,,,,183.47637783398386,183.47637783398386,184.47674837498926,185.3769376669079,185.61023729189765,185.61023729189765,185.61023729189765,186.4769552499056,186.4769552499056,186.4769552499056,186.4769552499056,187.4763528339099,100001,001,2023-03-27_13h00.07.398,DMS_et_12-36,2022.2.4,None,
24,PRED,12,1.1363968393226498,0,images/picture_1.png,images/picture_1.png,0,"[-11.733433509789462, 11.733433509789464]",-11.733433509789462,11.733433509789464,images/picture_2.png,1,"[11.733433509789462, -11.733433509789466]",11.733433509789462,-11.733433509789464,images/picture_3.png,2,"[11.733433509789464, 11.733433509789462]",11.733433509789464,11.733433509789462,0,1,1,1.1363968393226498,2.13639683932265,0.86360316067735,3.0,1,1.8863968393226498,0,4.0,3.0,1,2,2,0,2,0,0,6,6,6,,,,,,,187.4763528339099,187.4763528339099,188.47690862498712,189.37694208393805,189.61025416699704,189.61025416699704,189.61025416699704,190.4768979169894,190.4768979169894,190.4768979169894,190.4768979169894,191.47656095901038,100001,001,2023-03-27_13h00.07.398,DMS_et_12-36,2022.2.4,None,
25,PRED,12,1.1363968393226498,0,images/picture_1.png,images/picture_1.png,0,"[11.733433509789464, 11.733433509789462]",11.733433509789464,11.733433509789462,images/picture_2.png,1,"[11.733433509789462, -11.733433509789466]",11.733433509789462,-11.733433509789464,images/picture_3.png,2,"[-11.733433509789462, 11.733433509789464]",-11.733433509789462,11.733433509789464,0,1,1,1.1363968393226498,2.13639683932265,0.86360316067735,3.0,1,1.8863968393226498,0,4.0,3.0,1,2,2,0,2,0,0,7,7,7,,,,,,,191.47656095901038,191.47656095901038,192.47693199990317,193.3769364169566,193.61022466700524,193.61022466700524,193.61022466700524,194.47694504191168,194.47694504191168,194.47694504191168,194.47694504191168,195.47646795900073,100001,001,2023-03-27_13h00.07.398,DMS_et_12-36,2022.2.4,None,
21,PRED,12,1.1363968393226498,0,images/picture_1.png,images/picture_1.png,0,"[11.733433509789464, 11.733433509789462]",11.733433509789464,11.733433509789462,images/picture_2.png,1,"[11.733433509789462, -11.733433509789466]",11.733433509789462,-11.733433509789464,images/picture_3.png,2,"[-11.733433509789462, 11.733433509789464]",-11.733433509789462,11.733433509789464,0,1,1,1.1363968393226498,2.13639683932265,0.86360316067735,3.0,1,1.8863968393226498,0,4.0,3.0,1,2,2,0,2,0,0,8,8,3,,,,,,,195.47646795900073,195.47646795900073,196.4769920419203,197.37697187496815,197.61027808394283,197.61027808394283,197.61027808394283,198.4769709589891,198.4769709589891,198.4769709589891,198.4769709589891,199.5182767919032,100001,001,2023-03-27_13h00.07.398,DMS_et_12-36,2022.2.4,None,
,,,,,,,,,,,,,,,,,,,,,,,,,,,,,,,,,,,2,0,2,0,,,,,,,,,199.5182767919032,211.5305594590027,,,,,,,,,,,,,100001,001,2023-03-27_13h00.07.398,DMS_et_12-36,2022.2.4,None,
27,UNPRED,12,1.1363968393226498,0,images/picture_1.png,images/picture_1.png,0,"[11.733433509789462, -11.733433509789466]",11.733433509789462,-11.733433509789464,images/picture_2.png,1,"[11.733433509789464, 11.733433509789462]",11.733433509789464,11.733433509789462,images/picture_3.png,2,"[-11.733433509789466, -11.733433509789462]",-11.733433509789464,-11.733433509789462,0,1,1,1.1363968393226498,2.13639683932265,0.86360316067735,3.0,1,1.8863968393226498,0,4.0,3.0,1,2,3,0,3,0,0,0,0,0,,,,,,,211.5305594590027,211.5305594590027,212.54372216691263,213.42980558390263,213.6632259999169,213.6632259999169,213.6632259999169,214.52942112495657,214.52942112495657,214.52942112495657,214.52942112495657,215.5438482919708,100001,001,2023-03-27_13h00.07.398,DMS_et_12-36,2022.2.4,None,
33,UNPRED,12,1.1363968393226498,1,images/picture_2.png,images/picture_1.png,0,"[11.733433509789462, -11.733433509789466]",11.733433509789462,-11.733433509789464,images/picture_2.png,1,"[11.733433509789464, 11.733433509789462]",11.733433509789464,11.733433509789462,images/picture_3.png,2,"[-11.733433509789466, -11.733433509789462]",-11.733433509789464,-11.733433509789462,0,1,1,1.1363968393226498,2.13639683932265,0.86360316067735,3.0,1,1.8863968393226498,0,4.0,3.0,1,2,3,0,3,0,0,1,1,6,,,,,,,215.5438482919708,215.5438482919708,216.54370987496804,217.44375658396166,217.6770330419531,217.6770330419531,217.6770330419531,218.54371466697194,218.54371466697194,218.54371466697194,218.54371466697194,219.54323966696393,100001,001,2023-03-27_13h00.07.398,DMS_et_12-36,2022.2.4,None,
34,UNPRED,12,1.1363968393226498,1,images/picture_2.png,images/picture_1.png,0,"[11.733433509789464, 11.733433509789462]",11.733433509789464,11.733433509789462,images/picture_2.png,1,"[-11.733433509789466, -11.733433509789462]",-11.733433509789464,-11.733433509789462,images/picture_3.png,2,"[11.733433509789462, -11.733433509789466]",11.733433509789462,-11.733433509789464,0,1,1,1.1363968393226498,2.13639683932265,0.86360316067735,3.0,1,1.8863968393226498,0,4.0,3.0,1,2,3,0,3,0,0,2,2,7,,,,,,,219.54323966696393,219.54323966696393,220.54373229190242,221.44342191691976,221.67682629195042,221.67682629195042,221.67682629195042,222.54364937497303,222.54364937497303,222.54364937497303,222.54364937497303,223.56269420892932,100001,001,2023-03-27_13h00.07.398,DMS_et_12-36,2022.2.4,None,
30,UNPRED,12,1.1363968393226498,2,images/picture_3.png,images/picture_1.png,0,"[-11.733433509789462, 11.733433509789464]",-11.733433509789462,11.733433509789464,images/picture_2.png,1,"[11.733433509789464, 11.733433509789462]",11.733433509789464,11.733433509789462,images/picture_3.png,2,"[11.733433509789462, -11.733433509789466]",11.733433509789462,-11.733433509789464,0,1,1,1.1363968393226498,2.13639683932265,0.86360316067735,3.0,1,1.8863968393226498,0,4.0,3.0,1,2,3,0,3,0,0,3,3,3,,,,,,,223.56269420892932,223.56269420892932,224.57719929190353,225.46325724991038,225.67701837490313,225.67701837490313,225.67701837490313,226.54372079193126,226.54372079193126,226.54372079193126,226.54372079193126,227.54369412490632,100001,001,2023-03-27_13h00.07.398,DMS_et_12-36,2022.2.4,None,
31,UNPRED,12,1.1363968393226498,0,images/picture_1.png,images/picture_1.png,0,"[-11.733433509789466, -11.733433509789462]",-11.733433509789464,-11.733433509789462,images/picture_2.png,1,"[-11.733433509789462, 11.733433509789464]",-11.733433509789462,11.733433509789464,images/picture_3.png,2,"[11.733433509789462, -11.733433509789466]",11.733433509789462,-11.733433509789464,0,1,1,1.1363968393226498,2.13639683932265,0.86360316067735,3.0,1,1.8863968393226498,0,4.0,3.0,1,2,3,0,3,0,0,4,4,4,,,,,,,227.54369412490632,227.54369412490632,228.54370312497485,229.4439187499229,229.6772272089729,229.6772272089729,229.6772272089729,230.5440144999884,230.5440144999884,230.5440144999884,230.5440144999884,231.54329462500755,100001,001,2023-03-27_13h00.07.398,DMS_et_12-36,2022.2.4,None,
35,UNPRED,12,1.1363968393226498,0,images/picture_1.png,images/picture_1.png,0,"[11.733433509789464, 11.733433509789462]",11.733433509789464,11.733433509789462,images/picture_2.png,1,"[11.733433509789462, -11.733433509789466]",11.733433509789462,-11.733433509789464,images/picture_3.png,2,"[-11.733433509789462, 11.733433509789464]",-11.733433509789462,11.733433509789464,0,1,1,1.1363968393226498,2.13639683932265,0.86360316067735,3.0,1,1.8863968393226498,0,4.0,3.0,1,2,3,0,3,0,0,5,5,8,,,,,,,231.54329462500755,231.54329462500755,232.54345179197844,233.44398162490688,233.67722370894626,233.67722370894626,233.67722370894626,234.5437109589111,234.5437109589111,234.5437109589111,234.5437109589111,235.5627510419581,100001,001,2023-03-27_13h00.07.398,DMS_et_12-36,2022.2.4,None,
32,UNPRED,12,1.1363968393226498,2,images/picture_3.png,images/picture_1.png,0,"[11.733433509789464, 11.733433509789462]",11.733433509789464,11.733433509789462,images/picture_2.png,1,"[11.733433509789462, -11.733433509789466]",11.733433509789462,-11.733433509789464,images/picture_3.png,2,"[-11.733433509789462, 11.733433509789464]",-11.733433509789462,11.733433509789464,0,1,1,1.1363968393226498,2.13639683932265,0.86360316067735,3.0,1,1.8863968393226498,0,4.0,3.0,1,2,3,0,3,0,0,6,6,5,,,,,,,235.5627510419581,235.5627510419581,236.57708037493285,237.46357945899945,237.67722895892803,237.67722895892803,237.67722895892803,238.5437709169928,238.5437709169928,238.5437709169928,238.5437709169928,239.56335624994244,100001,001,2023-03-27_13h00.07.398,DMS_et_12-36,2022.2.4,None,
28,UNPRED,12,1.1363968393226498,2,images/picture_3.png,images/picture_1.png,0,"[11.733433509789464, 11.733433509789462]",11.733433509789464,11.733433509789462,images/picture_2.png,1,"[11.733433509789462, -11.733433509789466]",11.733433509789462,-11.733433509789464,images/picture_3.png,2,"[-11.733433509789462, 11.733433509789464]",-11.733433509789462,11.733433509789464,0,1,1,1.1363968393226498,2.13639683932265,0.86360316067735,3.0,1,1.8863968393226498,0,4.0,3.0,1,2,3,0,3,0,0,7,7,1,,,,,,,239.56335624994244,239.56335624994244,240.5772112919949,241.4628930418985,241.6772792499978,241.6772792499978,241.6772792499978,242.54356758389622,242.54356758389622,242.54356758389622,242.54356758389622,243.56337529199664,100001,001,2023-03-27_13h00.07.398,DMS_et_12-36,2022.2.4,None,
29,UNPRED,12,1.1363968393226498,2,images/picture_3.png,images/picture_1.png,0,"[11.733433509789464, 11.733433509789462]",11.733433509789464,11.733433509789462,images/picture_2.png,1,"[-11.733433509789466, -11.733433509789462]",-11.733433509789464,-11.733433509789462,images/picture_3.png,2,"[-11.733433509789462, 11.733433509789464]",-11.733433509789462,11.733433509789464,0,1,1,1.1363968393226498,2.13639683932265,0.86360316067735,3.0,1,1.8863968393226498,0,4.0,3.0,1,2,3,0,3,0,0,8,8,2,,,,,,,243.56337529199664,243.56337529199664,244.5773305419134,245.46338224993087,245.6771626669215,245.6771626669215,245.6771626669215,246.5437979589915,246.5437979589915,246.5437979589915,246.5437979589915,247.59931845893152,100001,001,2023-03-27_13h00.07.398,DMS_et_12-36,2022.2.4,None,
,,,,,,,,,,,,,,,,,,,,,,,,,,,,,,,,,,,3,0,3,0,,,,,,,,,247.59931845893152,259.6376229589805,,,,,,,,,,,,,100001,001,2023-03-27_13h00.07.398,DMS_et_12-36,2022.2.4,None,
38,PRED,12,1.1363968393226498,2,images/picture_3.png,images/picture_1.png,0,"[-11.733433509789462, 11.733433509789464]",-11.733433509789462,11.733433509789464,images/picture_2.png,1,"[-11.733433509789466, -11.733433509789462]",-11.733433509789464,-11.733433509789462,images/picture_3.png,2,"[11.733433509789464, 11.733433509789462]",11.733433509789464,11.733433509789462,0,1,1,1.1363968393226498,2.13639683932265,0.86360316067735,3.0,1,1.8863968393226498,0,4.0,3.0,1,2,4,0,4,0,0,0,0,2,,,,,,,259.6376229589805,259.6376229589805,260.64406462491024,261.5302693339763,261.76341274997685,261.76341274997685,261.76341274997685,262.62932329194155,262.62932329194155,262.62932329194155,262.62932329194155,263.66278999997303,100001,001,2023-03-27_13h00.07.398,DMS_et_12-36,2022.2.4,None,
42,PRED,12,1.1363968393226498,2,images/picture_3.png,images/picture_1.png,0,"[-11.733433509789462, 11.733433509789464]",-11.733433509789462,11.733433509789464,images/picture_2.png,1,"[11.733433509789462, -11.733433509789466]",11.733433509789462,-11.733433509789464,images/picture_3.png,2,"[11.733433509789464, 11.733433509789462]",11.733433509789464,11.733433509789462,0,1,1,1.1363968393226498,2.13639683932265,0.86360316067735,3.0,1,1.8863968393226498,0,4.0,3.0,1,2,4,0,4,0,0,1,1,6,,,,,,,263.66278999997303,263.66278999997303,264.6772120419191,265.5635268749902,265.77725024998654,265.77725024998654,265.77725024998654,266.64401570893824,266.64401570893824,266.64401570893824,266.64401570893824,267.6631696249824,100001,001,2023-03-27_13h00.07.398,DMS_et_12-36,2022.2.4,None,
39,PRED,12,1.1363968393226498,2,images/picture_3.png,images/picture_1.png,0,"[-11.733433509789466, -11.733433509789462]",-11.733433509789464,-11.733433509789462,images/picture_2.png,1,"[-11.733433509789462, 11.733433509789464]",-11.733433509789462,11.733433509789464,images/picture_3.png,2,"[11.733433509789464, 11.733433509789462]",11.733433509789464,11.733433509789462,0,1,1,1.1363968393226498,2.13639683932265,0.86360316067735,3.0,1,1.8863968393226498,0,4.0,3.0,1,2,4,0,4,0,0,2,2,3,,,,,,,267.6631696249824,267.6631696249824,268.67722537496593,269.56351095892023,269.7772322089877,269.7772322089877,269.7772322089877,270.6439421249088,270.6439421249088,270.6439421249088,270.6439421249088,271.6629176249262,100001,001,2023-03-27_13h00.07.398,DMS_et_12-36,2022.2.4,None,
41,PRED,12,1.1363968393226498,2,images/picture_3.png,images/picture_1.png,0,"[11.733433509789462, -11.733433509789466]",11.733433509789462,-11.733433509789464,images/picture_2.png,1,"[-11.733433509789466, -11.733433509789462]",-11.733433509789464,-11.733433509789462,images/picture_3.png,2,"[-11.733433509789462, 11.733433509789464]",-11.733433509789462,11.733433509789464,0,1,1,1.1363968393226498,2.13639683932265,0.86360316067735,3.0,1,1.8863968393226498,0,4.0,3.0,1,2,4,0,4,0,0,3,3,5,,,,,,,271.6629176249262,271.6629176249262,272.6770654169377,273.5625142499339,273.77707883389667,273.77707883389667,273.77707883389667,274.6439307919936,274.6439307919936,274.6439307919936,274.6439307919936,275.6630159589695,100001,001,2023-03-27_13h00.07.398,DMS_et_12-36,2022.2.4,None,
40,PRED,12,1.1363968393226498,2,images/picture_3.png,images/picture_1.png,0,"[-11.733433509789462, 11.733433509789464]",-11.733433509789462,11.733433509789464,images/picture_2.png,1,"[11.733433509789462, -11.733433509789466]",11.733433509789462,-11.733433509789464,images/picture_3.png,2,"[11.733433509789464, 11.733433509789462]",11.733433509789464,11.733433509789462,0,1,1,1.1363968393226498,2.13639683932265,0.86360316067735,3.0,1,1.8863968393226498,0,4.0,3.0,1,2,4,0,4,0,0,4,4,4,,,,,,,275.6630159589695,275.6630159589695,276.6772613339126,277.56337216694374,277.77744658396114,277.77744658396114,277.77744658396114,278.6440112499986,278.6440112499986,278.6440112499986,278.6440112499986,279.66320454189554,100001,001,2023-03-27_13h00.07.398,DMS_et_12-36,2022.2.4,None,
44,PRED,12,1.1363968393226498,2,images/picture_3.png,images/picture_1.png,0,"[-11.733433509789466, -11.733433509789462]",-11.733433509789464,-11.733433509789462,images/picture_2.png,1,"[11.733433509789462, -11.733433509789466]",11.733433509789462,-11.733433509789464,images/picture_3.png,2,"[-11.733433509789462, 11.733433509789464]",-11.733433509789462,11.733433509789464,0,1,1,1.1363968393226498,2.13639683932265,0.86360316067735,3.0,1,1.8863968393226498,0,4.0,3.0,1,2,4,0,4,0,0,5,5,8,,,,,,,279.66320454189554,279.66320454189554,280.67744116694666,281.5636753339786,281.77724912494887,281.77724912494887,281.77724912494887,282.643973124912,282.643973124912,282.643973124912,282.643973124912,283.6446959999157,100001,001,2023-03-27_13h00.07.398,DMS_et_12-36,2022.2.4,None,
43,PRED,12,1.1363968393226498,2,images/picture_3.png,images/picture_1.png,0,"[-11.733433509789462, 11.733433509789464]",-11.733433509789462,11.733433509789464,images/picture_2.png,1,"[11.733433509789462, -11.733433509789466]",11.733433509789462,-11.733433509789464,images/picture_3.png,2,"[-11.733433509789466, -11.733433509789462]",-11.733433509789464,-11.733433509789462,0,1,1,1.1363968393226498,2.13639683932265,0.86360316067735,3.0,1,1.8863968393226498,0,4.0,3.0,1,2,4,0,4,0,0,6,6,7,,,,,,,283.6446959999157,283.6446959999157,284.64417437498923,285.5439989169827,285.777525292011,285.777525292011,285.777525292011,286.6441757499706,286.6441757499706,286.6441757499706,286.6441757499706,287.66381104197353,100001,001,2023-03-27_13h00.07.398,DMS_et_12-36,2022.2.4,None,
36,PRED,12,1.1363968393226498,2,images/picture_3.png,images/picture_1.png,0,"[-11.733433509789466, -11.733433509789462]",-11.733433509789464,-11.733433509789462,images/picture_2.png,1,"[-11.733433509789462, 11.733433509789464]",-11.733433509789462,11.733433509789464,images/picture_3.png,2,"[11.733433509789462, -11.733433509789466]",11.733433509789462,-11.733433509789464,0,1,1,1.1363968393226498,2.13639683932265,0.86360316067735,3.0,1,1.8863968393226498,0,4.0,3.0,1,2,4,0,4,0,0,7,7,0,,,,,,,287.66381104197353,287.66381104197353,288.67740970896557,289.5638011669507,289.7774658749113,289.7774658749113,289.7774658749113,290.64395699999295,290.64395699999295,290.64395699999295,290.64395699999295,291.66329404199496,100001,001,2023-03-27_13h00.07.398,DMS_et_12-36,2022.2.4,None,
37,PRED,12,1.1363968393226498,2,images/picture_3.png,images/picture_1.png,0,"[11.733433509789462, -11.733433509789466]",11.733433509789462,-11.733433509789464,images/picture_2.png,1,"[-11.733433509789462, 11.733433509789464]",-11.733433509789462,11.733433509789464,images/picture_3.png,2,"[11.733433509789464, 11.733433509789462]",11.733433509789464,11.733433509789462,0,1,1,1.1363968393226498,2.13639683932265,0.86360316067735,3.0,1,1.8863968393226498,0,4.0,3.0,1,2,4,0,4,0,0,8,8,1,,,,,,,291.66329404199496,291.66329404199496,292.67741766700055,293.56267349992413,293.777151041897,293.777151041897,293.777151041897,294.64403224992566,294.64403224992566,294.64403224992566,294.64403224992566,295.75324683391955,100001,001,2023-03-27_13h00.07.398,DMS_et_12-36,2022.2.4,None,
,,,,,,,,,,,,,,,,,,,,,,,,,,,,,,,,,,,4,0,4,0,,,,,,,,,295.75324683391955,307.7776003339095,,,,,,,,,,,,,100001,001,2023-03-27_13h00.07.398,DMS_et_12-36,2022.2.4,None,
47,UNPRED,12,1.1363968393226498,1,images/picture_2.png,images/picture_1.png,0,"[-11.733433509789462, 11.733433509789464]",-11.733433509789462,11.733433509789464,images/picture_2.png,1,"[11.733433509789464, 11.733433509789462]",11.733433509789464,11.733433509789462,images/picture_3.png,2,"[11.733433509789462, -11.733433509789466]",11.733433509789462,-11.733433509789464,0,1,1,1.1363968393226498,2.13639683932265,0.86360316067735,3.0,1,1.8863968393226498,0,4.0,3.0,1,2,5,0,5,0,0,0,0,2,,,,,,,307.7776003339095,307.7776003339095,308.7771757089067,309.6772093339823,309.9104960419936,309.9104960419936,309.9104960419936,310.77725270891096,310.77725270891096,310.77725270891096,310.77725270891096,311.79668970895,100001,001,2023-03-27_13h00.07.398,DMS_et_12-36,2022.2.4,None,
46,UNPRED,12,1.1363968393226498,2,images/picture_3.png,images/picture_1.png,0,"[11.733433509789464, 11.733433509789462]",11.733433509789464,11.733433509789462,images/picture_2.png,1,"[-11.733433509789466, -11.733433509789462]",-11.733433509789464,-11.733433509789462,images/picture_3.png,2,"[11.733433509789462, -11.733433509789466]",11.733433509789462,-11.733433509789464,0,1,1,1.1363968393226498,2.13639683932265,0.86360316067735,3.0,1,1.8863968393226498,0,4.0,3.0,1,2,5,0,5,0,0,1,1,1,,,,,,,311.79668970895,311.79668970895,312.8105270419037,313.69600058393553,313.91037345898803,313.91037345898803,313.91037345898803,314.77691866690293,314.77691866690293,314.77691866690293,314.77691866690293,315.81468062498607,100001,001,2023-03-27_13h00.07.398,DMS_et_12-36,2022.2.4,None,
49,UNPRED,12,1.1363968393226498,2,images/picture_3.png,images/picture_1.png,0,"[-11.733433509789466, -11.733433509789462]",-11.733433509789464,-11.733433509789462,images/picture_2.png,1,"[11.733433509789462, -11.733433509789466]",11.733433509789462,-11.733433509789464,images/picture_3.png,2,"[-11.733433509789462, 11.733433509789464]",-11.733433509789462,11.733433509789464,0,1,1,1.1363968393226498,2.13639683932265,0.86360316067735,3.0,1,1.8863968393226498,0,4.0,3.0,1,2,5,0,5,0,0,2,2,4,,,,,,,315.81468062498607,315.81468062498607,316.82991620898247,317.710501249996,317.9439527919749,317.9439527919749,317.9439527919749,318.8105693339603,318.8105693339603,318.8105693339603,318.8105693339603,319.80991629196797,100001,001,2023-03-27_13h00.07.398,DMS_et_12-36,2022.2.4,None,
48,UNPRED,12,1.1363968393226498,0,images/picture_1.png,images/picture_1.png,0,"[-11.733433509789466, -11.733433509789462]",-11.733433509789464,-11.733433509789462,images/picture_2.png,1,"[11.733433509789464, 11.733433509789462]",11.733433509789464,11.733433509789462,images/picture_3.png,2,"[11.733433509789462, -11.733433509789466]",11.733433509789462,-11.733433509789464,0,1,1,1.1363968393226498,2.13639683932265,0.86360316067735,3.0,1,1.8863968393226498,0,4.0,3.0,1,2,5,0,5,0,0,3,3,3,,,,,,,319.80991629196797,319.80991629196797,320.8105031249579,321.71065145893954,321.9439837919781,321.9439837919781,321.9439837919781,322.81071283400524,322.81071283400524,322.81071283400524,322.81071283400524,323.8100319589721,100001,001,2023-03-27_13h00.07.398,DMS_et_12-36,2022.2.4,None,
45,UNPRED,12,1.1363968393226498,0,images/picture_1.png,images/picture_1.png,0,"[-11.733433509789466, -11.733433509789462]",-11.733433509789464,-11.733433509789462,images/picture_2.png,1,"[11.733433509789462, -11.733433509789466]",11.733433509789462,-11.733433509789464,images/picture_3.png,2,"[-11.733433509789462, 11.733433509789464]",-11.733433509789462,11.733433509789464,0,1,1,1.1363968393226498,2.13639683932265,0.86360316067735,3.0,1,1.8863968393226498,0,4.0,3.0,1,2,5,0,5,0,0,4,4,0,,,,,,,323.8100319589721,323.8100319589721,324.8103655419545,325.7105560839409,325.9439360839315,325.9439360839315,325.9439360839315,326.8104975000024,326.8104975000024,326.8104975000024,326.8104975000024,327.81005045899656,100001,001,2023-03-27_13h00.07.398,DMS_et_12-36,2022.2.4,None,
53,UNPRED,12,1.1363968393226498,0,images/picture_1.png,images/picture_1.png,0,"[-11.733433509789466, -11.733433509789462]",-11.733433509789464,-11.733433509789462,images/picture_2.png,1,"[-11.733433509789462, 11.733433509789464]",-11.733433509789462,11.733433509789464,images/picture_3.png,2,"[11.733433509789464, 11.733433509789462]",11.733433509789464,11.733433509789462,0,1,1,1.1363968393226498,2.13639683932265,0.86360316067735,3.0,1,1.8863968393226498,0,4.0,3.0,1,2,5,0,5,0,0,5,5,8,,,,,,,327.81005045899656,327.81005045899656,328.81073679192923,329.7104912919458,329.94391987496056,329.94391987496056,329.94391987496056,330.81070920894854,330.81070920894854,330.81070920894854,330.81070920894854,331.80945745890494,100001,001,2023-03-27_13h00.07.398,DMS_et_12-36,2022.2.4,None,
52,UNPRED,12,1.1363968393226498,1,images/picture_2.png,images/picture_1.png,0,"[-11.733433509789466, -11.733433509789462]",-11.733433509789464,-11.733433509789462,images/picture_2.png,1,"[11.733433509789464, 11.733433509789462]",11.733433509789464,11.733433509789462,images/picture_3.png,2,"[11.733433509789462, -11.733433509789466]",11.733433509789462,-11.733433509789464,0,1,1,1.1363968393226498,2.13639683932265,0.86360316067735,3.0,1,1.8863968393226498,0,4.0,3.0,1,2,5,0,5,0,0,6,6,7,,,,,,,331.80945745890494,331.80945745890494,332.81066420895513,333.71068916691,333.9439274169272,333.9439274169272,333.9439274169272,334.8105164169101,334.8105164169101,334.8105164169101,334.8105164169101,335.80939508392476,100001,001,2023-03-27_13h00.07.398,DMS_et_12-36,2022.2.4,None,
50,UNPRED,12,1.1363968393226498,0,images/picture_1.png,images/picture_1.png,0,"[11.733433509789464, 11.733433509789462]",11.733433509789464,11.733433509789462,images/picture_2.png,1,"[-11.733433509789462, 11.733433509789464]",-11.733433509789462,11.733433509789464,images/picture_3.png,2,"[-11.733433509789466, -11.733433509789462]",-11.733433509789464,-11.733433509789462,0,1,1,1.1363968393226498,2.13639683932265,0.86360316067735,3.0,1,1.8863968393226498,0,4.0,3.0,1,2,5,0,5,0,0,7,7,5,,,,,,,335.80939508392476,335.80939508392476,336.81070245895535,337.7107165839989,337.94395374995656,337.94395374995656,337.94395374995656,338.8108097499935,338.8108097499935,338.8108097499935,338.8108097499935,339.8105815839954,100001,001,2023-03-27_13h00.07.398,DMS_et_12-36,2022.2.4,None,
51,UNPRED,12,1.1363968393226498,1,images/picture_2.png,images/picture_1.png,0,"[11.733433509789462, -11.733433509789466]",11.733433509789462,-11.733433509789464,images/picture_2.png,1,"[11.733433509789464, 11.733433509789462]",11.733433509789464,11.733433509789462,images/picture_3.png,2,"[-11.733433509789466, -11.733433509789462]",-11.733433509789464,-11.733433509789462,0,1,1,1.1363968393226498,2.13639683932265,0.86360316067735,3.0,1,1.8863968393226498,0,4.0,3.0,1,2,5,0,5,0,0,8,8,6,,,,,,,339.8105815839954,339.8105815839954,340.81052262498997,341.71071020897944,341.9439611249836,341.9439611249836,341.9439611249836,342.81075954192784,342.81075954192784,342.81075954192784,342.81075954192784,343.88111687498167,100001,001,2023-03-27_13h00.07.398,DMS_et_12-36,2022.2.4,None,
,,,,,,,,,,,,,,,,,,,,,,,,,,,,,,,,,,,5,0,5,0,,,,,,,,,343.88111687498167,355.9165585839655,,,,,,,,,,,,,100001,001,2023-03-27_13h00.07.398,DMS_et_12-36,2022.2.4,None,
57,PRED,12,1.1363968393226498,0,images/picture_1.png,images/picture_1.png,0,"[11.733433509789462, -11.733433509789466]",11.733433509789462,-11.733433509789464,images/picture_2.png,1,"[-11.733433509789466, -11.733433509789462]",-11.733433509789464,-11.733433509789462,images/picture_3.png,2,"[11.733433509789464, 11.733433509789462]",11.733433509789464,11.733433509789462,0,1,1,1.1363968393226498,2.13639683932265,0.86360316067735,3.0,1,1.8863968393226498,0,4.0,3.0,1,2,6,0,6,0,0,0,0,3,,,,,,,355.9165585839655,355.9165585839655,356.93006012495607,357.8107722919667,358.04406491690315,358.04406491690315,358.04406491690315,358.91070304194,358.91070304194,358.91070304194,358.91070304194,359.91018174996134,100001,001,2023-03-27_13h00.07.398,DMS_et_12-36,2022.2.4,None,
61,PRED,12,1.1363968393226498,0,images/picture_1.png,images/picture_1.png,0,"[11.733433509789464, 11.733433509789462]",11.733433509789464,11.733433509789462,images/picture_2.png,1,"[-11.733433509789462, 11.733433509789464]",-11.733433509789462,11.733433509789464,images/picture_3.png,2,"[-11.733433509789466, -11.733433509789462]",-11.733433509789464,-11.733433509789462,0,1,1,1.1363968393226498,2.13639683932265,0.86360316067735,3.0,1,1.8863968393226498,0,4.0,3.0,1,2,6,0,6,0,0,1,1,7,,,,,,,359.91018174996134,359.91018174996134,360.9107468749862,361.81070229189936,362.0439903339138,362.0439903339138,362.0439903339138,362.9106953339651,362.9106953339651,362.9106953339651,362.9106953339651,363.9101107919123,100001,001,2023-03-27_13h00.07.398,DMS_et_12-36,2022.2.4,None,
58,PRED,12,1.1363968393226498,0,images/picture_1.png,images/picture_1.png,0,"[-11.733433509789466, -11.733433509789462]",-11.733433509789464,-11.733433509789462,images/picture_2.png,1,"[11.733433509789464, 11.733433509789462]",11.733433509789464,11.733433509789462,images/picture_3.png,2,"[-11.733433509789462, 11.733433509789464]",-11.733433509789462,11.733433509789464,0,1,1,1.1363968393226498,2.13639683932265,0.86360316067735,3.0,1,1.8863968393226498,0,4.0,3.0,1,2,6,0,6,0,0,2,2,4,,,,,,,363.9101107919123,363.9101107919123,364.9107264589984,365.8102878750069,366.0437907499727,366.0437907499727,366.0437907499727,366.9107112919446,366.9107112919446,366.9107112919446,366.9107112919446,367.91053504194133,100001,001,2023-03-27_13h00.07.398,DMS_et_12-36,2022.2.4,None,
55,PRED,12,1.1363968393226498,0,images/picture_1.png,images/picture_1.png,0,"[11.733433509789462, -11.733433509789466]",11.733433509789462,-11.733433509789464,images/picture_2.png,1,"[-11.733433509789466, -11.733433509789462]",-11.733433509789464,-11.733433509789462,images/picture_3.png,2,"[11.733433509789464, 11.733433509789462]",11.733433509789464,11.733433509789462,0,1,1,1.1363968393226498,2.13639683932265,0.86360316067735,3.0,1,1.8863968393226498,0,4.0,3.0,1,2,6,0,6,0,0,3,3,1,,,,,,,367.91053504194133,367.91053504194133,368.9106804589974,369.81070512498263,370.04399691696744,370.04399691696744,370.04399691696744,370.91069591697305,370.91069591697305,370.91069591697305,370.91069591697305,371.9101027919678,100001,001,2023-03-27_13h00.07.398,DMS_et_12-36,2022.2.4,None,
62,PRED,12,1.1363968393226498,0,images/picture_1.png,images/picture_1.png,0,"[-11.733433509789466, -11.733433509789462]",-11.733433509789464,-11.733433509789462,images/picture_2.png,1,"[-11.733433509789462, 11.733433509789464]",-11.733433509789462,11.733433509789464,images/picture_3.png,2,"[11.733433509789464, 11.733433509789462]",11.733433509789464,11.733433509789462,0,1,1,1.1363968393226498,2.13639683932265,0.86360316067735,3.0,1,1.8863968393226498,0,4.0,3.0,1,2,6,0,6,0,0,4,4,8,,,,,,,371.9101027919678,371.9101027919678,372.91074766695965,373.81069183396176,374.0439597920049,374.0439597920049,374.0439597920049,374.91075879195705,374.91075879195705,374.91075879195705,374.91075879195705,375.91030695894733,100001,001,2023-03-27_13h00.07.398,DMS_et_12-36,2022.2.4,None,
60,PRED,12,1.1363968393226498,0,images/picture_1.png,images/picture_1.png,0,"[11.733433509789464, 11.733433509789462]",11.733433509789464,11.733433509789462,images/picture_2.png,1,"[11.733433509789462, -11.733433509789466]",11.733433509789462,-11.733433509789464,images/picture_3.png,2,"[-11.733433509789466, -11.733433509789462]",-11.733433509789464,-11.733433509789462,0,1,1,1.1363968393226498,2.13639683932265,0.86360316067735,3.0,1,1.8863968393226498,0,4.0,3.0,1,2,6,0,6,0,0,5,5,6,,,,,,,375.91030695894733,375.91030695894733,376.9107167919865,377.8107432499528,378.04425933398306,378.04425933398306,378.04425933398306,378.91074133396614,378.91074133396614,378.91074133396614,378.91074133396614,379.91040599998087,100001,001,2023-03-27_13h00.07.398,DMS_et_12-36,2022.2.4,None,
54,PRED,12,1.1363968393226498,0,images/picture_1.png,images/picture_1.png,0,"[11.733433509789462, -11.733433509789466]",11.733433509789462,-11.733433509789464,images/picture_2.png,1,"[11.733433509789464, 11.733433509789462]",11.733433509789464,11.733433509789462,images/picture_3.png,2,"[-11.733433509789462, 11.733433509789464]",-11.733433509789462,11.733433509789464,0,1,1,1.1363968393226498,2.13639683932265,0.86360316067735,3.0,1,1.8863968393226498,0,4.0,3.0,1,2,6,0,6,0,0,6,6,0,,,,,,,379.91040599998087,379.91040599998087,380.91073945898097,381.81031966698356,382.0439721669536,382.0439721669536,382.0439721669536,382.9107177919941,382.9107177919941,382.9107177919941,382.9107177919941,383.91018924990203,100001,001,2023-03-27_13h00.07.398,DMS_et_12-36,2022.2.4,None,
56,PRED,12,1.1363968393226498,0,images/picture_1.png,images/picture_1.png,0,"[11.733433509789464, 11.733433509789462]",11.733433509789464,11.733433509789462,images/picture_2.png,1,"[-11.733433509789466, -11.733433509789462]",-11.733433509789464,-11.733433509789462,images/picture_3.png,2,"[11.733433509789462, -11.733433509789466]",11.733433509789462,-11.733433509789464,0,1,1,1.1363968393226498,2.13639683932265,0.86360316067735,3.0,1,1.8863968393226498,0,4.0,3.0,1,2,6,0,6,0,0,7,7,2,,,,,,,383.91018924990203,383.91018924990203,384.91069275001064,385.8104878339218,386.0440838339273,386.0440838339273,386.0440838339273,386.9108152089175,386.9108152089175,386.9108152089175,386.9108152089175,387.9105090419762,100001,001,2023-03-27_13h00.07.398,DMS_et_12-36,2022.2.4,None,
59,PRED,12,1.1363968393226498,0,images/picture_1.png,images/picture_1.png,0,"[-11.733433509789466, -11.733433509789462]",-11.733433509789464,-11.733433509789462,images/picture_2.png,1,"[11.733433509789464, 11.733433509789462]",11.733433509789464,11.733433509789462,images/picture_3.png,2,"[11.733433509789462, -11.733433509789466]",11.733433509789462,-11.733433509789464,0,1,1,1.1363968393226498,2.13639683932265,0.86360316067735,3.0,1,1.8863968393226498,0,4.0,3.0,1,2,6,0,6,0,0,8,8,5,,,,,,,387.9105090419762,387.9105090419762,388.9106742499862,389.8104073340073,390.04403299989644,390.04403299989644,390.04403299989644,390.9106919169426,390.9106919169426,390.9106919169426,390.9106919169426,391.9842207089532,100001,001,2023-03-27_13h00.07.398,DMS_et_12-36,2022.2.4,None,
,,,,,,,,,,,,,,,,,,,,,,,,,,,,,,,,,,,6,0,6,0,,,,,,,,,391.9842207089532,404.0201339169871,,,,,,,,,,,,,100001,001,2023-03-27_13h00.07.398,DMS_et_12-36,2022.2.4,None,
68,UNPRED,12,1.1363968393226498,2,images/picture_3.png,images/picture_1.png,0,"[11.733433509789464, 11.733433509789462]",11.733433509789464,11.733433509789462,images/picture_2.png,1,"[-11.733433509789462, 11.733433509789464]",-11.733433509789462,11.733433509789464,images/picture_3.png,2,"[-11.733433509789466, -11.733433509789462]",-11.733433509789464,-11.733433509789462,0,1,1,1.1363968393226498,2.13639683932265,0.86360316067735,3.0,1,1.8863968393226498,0,4.0,3.0,1,2,7,0,7,0,0,0,0,5,,,,,,,404.0201339169871,404.0201339169871,405.0302642500028,405.9109112919541,406.1438407090027,406.1438407090027,406.1438407090027,407.0107840419514,407.0107840419514,407.0107840419514,407.0107840419514,408.0112222919706,100001,001,2023-03-27_13h00.07.398,DMS_et_12-36,2022.2.4,None,
69,UNPRED,12,1.1363968393226498,1,images/picture_2.png,images/picture_1.png,0,"[11.733433509789462, -11.733433509789466]",11.733433509789462,-11.733433509789464,images/picture_2.png,1,"[11.733433509789464, 11.733433509789462]",11.733433509789464,11.733433509789462,images/picture_3.png,2,"[-11.733433509789466, -11.733433509789462]",-11.733433509789464,-11.733433509789462,0,1,1,1.1363968393226498,2.13639683932265,0.86360316067735,3.0,1,1.8863968393226498,0,4.0,3.0,1,2,7,0,7,0,0,1,1,6,,,,,,,408.0112222919706,408.0112222919706,409.01070116693154,409.91071283398196,410.14397533400916,410.14397533400916,410.14397533400916,411.0108384588966,411.0108384588966,411.0108384588966,411.0108384588966,412.01046416698955,100001,001,2023-03-27_13h00.07.398,DMS_et_12-36,2022.2.4,None,
63,UNPRED,12,1.1363968393226498,0,images/picture_1.png,images/picture_1.png,0,"[-11.733433509789466, -11.733433509789462]",-11.733433509789464,-11.733433509789462,images/picture_2.png,1,"[11.733433509789462, -11.733433509789466]",11.733433509789462,-11.733433509789464,images/picture_3.png,2,"[-11.733433509789462, 11.733433509789464]",-11.733433509789462,11.733433509789464,0,1,1,1.1363968393226498,2.13639683932265,0.86360316067735,3.0,1,1.8863968393226498,0,4.0,3.0,1,2,7,0,7,0,0,2,2,0,,,,,,,412.01046416698955,412.01046416698955,413.0107714589685,413.9109405839117,414.14426479197573,414.14426479197573,414.14426479197573,415.0105656249216,415.0105656249216,415.0105656249216,415.0105656249216,416.01040370890405,100001,001,2023-03-27_13h00.07.398,DMS_et_12-36,2022.2.4,None,
64,UNPRED,12,1.1363968393226498,0,images/picture_1.png,images/picture_1.png,0,"[-11.733433509789462, 11.733433509789464]",-11.733433509789462,11.733433509789464,images/picture_2.png,1,"[-11.733433509789466, -11.733433509789462]",-11.733433509789464,-11.733433509789462,images/picture_3.png,2,"[11.733433509789464, 11.733433509789462]",11.733433509789464,11.733433509789462,0,1,1,1.1363968393226498,2.13639683932265,0.86360316067735,3.0,1,1.8863968393226498,0,4.0,3.0,1,2,7,0,7,0,0,3,3,1,,,,,,,416.01040370890405,416.01040370890405,417.01045262499247,417.910622458905,418.14416404196527,418.14416404196527,418.14416404196527,419.03288399998564,419.03288399998564,419.03288399998564,419.03288399998564,420.0435452919919,100001,001,2023-03-27_13h00.07.398,DMS_et_12-36,2022.2.4,None,
67,UNPRED,12,1.1363968393226498,1,images/picture_2.png,images/picture_1.png,0,"[-11.733433509789466, -11.733433509789462]",-11.733433509789464,-11.733433509789462,images/picture_2.png,1,"[-11.733433509789462, 11.733433509789464]",-11.733433509789462,11.733433509789464,images/picture_3.png,2,"[11.733433509789464, 11.733433509789462]",11.733433509789464,11.733433509789462,0,1,1,1.1363968393226498,2.13639683932265,0.86360316067735,3.0,1,1.8863968393226498,0,4.0,3.0,1,2,7,0,7,0,0,4,4,4,,,,,,,420.0435452919919,420.0435452919919,421.043956666952,421.9442191249691,422.1774924999336,422.1774924999336,422.1774924999336,423.04422591696493,423.04422591696493,423.04422591696493,423.04422591696493,424.04363924998324,100001,001,2023-03-27_13h00.07.398,DMS_et_12-36,2022.2.4,None,
71,UNPRED,12,1.1363968393226498,0,images/picture_1.png,images/picture_1.png,0,"[11.733433509789462, -11.733433509789466]",11.733433509789462,-11.733433509789464,images/picture_2.png,1,"[-11.733433509789466, -11.733433509789462]",-11.733433509789464,-11.733433509789462,images/picture_3.png,2,"[11.733433509789464, 11.733433509789462]",11.733433509789464,11.733433509789462,0,1,1,1.1363968393226498,2.13639683932265,0.86360316067735,3.0,1,1.8863968393226498,0,4.0,3.0,1,2,7,0,7,0,0,5,5,8,,,,,,,424.04363924998324,424.04363924998324,425.0441984588979,425.9442549169762,426.1774922499899,426.1774922499899,426.1774922499899,427.0437905419385,427.0437905419385,427.0437905419385,427.0437905419385,428.06290424999315,100001,001,2023-03-27_13h00.07.398,DMS_et_12-36,2022.2.4,None,
66,UNPRED,12,1.1363968393226498,2,images/picture_3.png,images/picture_1.png,0,"[-11.733433509789466, -11.733433509789462]",-11.733433509789464,-11.733433509789462,images/picture_2.png,1,"[11.733433509789464, 11.733433509789462]",11.733433509789464,11.733433509789462,images/picture_3.png,2,"[-11.733433509789462, 11.733433509789464]",-11.733433509789462,11.733433509789464,0,1,1,1.1363968393226498,2.13639683932265,0.86360316067735,3.0,1,1.8863968393226498,0,4.0,3.0,1,2,7,0,7,0,0,6,6,3,,,,,,,428.06290424999315,428.06290424999315,429.0775661249645,429.96333787497133,430.17751391697675,430.17751391697675,430.17751391697675,431.0442340839654,431.0442340839654,431.0442340839654,431.0442340839654,432.06384620897006,100001,001,2023-03-27_13h00.07.398,DMS_et_12-36,2022.2.4,None,
70,UNPRED,12,1.1363968393226498,2,images/picture_3.png,images/picture_1.png,0,"[-11.733433509789466, -11.733433509789462]",-11.733433509789464,-11.733433509789462,images/picture_2.png,1,"[-11.733433509789462, 11.733433509789464]",-11.733433509789462,11.733433509789464,images/picture_3.png,2,"[11.733433509789462, -11.733433509789466]",11.733433509789462,-11.733433509789464,0,1,1,1.1363968393226498,2.13639683932265,0.86360316067735,3.0,1,1.8863968393226498,0,4.0,3.0,1,2,7,0,7,0,0,7,7,7,,,,,,,432.06384620897006,432.06384620897006,433.07751712494064,433.96337320900057,434.1775606669253,434.1775606669253,434.1775606669253,435.0442529589636,435.0442529589636,435.0442529589636,435.0442529589636,436.06388079200406,100001,001,2023-03-27_13h00.07.398,DMS_et_12-36,2022.2.4,None,
65,UNPRED,12,1.1363968393226498,2,images/picture_3.png,images/picture_1.png,0,"[11.733433509789464, 11.733433509789462]",11.733433509789464,11.733433509789462,images/picture_2.png,1,"[-11.733433509789466, -11.733433509789462]",-11.733433509789464,-11.733433509789462,images/picture_3.png,2,"[11.733433509789462, -11.733433509789466]",11.733433509789462,-11.733433509789464,0,1,1,1.1363968393226498,2.13639683932265,0.86360316067735,3.0,1,1.8863968393226498,0,4.0,3.0,1,2,7,0,7,0,0,8,8,2,,,,,,,436.06388079200406,436.06388079200406,437.0774257919984,437.9629760419484,438.17751416692045,438.17751416692045,438.17751416692045,439.04427262500394,439.04427262500394,439.04427262500394,439.04427262500394,440.13742045895196,100001,001,2023-03-27_13h00.07.398,DMS_et_12-36,2022.2.4,None,
,,,,,,,,,,,,,,,,,,,,,,,,,,,,,,,,,,,7,0,7,0,,,,,,,,,440.13742045895196,452.16297699999996,,,,,,,,,,,,,100001,001,2023-03-27_13h00.07.398,DMS_et_12-36,2022.2.4,None,
79,PRED,12,1.1363968393226498,1,images/picture_2.png,images/picture_1.png,0,"[-11.733433509789462, 11.733433509789464]",-11.733433509789462,11.733433509789464,images/picture_2.png,1,"[-11.733433509789466, -11.733433509789462]",-11.733433509789464,-11.733433509789462,images/picture_3.png,2,"[11.733433509789464, 11.733433509789462]",11.733433509789464,11.733433509789462,0,1,1,1.1363968393226498,2.13639683932265,0.86360316067735,3.0,1,1.8863968393226498,0,4.0,3.0,1,2,8,0,8,0,0,0,0,7,,,,,,,452.16297699999996,452.16297699999996,453.1776763749076,454.0634230419528,454.2971806669375,454.2971806669375,454.2971806669375,455.163540791953,455.163540791953,455.163540791953,455.1442547918996,456.1436809999868,100001,001,2023-03-27_13h00.07.398,DMS_et_12-36,2022.2.4,None,
72,PRED,12,1.1363968393226498,1,images/picture_2.png,images/picture_1.png,0,"[11.733433509789462, -11.733433509789466]",11.733433509789462,-11.733433509789464,images/picture_2.png,1,"[-11.733433509789462, 11.733433509789464]",-11.733433509789462,11.733433509789464,images/picture_3.png,2,"[11.733433509789464, 11.733433509789462]",11.733433509789464,11.733433509789462,0,1,1,1.1363968393226498,2.13639683932265,0.86360316067735,3.0,1,1.8863968393226498,0,4.0,3.0,1,2,8,0,8,0,0,1,1,0,,,,,,,456.1436809999868,456.1436809999868,457.14407066698186,458.0439399589086,458.27731845900416,458.27731845900416,458.27731845900416,459.1442506669555,459.1442506669555,459.1442506669555,459.1442506669555,460.1432545839343,100001,001,2023-03-27_13h00.07.398,DMS_et_12-36,2022.2.4,None,
73,PRED,12,1.1363968393226498,1,images/picture_2.png,images/picture_1.png,0,"[11.733433509789464, 11.733433509789462]",11.733433509789464,11.733433509789462,images/picture_2.png,1,"[-11.733433509789462, 11.733433509789464]",-11.733433509789462,11.733433509789464,images/picture_3.png,2,"[-11.733433509789466, -11.733433509789462]",-11.733433509789464,-11.733433509789462,0,1,1,1.1363968393226498,2.13639683932265,0.86360316067735,3.0,1,1.8863968393226498,0,4.0,3.0,1,2,8,0,8,0,0,2,2,1,,,,,,,460.1432545839343,460.1432545839343,461.1443017499987,462.0443158339476,462.27761912497226,462.27761912497226,462.27761912497226,463.14425270899665,463.14425270899665,463.14425270899665,463.14425270899665,464.1438270419603,100001,001,2023-03-27_13h00.07.398,DMS_et_12-36,2022.2.4,None,
77,PRED,12,1.1363968393226498,1,images/picture_2.png,images/picture_1.png,0,"[-11.733433509789466, -11.733433509789462]",-11.733433509789464,-11.733433509789462,images/picture_2.png,1,"[11.733433509789462, -11.733433509789466]",11.733433509789462,-11.733433509789464,images/picture_3.png,2,"[11.733433509789464, 11.733433509789462]",11.733433509789464,11.733433509789462,0,1,1,1.1363968393226498,2.13639683932265,0.86360316067735,3.0,1,1.8863968393226498,0,4.0,3.0,1,2,8,0,8,0,0,3,3,5,,,,,,,464.1438270419603,464.1438270419603,465.1441781249596,466.0443189590005,466.2777100839885,466.2777100839885,466.2777100839885,467.14446079195477,467.14446079195477,467.14446079195477,467.14446079195477,468.1440013339743,100001,001,2023-03-27_13h00.07.398,DMS_et_12-36,2022.2.4,None,
80,PRED,12,1.1363968393226498,1,images/picture_2.png,images/picture_1.png,0,"[11.733433509789462, -11.733433509789466]",11.733433509789462,-11.733433509789464,images/picture_2.png,1,"[11.733433509789464, 11.733433509789462]",11.733433509789464,11.733433509789462,images/picture_3.png,2,"[-11.733433509789466, -11.733433509789462]",-11.733433509789464,-11.733433509789462,0,1,1,1.1363968393226498,2.13639683932265,0.86360316067735,3.0,1,1.8863968393226498,0,4.0,3.0,1,2,8,0,8,0,0,4,4,8,,,,,,,468.1440013339743,468.1440013339743,469.14421987498645,470.0444215419702,470.27769166696817,470.27769166696817,470.27769166696817,471.1442724999506,471.1442724999506,471.1442724999506,471.1442724999506,472.1436904169386,100001,001,2023-03-27_13h00.07.398,DMS_et_12-36,2022.2.4,None,
76,PRED,12,1.1363968393226498,1,images/picture_2.png,images/picture_1.png,0,"[11.733433509789462, -11.733433509789466]",11.733433509789462,-11.733433509789464,images/picture_2.png,1,"[-11.733433509789462, 11.733433509789464]",-11.733433509789462,11.733433509789464,images/picture_3.png,2,"[11.733433509789464, 11.733433509789462]",11.733433509789464,11.733433509789462,0,1,1,1.1363968393226498,2.13639683932265,0.86360316067735,3.0,1,1.8863968393226498,0,4.0,3.0,1,2,8,0,8,0,0,5,5,4,,,,,,,472.1436904169386,472.1436904169386,473.14441216690466,474.0443405419355,474.277403416927,474.277403416927,474.277403416927,475.14445808390155,475.14445808390155,475.14445808390155,475.14445808390155,476.1440381669672,100001,001,2023-03-27_13h00.07.398,DMS_et_12-36,2022.2.4,None,
74,PRED,12,1.1363968393226498,1,images/picture_2.png,images/picture_1.png,0,"[-11.733433509789466, -11.733433509789462]",-11.733433509789464,-11.733433509789462,images/picture_2.png,1,"[-11.733433509789462, 11.733433509789464]",-11.733433509789462,11.733433509789464,images/picture_3.png,2,"[11.733433509789462, -11.733433509789466]",11.733433509789462,-11.733433509789464,0,1,1,1.1363968393226498,2.13639683932265,0.86360316067735,3.0,1,1.8863968393226498,0,4.0,3.0,1,2,8,0,8,0,0,6,6,2,,,,,,,476.1440381669672,476.1440381669672,477.1442262500059,478.0439278749982,478.27735033398494,478.27735033398494,478.27735033398494,479.14445370889734,479.14445370889734,479.14445370889734,479.14445370889734,480.14384524989873,100001,001,2023-03-27_13h00.07.398,DMS_et_12-36,2022.2.4,None,
78,PRED,12,1.1363968393226498,1,images/picture_2.png,images/picture_1.png,0,"[11.733433509789462, -11.733433509789466]",11.733433509789462,-11.733433509789464,images/picture_2.png,1,"[11.733433509789464, 11.733433509789462]",11.733433509789464,11.733433509789462,images/picture_3.png,2,"[-11.733433509789466, -11.733433509789462]",-11.733433509789464,-11.733433509789462,0,1,1,1.1363968393226498,2.13639683932265,0.86360316067735,3.0,1,1.8863968393226498,0,4.0,3.0,1,2,8,0,8,0,0,7,7,6,,,,,,,480.14384524989873,480.14384524989873,481.1444245839957,482.04440558399074,482.2777178749675,482.2777178749675,482.2777178749675,483.14424287492875,483.14424287492875,483.14424287492875,483.14424287492875,484.14342954196036,100001,001,2023-03-27_13h00.07.398,DMS_et_12-36,2022.2.4,None,
75,PRED,12,1.1363968393226498,1,images/picture_2.png,images/picture_1.png,0,"[11.733433509789464, 11.733433509789462]",11.733433509789464,11.733433509789462,images/picture_2.png,1,"[-11.733433509789466, -11.733433509789462]",-11.733433509789464,-11.733433509789462,images/picture_3.png,2,"[-11.733433509789462, 11.733433509789464]",-11.733433509789462,11.733433509789464,0,1,1,1.1363968393226498,2.13639683932265,0.86360316067735,3.0,1,1.8863968393226498,0,4.0,3.0,1,2,8,0,8,0,0,8,8,3,,,,,,,484.14342954196036,484.14342954196036,485.14423924998846,486.04422791698016,486.27770804194734,486.27770804194734,486.27770804194734,487.14422183390707,487.14422183390707,487.14422183390707,487.14422183390707,488.22244404198136,100001,001,2023-03-27_13h00.07.398,DMS_et_12-36,2022.2.4,None,
,,,,,,,,,,,,,,,,,,,,,,,,,,,,,,,,,,,8,0,8,0,,,,,,,,,488.22244404198136,500.2487840419635,,,,,,,,,,,,,100001,001,2023-03-27_13h00.07.398,DMS_et_12-36,2022.2.4,None,
85,UNPRED,12,1.1363968393226498,2,images/picture_3.png,images/picture_1.png,0,"[-11.733433509789466, -11.733433509789462]",-11.733433509789464,-11.733433509789462,images/picture_2.png,1,"[11.733433509789462, -11.733433509789466]",11.733433509789462,-11.733433509789464,images/picture_3.png,2,"[-11.733433509789462, 11.733433509789464]",-11.733433509789462,11.733433509789464,0,1,1,1.1363968393226498,2.13639683932265,0.86360316067735,3.0,1,1.8863968393226498,0,4.0,3.0,1,2,9,0,9,0,0,0,0,4,,,,,,,500.2487840419635,500.2487840419635,501.2632152090082,502.14442883396987,502.3777301670052,502.3777301670052,502.3777301670052,503.2444195419084,503.2444195419084,503.2444195419084,503.2444195419084,504.24522395897657,100001,001,2023-03-27_13h00.07.398,DMS_et_12-36,2022.2.4,None,
81,UNPRED,12,1.1363968393226498,1,images/picture_2.png,images/picture_1.png,0,"[-11.733433509789462, 11.733433509789464]",-11.733433509789462,11.733433509789464,images/picture_2.png,1,"[11.733433509789462, -11.733433509789466]",11.733433509789462,-11.733433509789464,images/picture_3.png,2,"[11.733433509789464, 11.733433509789462]",11.733433509789464,11.733433509789462,0,1,1,1.1363968393226498,2.13639683932265,0.86360316067735,3.0,1,1.8863968393226498,0,4.0,3.0,1,2,9,0,9,0,0,1,1,0,,,,,,,504.24522395897657,504.24522395897657,505.2444821669487,506.14464262500405,506.37772204191424,506.37772204191424,506.37772204191424,507.2444690419361,507.2444690419361,507.2444690419361,507.2444690419361,508.2432339589577,100001,001,2023-03-27_13h00.07.398,DMS_et_12-36,2022.2.4,None,
84,UNPRED,12,1.1363968393226498,0,images/picture_1.png,images/picture_1.png,0,"[-11.733433509789466, -11.733433509789462]",-11.733433509789464,-11.733433509789462,images/picture_2.png,1,"[-11.733433509789462, 11.733433509789464]",-11.733433509789462,11.733433509789464,images/picture_3.png,2,"[11.733433509789464, 11.733433509789462]",11.733433509789464,11.733433509789462,0,1,1,1.1363968393226498,2.13639683932265,0.86360316067735,3.0,1,1.8863968393226498,0,4.0,3.0,1,2,9,0,9,0,0,2,2,3,,,,,,,508.2432339589577,508.2432339589577,509.24413783394266,510.14448737492785,510.377754791989,510.377754791989,510.377754791989,511.2444943339797,511.2444943339797,511.2444943339797,511.2444943339797,512.2438193749404,100001,001,2023-03-27_13h00.07.398,DMS_et_12-36,2022.2.4,None,
87,UNPRED,12,1.1363968393226498,0,images/picture_1.png,images/picture_1.png,0,"[-11.733433509789466, -11.733433509789462]",-11.733433509789464,-11.733433509789462,images/picture_2.png,1,"[-11.733433509789462, 11.733433509789464]",-11.733433509789462,11.733433509789464,images/picture_3.png,2,"[11.733433509789464, 11.733433509789462]",11.733433509789464,11.733433509789462,0,1,1,1.1363968393226498,2.13639683932265,0.86360316067735,3.0,1,1.8863968393226498,0,4.0,3.0,1,2,9,0,9,0,0,3,3,6,,,,,,,512.2438193749404,512.2438193749404,513.2444711669814,514.1444470839342,514.377711124951,514.377711124951,514.377711124951,515.2444233339047,515.2444233339047,515.2444233339047,515.2444233339047,516.2441727499245,100001,001,2023-03-27_13h00.07.398,DMS_et_12-36,2022.2.4,None,
88,UNPRED,12,1.1363968393226498,0,images/picture_1.png,images/picture_1.png,0,"[-11.733433509789466, -11.733433509789462]",-11.733433509789464,-11.733433509789462,images/picture_2.png,1,"[11.733433509789464, 11.733433509789462]",11.733433509789464,11.733433509789462,images/picture_3.png,2,"[11.733433509789462, -11.733433509789466]",11.733433509789462,-11.733433509789464,0,1,1,1.1363968393226498,2.13639683932265,0.86360316067735,3.0,1,1.8863968393226498,0,4.0,3.0,1,2,9,0,9,0,0,4,4,7,,,,,,,516.2441727499245,516.2441727499245,517.2445207919227,518.1444261670113,518.3777144589694,518.3777144589694,518.3777144589694,519.244057666976,519.244057666976,519.244057666976,519.244057666976,520.2443732499378,100001,001,2023-03-27_13h00.07.398,DMS_et_12-36,2022.2.4,None,
82,UNPRED,12,1.1363968393226498,1,images/picture_2.png,images/picture_1.png,0,"[11.733433509789464, 11.733433509789462]",11.733433509789464,11.733433509789462,images/picture_2.png,1,"[-11.733433509789462, 11.733433509789464]",-11.733433509789462,11.733433509789464,images/picture_3.png,2,"[11.733433509789462, -11.733433509789466]",11.733433509789462,-11.733433509789464,0,1,1,1.1363968393226498,2.13639683932265,0.86360316067735,3.0,1,1.8863968393226498,0,4.0,3.0,1,2,9,0,9,0,0,5,5,1,,,,,,,520.2443732499378,520.2443732499378,521.2445514589781,522.1444214169169,522.3777138339356,522.3777138339356,522.3777138339356,523.2445040419698,523.2445040419698,523.2445040419698,523.2445040419698,524.2634006249718,100001,001,2023-03-27_13h00.07.398,DMS_et_12-36,2022.2.4,None,
86,UNPRED,12,1.1363968393226498,2,images/picture_3.png,images/picture_1.png,0,"[-11.733433509789462, 11.733433509789464]",-11.733433509789462,11.733433509789464,images/picture_2.png,1,"[11.733433509789464, 11.733433509789462]",11.733433509789464,11.733433509789462,images/picture_3.png,2,"[11.733433509789462, -11.733433509789466]",11.733433509789462,-11.733433509789464,0,1,1,1.1363968393226498,2.13639683932265,0.86360316067735,3.0,1,1.8863968393226498,0,4.0,3.0,1,2,9,0,9,0,0,6,6,5,,,,,,,524.2634006249718,524.2634006249718,525.2779212499736,526.1637962089153,526.3777918749256,526.3777918749256,526.3777918749256,527.244464208954,527.244464208954,527.244464208954,527.244464208954,528.2439233749174,100001,001,2023-03-27_13h00.07.398,DMS_et_12-36,2022.2.4,None,
83,UNPRED,12,1.1363968393226498,0,images/picture_1.png,images/picture_1.png,0,"[-11.733433509789466, -11.733433509789462]",-11.733433509789464,-11.733433509789462,images/picture_2.png,1,"[-11.733433509789462, 11.733433509789464]",-11.733433509789462,11.733433509789464,images/picture_3.png,2,"[11.733433509789462, -11.733433509789466]",11.733433509789462,-11.733433509789464,0,1,1,1.1363968393226498,2.13639683932265,0.86360316067735,3.0,1,1.8863968393226498,0,4.0,3.0,1,2,9,0,9,0,0,7,7,2,,,,,,,528.2439233749174,528.2439233749174,529.244176041917,530.1442576249829,530.3776009170106,530.3776009170106,530.3776009170106,531.2445127089741,531.2445127089741,531.2445127089741,531.2445127089741,532.2443929589354,100001,001,2023-03-27_13h00.07.398,DMS_et_12-36,2022.2.4,None,
89,UNPRED,12,1.1363968393226498,1,images/picture_2.png,images/picture_1.png,0,"[11.733433509789462, -11.733433509789466]",11.733433509789462,-11.733433509789464,images/picture_2.png,1,"[-11.733433509789466, -11.733433509789462]",-11.733433509789464,-11.733433509789462,images/picture_3.png,2,"[-11.733433509789462, 11.733433509789464]",-11.733433509789462,11.733433509789464,0,1,1,1.1363968393226498,2.13639683932265,0.86360316067735,3.0,1,1.8863968393226498,0,4.0,3.0,1,2,9,0,9,0,0,8,8,8,,,,,,,532.2443929589354,532.2443929589354,533.244168208912,534.1444781249156,534.3777378340019,534.3777378340019,534.3777378340019,535.2444904169533,535.2444904169533,535.2444904169533,535.2444904169533,536.3510527919279,100001,001,2023-03-27_13h00.07.398,DMS_et_12-36,2022.2.4,None,
,,,,,,,,,,,,,,,,,,,,,,,,,,,,,,,,,,,9,0,9,0,,,,,,,,,536.3510527919279,548.3828154589282,,,,,,,,,,,,,100001,001,2023-03-27_13h00.07.398,DMS_et_12-36,2022.2.4,None,
93,PRED,12,1.1363968393226498,0,images/picture_1.png,images/picture_1.png,0,"[-11.733433509789466, -11.733433509789462]",-11.733433509789464,-11.733433509789462,images/picture_2.png,1,"[-11.733433509789462, 11.733433509789464]",-11.733433509789462,11.733433509789464,images/picture_3.png,2,"[11.733433509789462, -11.733433509789466]",11.733433509789462,-11.733433509789464,0,1,1,1.1363968393226498,2.13639683932265,0.86360316067735,3.0,1,1.8863968393226498,0,4.0,3.0,1,2,10,0,10,0,0,0,0,3,,,,,,,548.3828154589282,548.3828154589282,549.3964554999257,550.2776096669259,550.5108204589924,550.5108204589924,550.5108204589924,551.3778206249699,551.3778206249699,551.3778206249699,551.3778206249699,552.3775422089966,100001,001,2023-03-27_13h00.07.398,DMS_et_12-36,2022.2.4,None,
95,PRED,12,1.1363968393226498,0,images/picture_1.png,images/picture_1.png,0,"[-11.733433509789462, 11.733433509789464]",-11.733433509789462,11.733433509789464,images/picture_2.png,1,"[-11.733433509789466, -11.733433509789462]",-11.733433509789464,-11.733433509789462,images/picture_3.png,2,"[11.733433509789464, 11.733433509789462]",11.733433509789464,11.733433509789462,0,1,1,1.1363968393226498,2.13639683932265,0.86360316067735,3.0,1,1.8863968393226498,0,4.0,3.0,1,2,10,0,10,0,0,1,1,5,,,,,,,552.3775422089966,552.3775422089966,553.3780209999532,554.2778132499661,554.5109248749213,554.5109248749213,554.5109248749213,555.37804683391,555.37804683391,555.37804683391,555.37804683391,556.3774418749381,100001,001,2023-03-27_13h00.07.398,DMS_et_12-36,2022.2.4,None,
92,PRED,12,1.1363968393226498,0,images/picture_1.png,images/picture_1.png,0,"[11.733433509789464, 11.733433509789462]",11.733433509789464,11.733433509789462,images/picture_2.png,1,"[-11.733433509789466, -11.733433509789462]",-11.733433509789464,-11.733433509789462,images/picture_3.png,2,"[11.733433509789462, -11.733433509789466]",11.733433509789462,-11.733433509789464,0,1,1,1.1363968393226498,2.13639683932265,0.86360316067735,3.0,1,1.8863968393226498,0,4.0,3.0,1,2,10,0,10,0,0,2,2,2,,,,,,,556.3774418749381,556.3774418749381,557.3778205419658,558.277977541904,558.5112842499511,558.5112842499511,558.5112842499511,559.3781076249434,559.3781076249434,559.3781076249434,559.3781076249434,560.3775310839992,100001,001,2023-03-27_13h00.07.398,DMS_et_12-36,2022.2.4,None,
98,PRED,12,1.1363968393226498,0,images/picture_1.png,images/picture_1.png,0,"[11.733433509789464, 11.733433509789462]",11.733433509789464,11.733433509789462,images/picture_2.png,1,"[-11.733433509789462, 11.733433509789464]",-11.733433509789462,11.733433509789464,images/picture_3.png,2,"[-11.733433509789466, -11.733433509789462]",-11.733433509789464,-11.733433509789462,0,1,1,1.1363968393226498,2.13639683932265,0.86360316067735,3.0,1,1.8863968393226498,0,4.0,3.0,1,2,10,0,10,0,0,3,3,8,,,,,,,560.3775310839992,560.3775310839992,561.3780067499029,562.2780096249189,562.5112681669416,562.5112681669416,562.5112681669416,563.3780025419546,563.3780025419546,563.3780025419546,563.3780025419546,564.3773579169065,100001,001,2023-03-27_13h00.07.398,DMS_et_12-36,2022.2.4,None,
97,PRED,12,1.1363968393226498,0,images/picture_1.png,images/picture_1.png,0,"[-11.733433509789462, 11.733433509789464]",-11.733433509789462,11.733433509789464,images/picture_2.png,1,"[11.733433509789464, 11.733433509789462]",11.733433509789464,11.733433509789462,images/picture_3.png,2,"[11.733433509789462, -11.733433509789466]",11.733433509789462,-11.733433509789464,0,1,1,1.1363968393226498,2.13639683932265,0.86360316067735,3.0,1,1.8863968393226498,0,4.0,3.0,1,2,10,0,10,0,0,4,4,7,,,,,,,564.3773579169065,564.3773579169065,565.3779722918989,566.2777750419918,566.5112349999836,566.5112349999836,566.5112349999836,567.3779925839044,567.3779925839044,567.3779925839044,567.3779925839044,568.3774209169205,100001,001,2023-03-27_13h00.07.398,DMS_et_12-36,2022.2.4,None,
94,PRED,12,1.1363968393226498,0,images/picture_1.png,images/picture_1.png,0,"[-11.733433509789466, -11.733433509789462]",-11.733433509789464,-11.733433509789462,images/picture_2.png,1,"[11.733433509789462, -11.733433509789466]",11.733433509789462,-11.733433509789464,images/picture_3.png,2,"[11.733433509789464, 11.733433509789462]",11.733433509789464,11.733433509789462,0,1,1,1.1363968393226498,2.13639683932265,0.86360316067735,3.0,1,1.8863968393226498,0,4.0,3.0,1,2,10,0,10,0,0,5,5,4,,,,,,,568.3774209169205,568.3774209169205,569.3777977919672,570.2776019999292,570.5109699589666,570.5109699589666,570.5109699589666,571.3775229169987,571.3775229169987,571.3775229169987,571.3775229169987,572.3775984999957,100001,001,2023-03-27_13h00.07.398,DMS_et_12-36,2022.2.4,None,
90,PRED,12,1.1363968393226498,0,images/picture_1.png,images/picture_1.png,0,"[11.733433509789462, -11.733433509789466]",11.733433509789462,-11.733433509789464,images/picture_2.png,1,"[-11.733433509789462, 11.733433509789464]",-11.733433509789462,11.733433509789464,images/picture_3.png,2,"[11.733433509789464, 11.733433509789462]",11.733433509789464,11.733433509789462,0,1,1,1.1363968393226498,2.13639683932265,0.86360316067735,3.0,1,1.8863968393226498,0,4.0,3.0,1,2,10,0,10,0,0,6,6,0,,,,,,,572.3775984999957,572.3775984999957,573.3779935420025,574.2780467089033,574.51126733399,574.51126733399,574.51126733399,575.3780065419851,575.3780065419851,575.3780065419851,575.3780065419851,576.3773324999493,100001,001,2023-03-27_13h00.07.398,DMS_et_12-36,2022.2.4,None,
91,PRED,12,1.1363968393226498,0,images/picture_1.png,images/picture_1.png,0,"[11.733433509789462, -11.733433509789466]",11.733433509789462,-11.733433509789464,images/picture_2.png,1,"[-11.733433509789466, -11.733433509789462]",-11.733433509789464,-11.733433509789462,images/picture_3.png,2,"[11.733433509789464, 11.733433509789462]",11.733433509789464,11.733433509789462,0,1,1,1.1363968393226498,2.13639683932265,0.86360316067735,3.0,1,1.8863968393226498,0,4.0,3.0,1,2,10,0,10,0,0,7,7,1,,,,,,,576.3773324999493,576.3773324999493,577.3780630839756,578.2779106670059,578.5112761670025,578.5112761670025,578.5112761670025,579.3780495419633,579.3780495419633,579.3780495419633,579.3780495419633,580.3773238339927,100001,001,2023-03-27_13h00.07.398,DMS_et_12-36,2022.2.4,None,
96,PRED,12,1.1363968393226498,0,images/picture_1.png,images/picture_1.png,0,"[-11.733433509789462, 11.733433509789464]",-11.733433509789462,11.733433509789464,images/picture_2.png,1,"[11.733433509789464, 11.733433509789462]",11.733433509789464,11.733433509789462,images/picture_3.png,2,"[11.733433509789462, -11.733433509789466]",11.733433509789462,-11.733433509789464,0,1,1,1.1363968393226498,2.13639683932265,0.86360316067735,3.0,1,1.8863968393226498,0,4.0,3.0,1,2,10,0,10,0,0,8,8,6,,,,,,,580.3773238339927,580.3773238339927,581.3777413750067,582.2779212089954,582.5112417499768,582.5112417499768,582.5112417499768,583.3779534169007,583.3779534169007,583.3779534169007,583.3779534169007,584.5115565418964,100001,001,2023-03-27_13h00.07.398,DMS_et_12-36,2022.2.4,None,
,,,,,,,,,,,,,,,,,,,,,,,,,,,,,,,,,,,10,0,10,0,,,,,,,,,584.5115565418964,596.5354722499615,,,,,,,,,,,,,100001,001,2023-03-27_13h00.07.398,DMS_et_12-36,2022.2.4,None,
107,UNPRED,12,1.1363968393226498,1,images/picture_2.png,images/picture_1.png,0,"[11.733433509789464, 11.733433509789462]",11.733433509789464,11.733433509789462,images/picture_2.png,1,"[-11.733433509789462, 11.733433509789464]",-11.733433509789462,11.733433509789464,images/picture_3.png,2,"[11.733433509789462, -11.733433509789466]",11.733433509789462,-11.733433509789464,0,1,1,1.1363968393226498,2.13639683932265,0.86360316067735,3.0,1,1.8863968393226498,0,4.0,3.0,1,2,11,0,11,0,0,0,0,8,,,,,,,596.5354722499615,596.5354722499615,597.5443775840104,598.4308273749193,598.6640804999042,598.6640804999042,598.6640804999042,599.5305036249338,599.5305036249338,599.5305036249338,599.5305036249338,600.5441292090109,100001,001,2023-03-27_13h00.07.398,DMS_et_12-36,2022.2.4,None,
105,UNPRED,12,1.1363968393226498,1,images/picture_2.png,images/picture_1.png,0,"[11.733433509789462, -11.733433509789466]",11.733433509789462,-11.733433509789464,images/picture_2.png,1,"[-11.733433509789462, 11.733433509789464]",-11.733433509789462,11.733433509789464,images/picture_3.png,2,"[11.733433509789464, 11.733433509789462]",11.733433509789464,11.733433509789462,0,1,1,1.1363968393226498,2.13639683932265,0.86360316067735,3.0,1,1.8863968393226498,0,4.0,3.0,1,2,11,0,11,0,0,1,1,6,,,,,,,600.5441292090109,600.5441292090109,601.544235499925,602.4447364589432,602.6780092919944,602.6780092919944,602.6780092919944,603.5445142500103,603.5445142500103,603.5445142500103,603.5445142500103,604.5437154589454,100001,001,2023-03-27_13h00.07.398,DMS_et_12-36,2022.2.4,None,
103,UNPRED,12,1.1363968393226498,1,images/picture_2.png,images/picture_1.png,0,"[-11.733433509789466, -11.733433509789462]",-11.733433509789464,-11.733433509789462,images/picture_2.png,1,"[-11.733433509789462, 11.733433509789464]",-11.733433509789462,11.733433509789464,images/picture_3.png,2,"[11.733433509789462, -11.733433509789466]",11.733433509789462,-11.733433509789464,0,1,1,1.1363968393226498,2.13639683932265,0.86360316067735,3.0,1,1.8863968393226498,0,4.0,3.0,1,2,11,0,11,0,0,2,2,4,,,,,,,604.5437154589454,604.5437154589454,605.5447369589237,606.4445398339303,606.6780087919906,606.6780087919906,606.6780087919906,607.5447093339171,607.5447093339171,607.5447093339171,607.5447093339171,608.5632166669238,100001,001,2023-03-27_13h00.07.398,DMS_et_12-36,2022.2.4,None,
104,UNPRED,12,1.1363968393226498,2,images/picture_3.png,images/picture_1.png,0,"[11.733433509789464, 11.733433509789462]",11.733433509789464,11.733433509789462,images/picture_2.png,1,"[-11.733433509789462, 11.733433509789464]",-11.733433509789462,11.733433509789464,images/picture_3.png,2,"[-11.733433509789466, -11.733433509789462]",-11.733433509789464,-11.733433509789462,0,1,1,1.1363968393226498,2.13639683932265,0.86360316067735,3.0,1,1.8863968393226498,0,4.0,3.0,1,2,11,0,11,0,0,3,3,5,,,,,,,608.5632166669238,608.5632166669238,609.5780132499058,610.4640295839636,610.6780980839394,610.6780980839394,610.6780980839394,611.5442683339352,611.5442683339352,611.5442683339352,611.5442683339352,612.5636802919907,100001,001,2023-03-27_13h00.07.398,DMS_et_12-36,2022.2.4,None,
101,UNPRED,12,1.1363968393226498,2,images/picture_3.png,images/picture_1.png,0,"[-11.733433509789466, -11.733433509789462]",-11.733433509789464,-11.733433509789462,images/picture_2.png,1,"[11.733433509789462, -11.733433509789466]",11.733433509789462,-11.733433509789464,images/picture_3.png,2,"[-11.733433509789462, 11.733433509789464]",-11.733433509789462,11.733433509789464,0,1,1,1.1363968393226498,2.13639683932265,0.86360316067735,3.0,1,1.8863968393226498,0,4.0,3.0,1,2,11,0,11,0,0,4,4,2,,,,,,,612.5636802919907,612.5636802919907,613.5779929999262,614.4639974999009,614.6780207499396,614.6780207499396,614.6780207499396,615.5447092920076,615.5447092920076,615.5447092920076,615.5447092920076,616.5446174589451,100001,001,2023-03-27_13h00.07.398,DMS_et_12-36,2022.2.4,None,
106,UNPRED,12,1.1363968393226498,0,images/picture_1.png,images/picture_1.png,0,"[11.733433509789462, -11.733433509789466]",11.733433509789462,-11.733433509789464,images/picture_2.png,1,"[-11.733433509789466, -11.733433509789462]",-11.733433509789464,-11.733433509789462,images/picture_3.png,2,"[11.733433509789464, 11.733433509789462]",11.733433509789464,11.733433509789462,0,1,1,1.1363968393226498,2.13639683932265,0.86360316067735,3.0,1,1.8863968393226498,0,4.0,3.0,1,2,11,0,11,0,0,5,5,7,,,,,,,616.5446174589451,616.5446174589451,617.5446999589913,618.4445304999826,618.6781073749298,618.6781073749298,618.6781073749298,619.54468833399,619.54468833399,619.54468833399,619.54468833399,620.5632824589266,100001,001,2023-03-27_13h00.07.398,DMS_et_12-36,2022.2.4,None,
102,UNPRED,12,1.1363968393226498,2,images/picture_3.png,images/picture_1.png,0,"[11.733433509789462, -11.733433509789466]",11.733433509789462,-11.733433509789464,images/picture_2.png,1,"[11.733433509789464, 11.733433509789462]",11.733433509789464,11.733433509789462,images/picture_3.png,2,"[-11.733433509789466, -11.733433509789462]",-11.733433509789464,-11.733433509789462,0,1,1,1.1363968393226498,2.13639683932265,0.86360316067735,3.0,1,1.8863968393226498,0,4.0,3.0,1,2,11,0,11,0,0,6,6,3,,,,,,,620.5632824589266,620.5632824589266,621.5776844999054,622.4633727920009,622.6781106248964,622.6781106248964,622.6781106248964,623.5446974589722,623.5446974589722,623.5446974589722,623.5446974589722,624.5637341669062,100001,001,2023-03-27_13h00.07.398,DMS_et_12-36,2022.2.4,None,
99,UNPRED,12,1.1363968393226498,2,images/picture_3.png,images/picture_1.png,0,"[-11.733433509789466, -11.733433509789462]",-11.733433509789464,-11.733433509789462,images/picture_2.png,1,"[11.733433509789462, -11.733433509789466]",11.733433509789462,-11.733433509789464,images/picture_3.png,2,"[11.733433509789464, 11.733433509789462]",11.733433509789464,11.733433509789462,0,1,1,1.1363968393226498,2.13639683932265,0.86360316067735,3.0,1,1.8863968393226498,0,4.0,3.0,1,2,11,0,11,0,0,7,7,0,,,,,,,624.5637341669062,624.5637341669062,625.5781554999994,626.4640079590026,626.6780427499907,626.6780427499907,626.6780427499907,627.5447254589526,627.5447254589526,627.5447254589526,627.5447254589526,628.543762291898,100001,001,2023-03-27_13h00.07.398,DMS_et_12-36,2022.2.4,None,
100,UNPRED,12,1.1363968393226498,0,images/picture_1.png,images/picture_1.png,0,"[-11.733433509789462, 11.733433509789464]",-11.733433509789462,11.733433509789464,images/picture_2.png,1,"[11.733433509789464, 11.733433509789462]",11.733433509789464,11.733433509789462,images/picture_3.png,2,"[11.733433509789462, -11.733433509789466]",11.733433509789462,-11.733433509789464,0,1,1,1.1363968393226498,2.13639683932265,0.86360316067735,3.0,1,1.8863968393226498,0,4.0,3.0,1,2,11,0,11,0,0,8,8,1,,,,,,,628.543762291898,628.543762291898,629.5446612499654,630.4447502499679,630.6780400839634,630.6780400839634,630.6780400839634,631.5447460839059,631.5447460839059,631.5447460839059,631.5447460839059,632.705854958971,100001,001,2023-03-27_13h00.07.398,DMS_et_12-36,2022.2.4,None,
,,,,,,,,,,,,,,,,,,,,,,,,,,,,,,,,,,,11,0,11,0,,,,,,,,,632.705854958971,644.8438993749442,,,,,,,,,,,,,100001,001,2023-03-27_13h00.07.398,DMS_et_12-36,2022.2.4,None,
,,,,,,,,,,,,,,,,,,,,,,,,,,,,,,,,,,,,,,,,,,,,,,,644.8438993749442,657.3670570839895,,,,,,,,,,,,,,,,,,,
