paradigm_name,trialNum,cue_onset,cue_dur,delayTime,delay_resp_period,rest_dur,trial_count,blockType,blockNum,delay_time,stimImage_i,stimImage,responseImage1,responseImage1_i,responseImage1_pos,responseImage1_X,responseImage1_Y,responseImage2,responseImage2_i,responseImage2_pos,responseImage2_X,responseImage2_Y,responseImage3,responseImage3_i,responseImage3_pos,responseImage3_X,responseImage3_Y,targImage,targImage_i,targImage_pos,targImage_X,targImage_Y,delay_onset,delay_dur,resp_onset,resp_dur,rest_onset,circle_dur,circle_onset,total_dur,cross_onset,cross_dur,blocks.thisRepN,blocks.thisTrialN,blocks.thisN,blocks.thisIndex,trials.thisRepN,trials.thisTrialN,trials.thisN,trials.thisIndex,key_resp.started,text.started,key_resp.keys,key_resp.rt,text_2.started,text_2.stopped,sample.started,Delay.started,sample.stopped,Delay.stopped,Response_1.started,Response_2.started,Response_3.started,roi.started,polygon.started,Response_1.stopped,Response_2.stopped,Response_3.stopped,roi.stopped,polygon.stopped,roi.numLooks,roi.timesOn,roi.timesOff,participant,session,date,expName,psychopyVersion,frameRate,
,,,,,,,,,,,,,,,,,,,,,,,,,,,,,,,,,,,,,,,,,,,,,,,,,,,18.77822333300719,18.77822333300719,t,4.460582166997483,,,,,,,,,,,,,,,,,,,,100001,001,2023-04-13_16h07.10.079,DMS_etROI_12-36_stimBlast,2022.2.4,59.60002412050076,
stimBlast2,40,0,0.1,0.4661386045538117,0.7,0.1,38,PRED,12,0.4661386045538117,0,images/picture_1.png,images/picture_1.png,0,"[-11.733433509789466, -11.733433509789462]",-11.733433509789464,-11.733433509789462,images/picture_2.png,1,"[11.733433509789464, 11.733433509789462]",11.733433509789464,11.733433509789462,images/picture_3.png,2,"[11.733433509789462, -11.733433509789466]",11.733433509789462,-11.733433509789464,images/picture_1.png,0,"[-11.733433509789466, -11.733433509789462]","[-11.733433509789466, -11.733433509789462]","[-11.733433509789466, -11.733433509789462]",0.1,0.4661386045538117,0.5661386045538117,0.23386139544618825,0.7999999999999999,0.3161386045538117,0,0.8999999999999999,0.7999999999999999,0.1,0,0,0,0,0,0,0,38,,,,,23.249500167003134,35.296356042003026,35.296356042003026,35.296356042003026,35.4000716250157,35.6173227080144,35.85109954199288,35.85109954199288,35.85109954199288,35.85109954199288,36.084321875008754,36.100559207989136,36.100559207989136,36.100559207989136,36.100559207989136,36.18409279201296,0,,,100001,001,2023-04-13_16h07.10.079,DMS_etROI_12-36_stimBlast,2022.2.4,59.60002412050076,
stimBlast2,40,0,0.1,0.4661386045538117,0.7,0.1,7,PRED,12,0.4661386045538117,0,images/picture_1.png,images/picture_1.png,0,"[-11.733433509789466, -11.733433509789462]",-11.733433509789464,-11.733433509789462,images/picture_2.png,1,"[-11.733433509789462, 11.733433509789464]",-11.733433509789462,11.733433509789464,images/picture_3.png,2,"[11.733433509789462, -11.733433509789466]",11.733433509789462,-11.733433509789464,images/picture_1.png,0,"[-11.733433509789466, -11.733433509789462]","[-11.733433509789466, -11.733433509789462]","[-11.733433509789466, -11.733433509789462]",0.1,0.4661386045538117,0.5661386045538117,0.23386139544618825,0.7999999999999999,0.3161386045538117,0,0.8999999999999999,0.7999999999999999,0.1,0,0,0,0,0,1,1,7,,,,,,,36.18409279201296,36.18409279201296,36.28420491699944,36.50015441700816,36.75108524999814,36.75108524999814,36.75108524999814,36.75108524999814,36.984515499992995,37.000921208004,37.000921208004,37.000921208004,37.000921208004,37.083952167013194,0,,,100001,001,2023-04-13_16h07.10.079,DMS_etROI_12-36_stimBlast,2022.2.4,59.60002412050076,
stimBlast2,40,0,0.1,0.4661386045538117,0.7,0.1,2,PRED,12,0.4661386045538117,0,images/picture_1.png,images/picture_1.png,0,"[-11.733433509789466, -11.733433509789462]",-11.733433509789464,-11.733433509789462,images/picture_2.png,1,"[-11.733433509789462, 11.733433509789464]",-11.733433509789462,11.733433509789464,images/picture_3.png,2,"[11.733433509789464, 11.733433509789462]",11.733433509789464,11.733433509789462,images/picture_1.png,0,"[-11.733433509789466, -11.733433509789462]","[-11.733433509789466, -11.733433509789462]","[-11.733433509789466, -11.733433509789462]",0.1,0.4661386045538117,0.5661386045538117,0.23386139544618825,0.7999999999999999,0.3161386045538117,0,0.8999999999999999,0.7999999999999999,0.1,0,0,0,0,0,2,2,2,,,,,,,37.083952167013194,37.083952167013194,37.18411912501324,37.400277042004745,37.65083458300796,37.65083458300796,37.65083458300796,37.65083458300796,37.884199166990584,37.90022450001561,37.90022450001561,37.90022450001561,37.90022450001561,37.98367504199268,0,,,100001,001,2023-04-13_16h07.10.079,DMS_etROI_12-36_stimBlast,2022.2.4,59.60002412050076,
stimBlast2,40,0,0.1,0.4661386045538117,0.7,0.1,6,PRED,12,0.4661386045538117,0,images/picture_1.png,images/picture_1.png,0,"[11.733433509789462, -11.733433509789466]",11.733433509789462,-11.733433509789464,images/picture_2.png,1,"[-11.733433509789462, 11.733433509789464]",-11.733433509789462,11.733433509789464,images/picture_3.png,2,"[11.733433509789464, 11.733433509789462]",11.733433509789464,11.733433509789462,images/picture_1.png,0,"[11.733433509789462, -11.733433509789466]","[11.733433509789462, -11.733433509789466]","[11.733433509789462, -11.733433509789466]",0.1,0.4661386045538117,0.5661386045538117,0.23386139544618825,0.7999999999999999,0.3161386045538117,0,0.8999999999999999,0.7999999999999999,0.1,0,0,0,0,0,3,3,6,,,,,,,37.98367504199268,37.98367504199268,38.084331749996636,38.30037899999297,38.551316917000804,38.551316917000804,38.551316917000804,38.551316917000804,38.78359674999956,38.800289833015995,38.800289833015995,38.800289833015995,38.800289833015995,38.88372470799368,0,,,100001,001,2023-04-13_16h07.10.079,DMS_etROI_12-36_stimBlast,2022.2.4,59.60002412050076,
stimBlast2,40,0,0.1,0.4661386045538117,0.7,0.1,31,PRED,12,0.4661386045538117,0,images/picture_1.png,images/picture_1.png,0,"[11.733433509789462, -11.733433509789466]",11.733433509789462,-11.733433509789464,images/picture_2.png,1,"[-11.733433509789466, -11.733433509789462]",-11.733433509789464,-11.733433509789462,images/picture_3.png,2,"[-11.733433509789462, 11.733433509789464]",-11.733433509789462,11.733433509789464,images/picture_1.png,0,"[11.733433509789462, -11.733433509789466]","[11.733433509789462, -11.733433509789466]","[11.733433509789462, -11.733433509789466]",0.1,0.4661386045538117,0.5661386045538117,0.23386139544618825,0.7999999999999999,0.3161386045538117,0,0.8999999999999999,0.7999999999999999,0.1,0,0,0,0,0,4,4,31,,,,,,,38.88372470799368,38.88372470799368,38.98361783300061,39.20037983299699,39.45032929201261,39.45032929201261,39.45032929201261,39.45032929201261,39.68362645799061,39.68362645799061,39.68362645799061,39.68362645799061,39.68362645799061,39.78309608300333,0,,,100001,001,2023-04-13_16h07.10.079,DMS_etROI_12-36_stimBlast,2022.2.4,59.60002412050076,
stimBlast2,40,0,0.1,0.4661386045538117,0.7,0.1,22,PRED,12,0.4661386045538117,0,images/picture_1.png,images/picture_1.png,0,"[-11.733433509789466, -11.733433509789462]",-11.733433509789464,-11.733433509789462,images/picture_2.png,1,"[11.733433509789464, 11.733433509789462]",11.733433509789464,11.733433509789462,images/picture_3.png,2,"[-11.733433509789462, 11.733433509789464]",-11.733433509789462,11.733433509789464,images/picture_1.png,0,"[-11.733433509789466, -11.733433509789462]","[-11.733433509789466, -11.733433509789462]","[-11.733433509789466, -11.733433509789462]",0.1,0.4661386045538117,0.5661386045538117,0.23386139544618825,0.7999999999999999,0.3161386045538117,0,0.8999999999999999,0.7999999999999999,0.1,0,0,0,0,0,5,5,22,,,,,,,39.78309608300333,39.78309608300333,39.88340504199732,40.100079750001896,40.35025575000327,40.35025575000327,40.35025575000327,40.35025575000327,40.58381345801172,40.58381345801172,40.58381345801172,40.58381345801172,40.58381345801172,40.68307083300897,0,,,100001,001,2023-04-13_16h07.10.079,DMS_etROI_12-36_stimBlast,2022.2.4,59.60002412050076,
stimBlast2,40,0,0.1,0.4661386045538117,0.7,0.1,29,PRED,12,0.4661386045538117,0,images/picture_1.png,images/picture_1.png,0,"[11.733433509789462, -11.733433509789466]",11.733433509789462,-11.733433509789464,images/picture_2.png,1,"[-11.733433509789462, 11.733433509789464]",-11.733433509789462,11.733433509789464,images/picture_3.png,2,"[-11.733433509789466, -11.733433509789462]",-11.733433509789464,-11.733433509789462,images/picture_1.png,0,"[11.733433509789462, -11.733433509789466]","[11.733433509789462, -11.733433509789466]","[11.733433509789462, -11.733433509789466]",0.1,0.4661386045538117,0.5661386045538117,0.23386139544618825,0.7999999999999999,0.3161386045538117,0,0.8999999999999999,0.7999999999999999,0.1,0,0,0,0,0,6,6,29,,,,,,,40.68307083300897,40.68307083300897,40.78383995799231,40.999939333007205,41.2507501670043,41.2507501670043,41.2507501670043,41.2507501670043,41.483518166991416,41.483518166991416,41.483518166991416,41.483518166991416,41.483518166991416,41.58296025000163,0,,,100001,001,2023-04-13_16h07.10.079,DMS_etROI_12-36_stimBlast,2022.2.4,59.60002412050076,
stimBlast2,40,0,0.1,0.4661386045538117,0.7,0.1,32,PRED,12,0.4661386045538117,0,images/picture_1.png,images/picture_1.png,0,"[-11.733433509789462, 11.733433509789464]",-11.733433509789462,11.733433509789464,images/picture_2.png,1,"[-11.733433509789466, -11.733433509789462]",-11.733433509789464,-11.733433509789462,images/picture_3.png,2,"[11.733433509789464, 11.733433509789462]",11.733433509789464,11.733433509789462,images/picture_1.png,0,"[-11.733433509789462, 11.733433509789464]","[-11.733433509789462, 11.733433509789464]","[-11.733433509789462, 11.733433509789464]",0.1,0.4661386045538117,0.5661386045538117,0.23386139544618825,0.7999999999999999,0.3161386045538117,0,0.8999999999999999,0.7999999999999999,0.1,0,0,0,0,0,7,7,32,,,,,,,41.58296025000163,41.58296025000163,41.684362583007896,41.900253583007725,42.150894541991875,42.150894541991875,42.150894541991875,42.150894541991875,42.383975458011264,42.400255417014705,42.400255417014705,42.400255417014705,42.400255417014705,42.48298583299038,0,,,100001,001,2023-04-13_16h07.10.079,DMS_etROI_12-36_stimBlast,2022.2.4,59.60002412050076,
stimBlast2,40,0,0.1,0.4661386045538117,0.7,0.1,25,PRED,12,0.4661386045538117,0,images/picture_1.png,images/picture_1.png,0,"[11.733433509789462, -11.733433509789466]",11.733433509789462,-11.733433509789464,images/picture_2.png,1,"[-11.733433509789462, 11.733433509789464]",-11.733433509789462,11.733433509789464,images/picture_3.png,2,"[-11.733433509789466, -11.733433509789462]",-11.733433509789464,-11.733433509789462,images/picture_1.png,0,"[11.733433509789462, -11.733433509789466]","[11.733433509789462, -11.733433509789466]","[11.733433509789462, -11.733433509789466]",0.1,0.4661386045538117,0.5661386045538117,0.23386139544618825,0.7999999999999999,0.3161386045538117,0,0.8999999999999999,0.7999999999999999,0.1,0,0,0,0,0,8,8,25,,,,,,,42.48298583299038,42.48298583299038,42.58355612499872,42.800191042013466,43.04979883300257,43.04979883300257,43.04979883300257,43.04979883300257,43.28332070799661,43.28332070799661,43.28332070799661,43.28332070799661,43.28332070799661,43.383120332990075,0,,,100001,001,2023-04-13_16h07.10.079,DMS_etROI_12-36_stimBlast,2022.2.4,59.60002412050076,
stimBlast2,40,0,0.1,0.4661386045538117,0.7,0.1,35,PRED,12,0.4661386045538117,0,images/picture_1.png,images/picture_1.png,0,"[-11.733433509789466, -11.733433509789462]",-11.733433509789464,-11.733433509789462,images/picture_2.png,1,"[11.733433509789464, 11.733433509789462]",11.733433509789464,11.733433509789462,images/picture_3.png,2,"[-11.733433509789462, 11.733433509789464]",-11.733433509789462,11.733433509789464,images/picture_1.png,0,"[-11.733433509789466, -11.733433509789462]","[-11.733433509789466, -11.733433509789462]","[-11.733433509789466, -11.733433509789462]",0.1,0.4661386045538117,0.5661386045538117,0.23386139544618825,0.7999999999999999,0.3161386045538117,0,0.8999999999999999,0.7999999999999999,0.1,0,0,0,0,0,9,9,35,,,,,,,43.383120332990075,43.383120332990075,43.48318800001289,43.699917541991454,43.934008250012994,43.934008250012994,43.934008250012994,43.934008250012994,44.183612458000425,44.183612458000425,44.183612458000425,44.183612458000425,44.183612458000425,44.28286529201432,0,,,100001,001,2023-04-13_16h07.10.079,DMS_etROI_12-36_stimBlast,2022.2.4,59.60002412050076,
stimBlast2,40,0,0.1,0.4661386045538117,0.7,0.1,14,PRED,12,0.4661386045538117,0,images/picture_1.png,images/picture_1.png,0,"[-11.733433509789466, -11.733433509789462]",-11.733433509789464,-11.733433509789462,images/picture_2.png,1,"[-11.733433509789462, 11.733433509789464]",-11.733433509789462,11.733433509789464,images/picture_3.png,2,"[11.733433509789462, -11.733433509789466]",11.733433509789462,-11.733433509789464,images/picture_1.png,0,"[-11.733433509789466, -11.733433509789462]","[-11.733433509789466, -11.733433509789462]","[-11.733433509789466, -11.733433509789462]",0.1,0.4661386045538117,0.5661386045538117,0.23386139544618825,0.7999999999999999,0.3161386045538117,0,0.8999999999999999,0.7999999999999999,0.1,0,0,0,0,0,10,10,14,,,,,,,44.28286529201432,44.28286529201432,44.383818458009046,44.6012289999926,44.850725541997235,44.850725541997235,44.850725541997235,44.850725541997235,45.083675792004215,45.083675792004215,45.083675792004215,45.083675792004215,45.083675792004215,45.18308016701485,0,,,100001,001,2023-04-13_16h07.10.079,DMS_etROI_12-36_stimBlast,2022.2.4,59.60002412050076,
stimBlast2,40,0,0.1,0.4661386045538117,0.7,0.1,3,PRED,12,0.4661386045538117,0,images/picture_1.png,images/picture_1.png,0,"[11.733433509789462, -11.733433509789466]",11.733433509789462,-11.733433509789464,images/picture_2.png,1,"[-11.733433509789462, 11.733433509789464]",-11.733433509789462,11.733433509789464,images/picture_3.png,2,"[11.733433509789464, 11.733433509789462]",11.733433509789464,11.733433509789462,images/picture_1.png,0,"[11.733433509789462, -11.733433509789466]","[11.733433509789462, -11.733433509789466]","[11.733433509789462, -11.733433509789466]",0.1,0.4661386045538117,0.5661386045538117,0.23386139544618825,0.7999999999999999,0.3161386045538117,0,0.8999999999999999,0.7999999999999999,0.1,0,0,0,0,0,11,11,3,,,,,,,45.18308016701485,45.18308016701485,45.28405874999589,45.50051287500537,45.750283208006294,45.750283208006294,45.750283208006294,45.750283208006294,45.98361737499363,45.98361737499363,45.98361737499363,45.98361737499363,45.98361737499363,46.08329637499992,0,,,100001,001,2023-04-13_16h07.10.079,DMS_etROI_12-36_stimBlast,2022.2.4,59.60002412050076,
stimBlast2,40,0,0.1,0.4661386045538117,0.7,0.1,21,PRED,12,0.4661386045538117,0,images/picture_1.png,images/picture_1.png,0,"[-11.733433509789462, 11.733433509789464]",-11.733433509789462,11.733433509789464,images/picture_2.png,1,"[11.733433509789462, -11.733433509789466]",11.733433509789462,-11.733433509789464,images/picture_3.png,2,"[-11.733433509789466, -11.733433509789462]",-11.733433509789464,-11.733433509789462,images/picture_1.png,0,"[-11.733433509789462, 11.733433509789464]","[-11.733433509789462, 11.733433509789464]","[-11.733433509789462, 11.733433509789464]",0.1,0.4661386045538117,0.5661386045538117,0.23386139544618825,0.7999999999999999,0.3161386045538117,0,0.8999999999999999,0.7999999999999999,0.1,0,0,0,0,0,12,12,21,,,,,,,46.08329637499992,46.08329637499992,46.183540625002934,46.40030170799582,46.65082637500018,46.65082637500018,46.65082637500018,46.65082637500018,46.883983708015876,46.90132287499728,46.90132287499728,46.90132287499728,46.90132287499728,46.98292195799877,0,,,100001,001,2023-04-13_16h07.10.079,DMS_etROI_12-36_stimBlast,2022.2.4,59.60002412050076,
stimBlast2,40,0,0.1,0.4661386045538117,0.7,0.1,26,PRED,12,0.4661386045538117,0,images/picture_1.png,images/picture_1.png,0,"[11.733433509789464, 11.733433509789462]",11.733433509789464,11.733433509789462,images/picture_2.png,1,"[-11.733433509789462, 11.733433509789464]",-11.733433509789462,11.733433509789464,images/picture_3.png,2,"[11.733433509789462, -11.733433509789466]",11.733433509789462,-11.733433509789464,images/picture_1.png,0,"[11.733433509789464, 11.733433509789462]","[11.733433509789464, 11.733433509789462]","[11.733433509789464, 11.733433509789462]",0.1,0.4661386045538117,0.5661386045538117,0.23386139544618825,0.7999999999999999,0.3161386045538117,0,0.8999999999999999,0.7999999999999999,0.1,0,0,0,0,0,13,13,26,,,,,,,46.98292195799877,46.98292195799877,47.08363341700169,47.300958333013114,47.55119179200847,47.55119179200847,47.55119179200847,47.55119179200847,47.78361012501409,47.80024050001521,47.80024050001521,47.80024050001521,47.80024050001521,47.88326262499322,0,,,100001,001,2023-04-13_16h07.10.079,DMS_etROI_12-36_stimBlast,2022.2.4,59.60002412050076,
stimBlast2,40,0,0.1,0.4661386045538117,0.7,0.1,18,PRED,12,0.4661386045538117,0,images/picture_1.png,images/picture_1.png,0,"[-11.733433509789462, 11.733433509789464]",-11.733433509789462,11.733433509789464,images/picture_2.png,1,"[-11.733433509789466, -11.733433509789462]",-11.733433509789464,-11.733433509789462,images/picture_3.png,2,"[11.733433509789464, 11.733433509789462]",11.733433509789464,11.733433509789462,images/picture_1.png,0,"[-11.733433509789462, 11.733433509789464]","[-11.733433509789462, 11.733433509789464]","[-11.733433509789462, 11.733433509789464]",0.1,0.4661386045538117,0.5661386045538117,0.23386139544618825,0.7999999999999999,0.3161386045538117,0,0.8999999999999999,0.7999999999999999,0.1,0,0,0,0,0,14,14,18,,,,,,,47.88326262499322,47.88326262499322,47.983522541995626,48.200203250016784,48.45070604200009,48.45070604200009,48.45070604200009,48.45070604200009,48.683806082990486,48.683806082990486,48.683806082990486,48.683806082990486,48.683806082990486,48.783001583011355,0,,,100001,001,2023-04-13_16h07.10.079,DMS_etROI_12-36_stimBlast,2022.2.4,59.60002412050076,
stimBlast2,40,0,0.1,0.4661386045538117,0.7,0.1,37,PRED,12,0.4661386045538117,0,images/picture_1.png,images/picture_1.png,0,"[11.733433509789462, -11.733433509789466]",11.733433509789462,-11.733433509789464,images/picture_2.png,1,"[11.733433509789464, 11.733433509789462]",11.733433509789464,11.733433509789462,images/picture_3.png,2,"[-11.733433509789462, 11.733433509789464]",-11.733433509789462,11.733433509789464,images/picture_1.png,0,"[11.733433509789462, -11.733433509789466]","[11.733433509789462, -11.733433509789466]","[11.733433509789462, -11.733433509789466]",0.1,0.4661386045538117,0.5661386045538117,0.23386139544618825,0.7999999999999999,0.3161386045538117,0,0.8999999999999999,0.7999999999999999,0.1,0,0,0,0,0,15,15,37,,,,,,,48.783001583011355,48.783001583011355,48.8844377080095,49.10051791701699,49.35027091699885,49.35027091699885,49.35027091699885,49.35027091699885,49.5844030000153,49.5844030000153,49.5844030000153,49.5844030000153,49.5844030000153,49.68320779199712,0,,,100001,001,2023-04-13_16h07.10.079,DMS_etROI_12-36_stimBlast,2022.2.4,59.60002412050076,
stimBlast2,40,0,0.1,0.4661386045538117,0.7,0.1,0,PRED,12,0.4661386045538117,0,images/picture_1.png,images/picture_1.png,0,"[-11.733433509789466, -11.733433509789462]",-11.733433509789464,-11.733433509789462,images/picture_2.png,1,"[11.733433509789464, 11.733433509789462]",11.733433509789464,11.733433509789462,images/picture_3.png,2,"[11.733433509789462, -11.733433509789466]",11.733433509789462,-11.733433509789464,images/picture_1.png,0,"[-11.733433509789466, -11.733433509789462]","[-11.733433509789466, -11.733433509789462]","[-11.733433509789466, -11.733433509789462]",0.1,0.4661386045538117,0.5661386045538117,0.23386139544618825,0.7999999999999999,0.3161386045538117,0,0.8999999999999999,0.7999999999999999,0.1,0,0,0,0,0,16,16,0,,,,,,,49.68320779199712,49.68320779199712,49.78363512500073,50.00109929201426,50.25072833299055,50.25072833299055,50.25072833299055,50.25072833299055,50.483943291998,50.483943291998,50.483943291998,50.483943291998,50.483943291998,50.583084125013556,0,,,100001,001,2023-04-13_16h07.10.079,DMS_etROI_12-36_stimBlast,2022.2.4,59.60002412050076,
stimBlast2,40,0,0.1,0.4661386045538117,0.7,0.1,17,PRED,12,0.4661386045538117,0,images/picture_1.png,images/picture_1.png,0,"[11.733433509789462, -11.733433509789466]",11.733433509789462,-11.733433509789464,images/picture_2.png,1,"[-11.733433509789462, 11.733433509789464]",-11.733433509789462,11.733433509789464,images/picture_3.png,2,"[-11.733433509789466, -11.733433509789462]",-11.733433509789464,-11.733433509789462,images/picture_1.png,0,"[11.733433509789462, -11.733433509789466]","[11.733433509789462, -11.733433509789466]","[11.733433509789462, -11.733433509789466]",0.1,0.4661386045538117,0.5661386045538117,0.23386139544618825,0.7999999999999999,0.3161386045538117,0,0.8999999999999999,0.7999999999999999,0.1,0,0,0,0,0,17,17,17,,,,,,,50.583084125013556,50.583084125013556,50.68383950000862,50.900449375010794,51.151093166990904,51.151093166990904,51.151093166990904,51.151093166990904,51.38400808299775,51.400223542004824,51.400223542004824,51.400223542004824,51.400223542004824,51.48289387501427,0,,,100001,001,2023-04-13_16h07.10.079,DMS_etROI_12-36_stimBlast,2022.2.4,59.60002412050076,
stimBlast2,40,0,0.1,0.4661386045538117,0.7,0.1,19,PRED,12,0.4661386045538117,0,images/picture_1.png,images/picture_1.png,0,"[-11.733433509789466, -11.733433509789462]",-11.733433509789464,-11.733433509789462,images/picture_2.png,1,"[11.733433509789462, -11.733433509789466]",11.733433509789462,-11.733433509789464,images/picture_3.png,2,"[-11.733433509789462, 11.733433509789464]",-11.733433509789462,11.733433509789464,images/picture_1.png,0,"[-11.733433509789466, -11.733433509789462]","[-11.733433509789466, -11.733433509789462]","[-11.733433509789466, -11.733433509789462]",0.1,0.4661386045538117,0.5661386045538117,0.23386139544618825,0.7999999999999999,0.3161386045538117,0,0.8999999999999999,0.7999999999999999,0.1,0,0,0,0,0,18,18,19,,,,,,,51.48289387501427,51.48289387501427,51.58360741700744,51.80023100000108,52.05087187499157,52.05087187499157,52.05087187499157,52.05087187499157,52.283388000010746,52.283388000010746,52.283388000010746,52.283388000010746,52.283388000010746,52.383259291993454,0,,,100001,001,2023-04-13_16h07.10.079,DMS_etROI_12-36_stimBlast,2022.2.4,59.60002412050076,
stimBlast2,40,0,0.1,0.4661386045538117,0.7,0.1,4,PRED,12,0.4661386045538117,0,images/picture_1.png,images/picture_1.png,0,"[11.733433509789464, 11.733433509789462]",11.733433509789464,11.733433509789462,images/picture_2.png,1,"[-11.733433509789466, -11.733433509789462]",-11.733433509789464,-11.733433509789462,images/picture_3.png,2,"[11.733433509789462, -11.733433509789466]",11.733433509789462,-11.733433509789464,images/picture_1.png,0,"[11.733433509789464, 11.733433509789462]","[11.733433509789464, 11.733433509789462]","[11.733433509789464, 11.733433509789462]",0.1,0.4661386045538117,0.5661386045538117,0.23386139544618825,0.7999999999999999,0.3161386045538117,0,0.8999999999999999,0.7999999999999999,0.1,0,0,0,0,0,19,19,4,,,,,,,52.383259291993454,52.383259291993454,52.483636207995005,52.70051824999973,52.95059570801095,52.95059570801095,52.95059570801095,52.95059570801095,53.18370158300968,53.18370158300968,53.18370158300968,53.18370158300968,53.18370158300968,53.28382291700109,0,,,100001,001,2023-04-13_16h07.10.079,DMS_etROI_12-36_stimBlast,2022.2.4,59.60002412050076,
stimBlast2,40,0,0.1,0.4661386045538117,0.7,0.1,12,PRED,12,0.4661386045538117,0,images/picture_1.png,images/picture_1.png,0,"[-11.733433509789466, -11.733433509789462]",-11.733433509789464,-11.733433509789462,images/picture_2.png,1,"[-11.733433509789462, 11.733433509789464]",-11.733433509789462,11.733433509789464,images/picture_3.png,2,"[11.733433509789464, 11.733433509789462]",11.733433509789464,11.733433509789462,images/picture_1.png,0,"[-11.733433509789466, -11.733433509789462]","[-11.733433509789466, -11.733433509789462]","[-11.733433509789466, -11.733433509789462]",0.1,0.4661386045538117,0.5661386045538117,0.23386139544618825,0.7999999999999999,0.3161386045538117,0,0.8999999999999999,0.7999999999999999,0.1,0,0,0,0,0,20,20,12,,,,,,,53.28382291700109,53.28382291700109,53.383422292012256,53.600342416990316,53.850061000004644,53.850061000004644,53.850061000004644,53.850061000004644,54.08329545799643,54.08329545799643,54.08329545799643,54.08329545799643,54.08329545799643,54.183446042006835,0,,,100001,001,2023-04-13_16h07.10.079,DMS_etROI_12-36_stimBlast,2022.2.4,59.60002412050076,
stimBlast2,40,0,0.1,0.4661386045538117,0.7,0.1,24,PRED,12,0.4661386045538117,0,images/picture_1.png,images/picture_1.png,0,"[-11.733433509789462, 11.733433509789464]",-11.733433509789462,11.733433509789464,images/picture_2.png,1,"[11.733433509789462, -11.733433509789466]",11.733433509789462,-11.733433509789464,images/picture_3.png,2,"[-11.733433509789466, -11.733433509789462]",-11.733433509789464,-11.733433509789462,images/picture_1.png,0,"[-11.733433509789462, 11.733433509789464]","[-11.733433509789462, 11.733433509789464]","[-11.733433509789462, 11.733433509789464]",0.1,0.4661386045538117,0.5661386045538117,0.23386139544618825,0.7999999999999999,0.3161386045538117,0,0.8999999999999999,0.7999999999999999,0.1,0,0,0,0,0,21,21,24,,,,,,,54.183446042006835,54.183446042006835,54.283977832994424,54.500420458003646,54.7505373750173,54.7505373750173,54.7505373750173,54.7505373750173,54.98399429200799,54.98399429200799,54.98399429200799,54.98399429200799,54.98399429200799,55.08341720799217,0,,,100001,001,2023-04-13_16h07.10.079,DMS_etROI_12-36_stimBlast,2022.2.4,59.60002412050076,
stimBlast2,40,0,0.1,0.4661386045538117,0.7,0.1,27,PRED,12,0.4661386045538117,0,images/picture_1.png,images/picture_1.png,0,"[11.733433509789462, -11.733433509789466]",11.733433509789462,-11.733433509789464,images/picture_2.png,1,"[-11.733433509789462, 11.733433509789464]",-11.733433509789462,11.733433509789464,images/picture_3.png,2,"[11.733433509789464, 11.733433509789462]",11.733433509789464,11.733433509789462,images/picture_1.png,0,"[11.733433509789462, -11.733433509789466]","[11.733433509789462, -11.733433509789466]","[11.733433509789462, -11.733433509789466]",0.1,0.4661386045538117,0.5661386045538117,0.23386139544618825,0.7999999999999999,0.3161386045538117,0,0.8999999999999999,0.7999999999999999,0.1,0,0,0,0,0,22,22,27,,,,,,,55.08341720799217,55.08341720799217,55.18431962499744,55.400892750010826,55.65058837499237,55.65058837499237,55.65058837499237,55.65058837499237,55.88415641701431,55.88415641701431,55.88415641701431,55.88415641701431,55.88415641701431,55.98316783300834,0,,,100001,001,2023-04-13_16h07.10.079,DMS_etROI_12-36_stimBlast,2022.2.4,59.60002412050076,
stimBlast2,40,0,0.1,0.4661386045538117,0.7,0.1,36,PRED,12,0.4661386045538117,0,images/picture_1.png,images/picture_1.png,0,"[-11.733433509789462, 11.733433509789464]",-11.733433509789462,11.733433509789464,images/picture_2.png,1,"[11.733433509789464, 11.733433509789462]",11.733433509789464,11.733433509789462,images/picture_3.png,2,"[-11.733433509789466, -11.733433509789462]",-11.733433509789464,-11.733433509789462,images/picture_1.png,0,"[-11.733433509789462, 11.733433509789464]","[-11.733433509789462, 11.733433509789464]","[-11.733433509789462, 11.733433509789464]",0.1,0.4661386045538117,0.5661386045538117,0.23386139544618825,0.7999999999999999,0.3161386045538117,0,0.8999999999999999,0.7999999999999999,0.1,0,0,0,0,0,23,23,36,,,,,,,55.98316783300834,55.98316783300834,56.08433687500656,56.30066608299967,56.550830624997616,56.550830624997616,56.550830624997616,56.550830624997616,56.783750041999156,56.783750041999156,56.783750041999156,56.783750041999156,56.783750041999156,56.883268000005046,0,,,100001,001,2023-04-13_16h07.10.079,DMS_etROI_12-36_stimBlast,2022.2.4,59.60002412050076,
stimBlast2,40,0,0.1,0.4661386045538117,0.7,0.1,20,PRED,12,0.4661386045538117,0,images/picture_1.png,images/picture_1.png,0,"[11.733433509789464, 11.733433509789462]",11.733433509789464,11.733433509789462,images/picture_2.png,1,"[11.733433509789462, -11.733433509789466]",11.733433509789462,-11.733433509789464,images/picture_3.png,2,"[-11.733433509789462, 11.733433509789464]",-11.733433509789462,11.733433509789464,images/picture_1.png,0,"[11.733433509789464, 11.733433509789462]","[11.733433509789464, 11.733433509789462]","[11.733433509789464, 11.733433509789462]",0.1,0.4661386045538117,0.5661386045538117,0.23386139544618825,0.7999999999999999,0.3161386045538117,0,0.8999999999999999,0.7999999999999999,0.1,0,0,0,0,0,24,24,20,,,,,,,56.883268000005046,56.883268000005046,56.98350624999148,57.20048866700381,57.45090200001141,57.45090200001141,57.45090200001141,57.45090200001141,57.666770042007556,57.70029279199662,57.70029279199662,57.70029279199662,57.70029279199662,57.76652083301451,0,,,100001,001,2023-04-13_16h07.10.079,DMS_etROI_12-36_stimBlast,2022.2.4,59.60002412050076,
stimBlast2,40,0,0.1,0.4661386045538117,0.7,0.1,28,PRED,12,0.4661386045538117,0,images/picture_1.png,images/picture_1.png,0,"[-11.733433509789462, 11.733433509789464]",-11.733433509789462,11.733433509789464,images/picture_2.png,1,"[11.733433509789462, -11.733433509789466]",11.733433509789462,-11.733433509789464,images/picture_3.png,2,"[11.733433509789464, 11.733433509789462]",11.733433509789464,11.733433509789462,images/picture_1.png,0,"[-11.733433509789462, 11.733433509789464]","[-11.733433509789462, 11.733433509789464]","[-11.733433509789462, 11.733433509789464]",0.1,0.4661386045538117,0.5661386045538117,0.23386139544618825,0.7999999999999999,0.3161386045538117,0,0.8999999999999999,0.7999999999999999,0.1,0,0,0,0,0,25,25,28,,,,,,,57.76652083301451,57.76652083301451,57.86722341700806,58.08394000001135,58.334016792010516,58.334016792010516,58.334016792010516,58.334016792010516,58.567346666997764,58.567346666997764,58.567346666997764,58.567346666997764,58.567346666997764,58.66664591699373,0,,,100001,001,2023-04-13_16h07.10.079,DMS_etROI_12-36_stimBlast,2022.2.4,59.60002412050076,
stimBlast2,40,0,0.1,0.4661386045538117,0.7,0.1,1,PRED,12,0.4661386045538117,0,images/picture_1.png,images/picture_1.png,0,"[-11.733433509789462, 11.733433509789464]",-11.733433509789462,11.733433509789464,images/picture_2.png,1,"[11.733433509789464, 11.733433509789462]",11.733433509789464,11.733433509789462,images/picture_3.png,2,"[-11.733433509789466, -11.733433509789462]",-11.733433509789464,-11.733433509789462,images/picture_1.png,0,"[-11.733433509789462, 11.733433509789464]","[-11.733433509789462, 11.733433509789464]","[-11.733433509789462, 11.733433509789464]",0.1,0.4661386045538117,0.5661386045538117,0.23386139544618825,0.7999999999999999,0.3161386045538117,0,0.8999999999999999,0.7999999999999999,0.1,0,0,0,0,0,26,26,1,,,,,,,58.66664591699373,58.66664591699373,58.76759208299336,58.98405633299262,59.234304999990854,59.234304999990854,59.234304999990854,59.234304999990854,59.46787704201415,59.46787704201415,59.46787704201415,59.46787704201415,59.46787704201415,59.566663292003796,0,,,100001,001,2023-04-13_16h07.10.079,DMS_etROI_12-36_stimBlast,2022.2.4,59.60002412050076,
stimBlast2,40,0,0.1,0.4661386045538117,0.7,0.1,11,PRED,12,0.4661386045538117,0,images/picture_1.png,images/picture_1.png,0,"[11.733433509789462, -11.733433509789466]",11.733433509789462,-11.733433509789464,images/picture_2.png,1,"[11.733433509789464, 11.733433509789462]",11.733433509789464,11.733433509789462,images/picture_3.png,2,"[-11.733433509789462, 11.733433509789464]",-11.733433509789462,11.733433509789464,images/picture_1.png,0,"[11.733433509789462, -11.733433509789466]","[11.733433509789462, -11.733433509789466]","[11.733433509789462, -11.733433509789466]",0.1,0.4661386045538117,0.5661386045538117,0.23386139544618825,0.7999999999999999,0.3161386045538117,0,0.8999999999999999,0.7999999999999999,0.1,0,0,0,0,0,27,27,11,,,,,,,59.566663292003796,59.566663292003796,59.66750191699248,59.884153042017715,60.13375750000705,60.13375750000705,60.13375750000705,60.13375750000705,60.367280375008704,60.367280375008704,60.367280375008704,60.367280375008704,60.367280375008704,60.466672500013374,0,,,100001,001,2023-04-13_16h07.10.079,DMS_etROI_12-36_stimBlast,2022.2.4,59.60002412050076,
stimBlast2,40,0,0.1,0.4661386045538117,0.7,0.1,30,PRED,12,0.4661386045538117,0,images/picture_1.png,images/picture_1.png,0,"[-11.733433509789466, -11.733433509789462]",-11.733433509789464,-11.733433509789462,images/picture_2.png,1,"[-11.733433509789462, 11.733433509789464]",-11.733433509789462,11.733433509789464,images/picture_3.png,2,"[11.733433509789462, -11.733433509789466]",11.733433509789462,-11.733433509789464,images/picture_1.png,0,"[-11.733433509789466, -11.733433509789462]","[-11.733433509789466, -11.733433509789462]","[-11.733433509789466, -11.733433509789462]",0.1,0.4661386045538117,0.5661386045538117,0.23386139544618825,0.7999999999999999,0.3161386045538117,0,0.8999999999999999,0.7999999999999999,0.1,0,0,0,0,0,28,28,30,,,,,,,60.466672500013374,60.466672500013374,60.567890958016505,60.783947749994695,61.034685249993345,61.034685249993345,61.034685249993345,61.034685249993345,61.26762258299277,61.284581542015076,61.284581542015076,61.284581542015076,61.284581542015076,61.36654491699301,0,,,100001,001,2023-04-13_16h07.10.079,DMS_etROI_12-36_stimBlast,2022.2.4,59.60002412050076,
stimBlast2,40,0,0.1,0.4661386045538117,0.7,0.1,15,PRED,12,0.4661386045538117,0,images/picture_1.png,images/picture_1.png,0,"[-11.733433509789466, -11.733433509789462]",-11.733433509789464,-11.733433509789462,images/picture_2.png,1,"[11.733433509789464, 11.733433509789462]",11.733433509789464,11.733433509789462,images/picture_3.png,2,"[-11.733433509789462, 11.733433509789464]",-11.733433509789462,11.733433509789464,images/picture_1.png,0,"[-11.733433509789466, -11.733433509789462]","[-11.733433509789466, -11.733433509789462]","[-11.733433509789466, -11.733433509789462]",0.1,0.4661386045538117,0.5661386045538117,0.23386139544618825,0.7999999999999999,0.3161386045538117,0,0.8999999999999999,0.7999999999999999,0.1,0,0,0,0,0,29,29,15,,,,,,,61.36654491699301,61.36654491699301,61.46733316700556,61.6839831249963,61.93431970800157,61.93431970800157,61.93431970800157,61.93431970800157,62.16747304200544,62.16747304200544,62.16747304200544,62.16747304200544,62.16747304200544,62.266662957990775,0,,,100001,001,2023-04-13_16h07.10.079,DMS_etROI_12-36_stimBlast,2022.2.4,59.60002412050076,
stimBlast2,40,0,0.1,0.4661386045538117,0.7,0.1,23,PRED,12,0.4661386045538117,0,images/picture_1.png,images/picture_1.png,0,"[11.733433509789464, 11.733433509789462]",11.733433509789464,11.733433509789462,images/picture_2.png,1,"[-11.733433509789462, 11.733433509789464]",-11.733433509789462,11.733433509789464,images/picture_3.png,2,"[-11.733433509789466, -11.733433509789462]",-11.733433509789464,-11.733433509789462,images/picture_1.png,0,"[11.733433509789464, 11.733433509789462]","[11.733433509789464, 11.733433509789462]","[11.733433509789464, 11.733433509789462]",0.1,0.4661386045538117,0.5661386045538117,0.23386139544618825,0.7999999999999999,0.3161386045538117,0,0.8999999999999999,0.7999999999999999,0.1,0,0,0,0,0,30,30,23,,,,,,,62.266662957990775,62.266662957990775,62.36742745799711,62.584310292004375,62.83417383299093,62.83417383299093,62.83417383299093,62.83417383299093,63.067778333002934,63.067778333002934,63.067778333002934,63.067778333002934,63.067778333002934,63.1667251670151,0,,,100001,001,2023-04-13_16h07.10.079,DMS_etROI_12-36_stimBlast,2022.2.4,59.60002412050076,
stimBlast2,40,0,0.1,0.4661386045538117,0.7,0.1,34,PRED,12,0.4661386045538117,0,images/picture_1.png,images/picture_1.png,0,"[-11.733433509789462, 11.733433509789464]",-11.733433509789462,11.733433509789464,images/picture_2.png,1,"[11.733433509789464, 11.733433509789462]",11.733433509789464,11.733433509789462,images/picture_3.png,2,"[-11.733433509789466, -11.733433509789462]",-11.733433509789464,-11.733433509789462,images/picture_1.png,0,"[-11.733433509789462, 11.733433509789464]","[-11.733433509789462, 11.733433509789464]","[-11.733433509789462, 11.733433509789464]",0.1,0.4661386045538117,0.5661386045538117,0.23386139544618825,0.7999999999999999,0.3161386045538117,0,0.8999999999999999,0.7999999999999999,0.1,0,0,0,0,0,31,31,34,,,,,,,63.1667251670151,63.1667251670151,63.26775483301026,63.484259042015765,63.73318974999711,63.73318974999711,63.73318974999711,63.73318974999711,63.966879624989815,63.966879624989815,63.966879624989815,63.966879624989815,63.966879624989815,64.06651016700198,0,,,100001,001,2023-04-13_16h07.10.079,DMS_etROI_12-36_stimBlast,2022.2.4,59.60002412050076,
stimBlast2,40,0,0.1,0.4661386045538117,0.7,0.1,16,PRED,12,0.4661386045538117,0,images/picture_1.png,images/picture_1.png,0,"[11.733433509789464, 11.733433509789462]",11.733433509789464,11.733433509789462,images/picture_2.png,1,"[11.733433509789462, -11.733433509789466]",11.733433509789462,-11.733433509789464,images/picture_3.png,2,"[-11.733433509789462, 11.733433509789464]",-11.733433509789462,11.733433509789464,images/picture_1.png,0,"[11.733433509789464, 11.733433509789462]","[11.733433509789464, 11.733433509789462]","[11.733433509789464, 11.733433509789462]",0.1,0.4661386045538117,0.5661386045538117,0.23386139544618825,0.7999999999999999,0.3161386045538117,0,0.8999999999999999,0.7999999999999999,0.1,0,0,0,0,0,32,32,16,,,,,,,64.06651016700198,64.06651016700198,64.16683079200448,64.38335829199059,64.61703716701595,64.61703716701595,64.61703716701595,64.61703716701595,64.85071437500301,64.85071437500301,64.85071437500301,64.85071437500301,64.85071437500301,64.95030033300282,0,,,100001,001,2023-04-13_16h07.10.079,DMS_etROI_12-36_stimBlast,2022.2.4,59.60002412050076,
stimBlast2,40,0,0.1,0.4661386045538117,0.7,0.1,8,PRED,12,0.4661386045538117,0,images/picture_1.png,images/picture_1.png,0,"[-11.733433509789466, -11.733433509789462]",-11.733433509789464,-11.733433509789462,images/picture_2.png,1,"[11.733433509789464, 11.733433509789462]",11.733433509789464,11.733433509789462,images/picture_3.png,2,"[11.733433509789462, -11.733433509789466]",11.733433509789462,-11.733433509789464,images/picture_1.png,0,"[-11.733433509789466, -11.733433509789462]","[-11.733433509789466, -11.733433509789462]","[-11.733433509789466, -11.733433509789462]",0.1,0.4661386045538117,0.5661386045538117,0.23386139544618825,0.7999999999999999,0.3161386045538117,0,0.8999999999999999,0.7999999999999999,0.1,0,0,0,0,0,33,33,8,,,,,,,64.95030033300282,64.95030033300282,65.05065170800663,65.26765970801353,65.5178707500163,65.5178707500163,65.5178707500163,65.5178707500163,65.75083791700308,65.75083791700308,65.75083791700308,65.75083791700308,65.75083791700308,65.85021937501733,0,,,100001,001,2023-04-13_16h07.10.079,DMS_etROI_12-36_stimBlast,2022.2.4,59.60002412050076,
stimBlast2,40,0,0.1,0.4661386045538117,0.7,0.1,13,PRED,12,0.4661386045538117,0,images/picture_1.png,images/picture_1.png,0,"[-11.733433509789462, 11.733433509789464]",-11.733433509789462,11.733433509789464,images/picture_2.png,1,"[11.733433509789462, -11.733433509789466]",11.733433509789462,-11.733433509789464,images/picture_3.png,2,"[11.733433509789464, 11.733433509789462]",11.733433509789464,11.733433509789462,images/picture_1.png,0,"[-11.733433509789462, 11.733433509789464]","[-11.733433509789462, 11.733433509789464]","[-11.733433509789462, 11.733433509789464]",0.1,0.4661386045538117,0.5661386045538117,0.23386139544618825,0.7999999999999999,0.3161386045538117,0,0.8999999999999999,0.7999999999999999,0.1,0,0,0,0,0,34,34,13,,,,,,,65.85021937501733,65.85021937501733,65.95114220801042,66.16737450001528,66.41780091699911,66.41780091699911,66.41780091699911,66.41780091699911,66.65120987500995,66.65120987500995,66.65120987500995,66.65120987500995,66.65120987500995,66.75011754198931,0,,,100001,001,2023-04-13_16h07.10.079,DMS_etROI_12-36_stimBlast,2022.2.4,59.60002412050076,
stimBlast2,40,0,0.1,0.4661386045538117,0.7,0.1,10,PRED,12,0.4661386045538117,0,images/picture_1.png,images/picture_1.png,0,"[-11.733433509789466, -11.733433509789462]",-11.733433509789464,-11.733433509789462,images/picture_2.png,1,"[11.733433509789464, 11.733433509789462]",11.733433509789464,11.733433509789462,images/picture_3.png,2,"[11.733433509789462, -11.733433509789466]",11.733433509789462,-11.733433509789464,images/picture_1.png,0,"[-11.733433509789466, -11.733433509789462]","[-11.733433509789466, -11.733433509789462]","[-11.733433509789466, -11.733433509789462]",0.1,0.4661386045538117,0.5661386045538117,0.23386139544618825,0.7999999999999999,0.3161386045538117,0,0.8999999999999999,0.7999999999999999,0.1,0,0,0,0,0,35,35,10,,,,,,,66.75011754198931,66.75011754198931,66.85066283299238,67.06745775000309,67.31770362501265,67.31770362501265,67.31770362501265,67.31770362501265,67.55097687500529,67.55097687500529,67.55097687500529,67.55097687500529,67.55097687500529,67.65004670800408,0,,,100001,001,2023-04-13_16h07.10.079,DMS_etROI_12-36_stimBlast,2022.2.4,59.60002412050076,
stimBlast2,40,0,0.1,0.4661386045538117,0.7,0.1,33,PRED,12,0.4661386045538117,0,images/picture_1.png,images/picture_1.png,0,"[-11.733433509789462, 11.733433509789464]",-11.733433509789462,11.733433509789464,images/picture_2.png,1,"[11.733433509789462, -11.733433509789466]",11.733433509789462,-11.733433509789464,images/picture_3.png,2,"[11.733433509789464, 11.733433509789462]",11.733433509789464,11.733433509789462,images/picture_1.png,0,"[-11.733433509789462, 11.733433509789464]","[-11.733433509789462, 11.733433509789464]","[-11.733433509789462, 11.733433509789464]",0.1,0.4661386045538117,0.5661386045538117,0.23386139544618825,0.7999999999999999,0.3161386045538117,0,0.8999999999999999,0.7999999999999999,0.1,0,0,0,0,0,36,36,33,,,,,,,67.65004670800408,67.65004670800408,67.75075391700375,67.96774045799975,68.21769058299833,68.21769058299833,68.21769058299833,68.21769058299833,68.45092166701215,68.45092166701215,68.45092166701215,68.45092166701215,68.45092166701215,68.55009312499897,0,,,100001,001,2023-04-13_16h07.10.079,DMS_etROI_12-36_stimBlast,2022.2.4,59.60002412050076,
stimBlast2,40,0,0.1,0.4661386045538117,0.7,0.1,5,PRED,12,0.4661386045538117,0,images/picture_1.png,images/picture_1.png,0,"[11.733433509789464, 11.733433509789462]",11.733433509789464,11.733433509789462,images/picture_2.png,1,"[-11.733433509789462, 11.733433509789464]",-11.733433509789462,11.733433509789464,images/picture_3.png,2,"[-11.733433509789466, -11.733433509789462]",-11.733433509789464,-11.733433509789462,images/picture_1.png,0,"[11.733433509789464, 11.733433509789462]","[11.733433509789464, 11.733433509789462]","[11.733433509789464, 11.733433509789462]",0.1,0.4661386045538117,0.5661386045538117,0.23386139544618825,0.7999999999999999,0.3161386045538117,0,0.8999999999999999,0.7999999999999999,0.1,0,0,0,0,0,37,37,5,,,,,,,68.55009312499897,68.55009312499897,68.65096016699681,68.86740812499193,69.11757041700184,69.11757041700184,69.11757041700184,69.11757041700184,69.35086733300705,69.35086733300705,69.35086733300705,69.35086733300705,69.35086733300705,69.45048900000984,0,,,100001,001,2023-04-13_16h07.10.079,DMS_etROI_12-36_stimBlast,2022.2.4,59.60002412050076,
stimBlast2,40,0,0.1,0.4661386045538117,0.7,0.1,9,PRED,12,0.4661386045538117,0,images/picture_1.png,images/picture_1.png,0,"[-11.733433509789466, -11.733433509789462]",-11.733433509789464,-11.733433509789462,images/picture_2.png,1,"[11.733433509789462, -11.733433509789466]",11.733433509789462,-11.733433509789464,images/picture_3.png,2,"[-11.733433509789462, 11.733433509789464]",-11.733433509789462,11.733433509789464,images/picture_1.png,0,"[-11.733433509789466, -11.733433509789462]","[-11.733433509789466, -11.733433509789462]","[-11.733433509789466, -11.733433509789462]",0.1,0.4661386045538117,0.5661386045538117,0.23386139544618825,0.7999999999999999,0.3161386045538117,0,0.8999999999999999,0.7999999999999999,0.1,0,0,0,0,0,38,38,9,,,,,,,69.45048900000984,69.45048900000984,69.5499570830143,69.7676044999971,70.01781020799535,70.01781020799535,70.01781020799535,70.01781020799535,70.25091999999131,70.25091999999131,70.25091999999131,70.25091999999131,70.25091999999131,70.35001704201568,0,,,100001,001,2023-04-13_16h07.10.079,DMS_etROI_12-36_stimBlast,2022.2.4,59.60002412050076,
stimBlast2,40,0,0.1,0.4661386045538117,0.7,0.1,39,PRED,12,0.4661386045538117,0,images/picture_1.png,images/picture_1.png,0,"[11.733433509789462, -11.733433509789466]",11.733433509789462,-11.733433509789464,images/picture_2.png,1,"[-11.733433509789466, -11.733433509789462]",-11.733433509789464,-11.733433509789462,images/picture_3.png,2,"[11.733433509789464, 11.733433509789462]",11.733433509789464,11.733433509789462,images/picture_1.png,0,"[11.733433509789462, -11.733433509789466]","[11.733433509789462, -11.733433509789466]","[11.733433509789462, -11.733433509789466]",0.1,0.4661386045538117,0.5661386045538117,0.23386139544618825,0.7999999999999999,0.3161386045538117,0,0.8999999999999999,0.7999999999999999,0.1,0,0,0,0,0,39,39,39,,,,,,,70.35001704201568,70.35001704201568,70.45108741699369,70.66752329200972,70.9171003329975,70.9171003329975,70.9171003329975,70.9171003329975,71.15127883301466,71.15127883301466,71.15127883301466,71.15127883301466,71.15127883301466,71.47244333301205,0,,,100001,001,2023-04-13_16h07.10.079,DMS_etROI_12-36_stimBlast,2022.2.4,59.60002412050076,
,,,,,,,,,,,,,,,,,,,,,,,,,,,,,,,,,,,,,,,,,,,0,0,0,0,,,,,,,,,71.47244333301205,83.52144387501176,,,,,,,,,,,,,,,,,,100001,001,2023-04-13_16h07.10.079,DMS_etROI_12-36_stimBlast,2022.2.4,59.60002412050076,
stimBlast2,40,0,0.1,0.4661386045538117,0.7,0.1,45,UNPRED,12,0.4661386045538117,0,images/picture_1.png,images/picture_1.png,0,"[-11.733433509789466, -11.733433509789462]",-11.733433509789464,-11.733433509789462,images/picture_2.png,1,"[11.733433509789462, -11.733433509789466]",11.733433509789462,-11.733433509789464,images/picture_3.png,2,"[11.733433509789464, 11.733433509789462]",11.733433509789464,11.733433509789462,images/picture_1.png,0,"[-11.733433509789466, -11.733433509789462]","[-11.733433509789466, -11.733433509789462]","[-11.733433509789466, -11.733433509789462]",0.1,0.4661386045538117,0.5661386045538117,0.23386139544618825,0.7999999999999999,0.3161386045538117,0,0.8999999999999999,0.7999999999999999,0.1,1,0,1,0,0,0,0,5,,,,,,,83.52144387501176,83.52144387501176,83.63441016699653,83.85060595799587,84.08336658301414,84.08336658301414,84.08336658301414,84.08336658301414,84.31705845799297,84.31705845799297,84.31705845799297,84.31705845799297,84.31705845799297,84.41706183299539,0,,,100001,001,2023-04-13_16h07.10.079,DMS_etROI_12-36_stimBlast,2022.2.4,59.60002412050076,
stimBlast2,40,0,0.1,0.4661386045538117,0.7,0.1,61,UNPRED,12,0.4661386045538117,1,images/picture_2.png,images/picture_1.png,0,"[11.733433509789462, -11.733433509789466]",11.733433509789462,-11.733433509789464,images/picture_2.png,1,"[-11.733433509789466, -11.733433509789462]",-11.733433509789464,-11.733433509789462,images/picture_3.png,2,"[-11.733433509789462, 11.733433509789464]",-11.733433509789462,11.733433509789464,images/picture_2.png,1,"[-11.733433509789466, -11.733433509789462]","[-11.733433509789466, -11.733433509789462]","[-11.733433509789466, -11.733433509789462]",0.1,0.4661386045538117,0.5661386045538117,0.23386139544618825,0.7999999999999999,0.3161386045538117,0,0.8999999999999999,0.7999999999999999,0.1,1,0,1,0,0,1,1,21,,,,,,,84.41706183299539,84.41706183299539,84.5169984580134,84.73375537499669,84.98373679199722,84.98373679199722,84.98373679199722,84.98373679199722,85.2170992080064,85.2170992080064,85.2170992080064,85.2170992080064,85.2170992080064,85.31680495801265,0,,,100001,001,2023-04-13_16h07.10.079,DMS_etROI_12-36_stimBlast,2022.2.4,59.60002412050076,
stimBlast2,40,0,0.1,0.4661386045538117,0.7,0.1,43,UNPRED,12,0.4661386045538117,0,images/picture_1.png,images/picture_1.png,0,"[11.733433509789464, 11.733433509789462]",11.733433509789464,11.733433509789462,images/picture_2.png,1,"[-11.733433509789462, 11.733433509789464]",-11.733433509789462,11.733433509789464,images/picture_3.png,2,"[11.733433509789462, -11.733433509789466]",11.733433509789462,-11.733433509789464,images/picture_1.png,0,"[11.733433509789464, 11.733433509789462]","[11.733433509789464, 11.733433509789462]","[11.733433509789464, 11.733433509789462]",0.1,0.4661386045538117,0.5661386045538117,0.23386139544618825,0.7999999999999999,0.3161386045538117,0,0.8999999999999999,0.7999999999999999,0.1,1,0,1,0,0,2,2,3,,,,,,,85.31680495801265,85.31680495801265,85.41769316699356,85.63438833301188,85.8845861669979,85.8845861669979,85.8845861669979,85.8845861669979,86.11789279201184,86.11789279201184,86.11789279201184,86.11789279201184,86.11789279201184,86.21675916700042,0,,,100001,001,2023-04-13_16h07.10.079,DMS_etROI_12-36_stimBlast,2022.2.4,59.60002412050076,
stimBlast2,40,0,0.1,0.4661386045538117,0.7,0.1,46,UNPRED,12,0.4661386045538117,0,images/picture_1.png,images/picture_1.png,0,"[11.733433509789462, -11.733433509789466]",11.733433509789462,-11.733433509789464,images/picture_2.png,1,"[-11.733433509789466, -11.733433509789462]",-11.733433509789464,-11.733433509789462,images/picture_3.png,2,"[11.733433509789464, 11.733433509789462]",11.733433509789464,11.733433509789462,images/picture_1.png,0,"[11.733433509789462, -11.733433509789466]","[11.733433509789462, -11.733433509789466]","[11.733433509789462, -11.733433509789466]",0.1,0.4661386045538117,0.5661386045538117,0.23386139544618825,0.7999999999999999,0.3161386045538117,0,0.8999999999999999,0.7999999999999999,0.1,1,0,1,0,0,3,3,6,,,,,,,86.21675916700042,86.21675916700042,86.31757229199866,86.53409529200871,86.7844672499923,86.7844672499923,86.7844672499923,86.7844672499923,87.01782620800077,87.01782620800077,87.01782620800077,87.01782620800077,87.01782620800077,87.11741958299535,0,,,100001,001,2023-04-13_16h07.10.079,DMS_etROI_12-36_stimBlast,2022.2.4,59.60002412050076,
stimBlast2,40,0,0.1,0.4661386045538117,0.7,0.1,62,UNPRED,12,0.4661386045538117,1,images/picture_2.png,images/picture_1.png,0,"[-11.733433509789462, 11.733433509789464]",-11.733433509789462,11.733433509789464,images/picture_2.png,1,"[-11.733433509789466, -11.733433509789462]",-11.733433509789464,-11.733433509789462,images/picture_3.png,2,"[11.733433509789462, -11.733433509789466]",11.733433509789462,-11.733433509789464,images/picture_2.png,1,"[-11.733433509789466, -11.733433509789462]","[-11.733433509789466, -11.733433509789462]","[-11.733433509789466, -11.733433509789462]",0.1,0.4661386045538117,0.5661386045538117,0.23386139544618825,0.7999999999999999,0.3161386045538117,0,0.8999999999999999,0.7999999999999999,0.1,1,0,1,0,0,4,4,22,,,,,,,87.11741958299535,87.11741958299535,87.21775425001397,87.43455295800231,87.68470833299216,87.68470833299216,87.68470833299216,87.68470833299216,87.91766050001024,87.93432870801189,87.93432870801189,87.93432870801189,87.93432870801189,88.01686966701527,0,,,100001,001,2023-04-13_16h07.10.079,DMS_etROI_12-36_stimBlast,2022.2.4,59.60002412050076,
stimBlast2,40,0,0.1,0.4661386045538117,0.7,0.1,47,UNPRED,12,0.4661386045538117,1,images/picture_2.png,images/picture_1.png,0,"[-11.733433509789462, 11.733433509789464]",-11.733433509789462,11.733433509789464,images/picture_2.png,1,"[11.733433509789464, 11.733433509789462]",11.733433509789464,11.733433509789462,images/picture_3.png,2,"[-11.733433509789466, -11.733433509789462]",-11.733433509789464,-11.733433509789462,images/picture_2.png,1,"[11.733433509789464, 11.733433509789462]","[11.733433509789464, 11.733433509789462]","[11.733433509789464, 11.733433509789462]",0.1,0.4661386045538117,0.5661386045538117,0.23386139544618825,0.7999999999999999,0.3161386045538117,0,0.8999999999999999,0.7999999999999999,0.1,1,0,1,0,0,5,5,7,,,,,,,88.01686966701527,88.01686966701527,88.11730229199748,88.3349345420138,88.5844716670108,88.5844716670108,88.5844716670108,88.5844716670108,88.81766050000442,88.81766050000442,88.81766050000442,88.81766050000442,88.81766050000442,88.93065195801319,0,,,100001,001,2023-04-13_16h07.10.079,DMS_etROI_12-36_stimBlast,2022.2.4,59.60002412050076,
stimBlast2,40,0,0.1,0.4661386045538117,0.7,0.1,68,UNPRED,12,0.4661386045538117,2,images/picture_3.png,images/picture_1.png,0,"[11.733433509789462, -11.733433509789466]",11.733433509789462,-11.733433509789464,images/picture_2.png,1,"[-11.733433509789466, -11.733433509789462]",-11.733433509789464,-11.733433509789462,images/picture_3.png,2,"[11.733433509789464, 11.733433509789462]",11.733433509789464,11.733433509789462,images/picture_3.png,2,"[11.733433509789464, 11.733433509789462]","[11.733433509789464, 11.733433509789462]","[11.733433509789464, 11.733433509789462]",0.1,0.4661386045538117,0.5661386045538117,0.23386139544618825,0.7999999999999999,0.3161386045538117,0,0.8999999999999999,0.7999999999999999,0.1,1,0,1,0,0,6,6,28,,,,,,,88.93065195801319,88.93065195801319,89.03422370800399,89.25077954199514,89.48431079200236,89.48431079200236,89.48431079200236,89.48431079200236,89.71754304200294,89.71754304200294,89.71754304200294,89.71754304200294,89.71754304200294,89.81710824999027,0,,,100001,001,2023-04-13_16h07.10.079,DMS_etROI_12-36_stimBlast,2022.2.4,59.60002412050076,
stimBlast2,40,0,0.1,0.4661386045538117,0.7,0.1,76,UNPRED,12,0.4661386045538117,1,images/picture_2.png,images/picture_1.png,0,"[11.733433509789464, 11.733433509789462]",11.733433509789464,11.733433509789462,images/picture_2.png,1,"[-11.733433509789466, -11.733433509789462]",-11.733433509789464,-11.733433509789462,images/picture_3.png,2,"[-11.733433509789462, 11.733433509789464]",-11.733433509789462,11.733433509789464,images/picture_2.png,1,"[-11.733433509789466, -11.733433509789462]","[-11.733433509789466, -11.733433509789462]","[-11.733433509789466, -11.733433509789462]",0.1,0.4661386045538117,0.5661386045538117,0.23386139544618825,0.7999999999999999,0.3161386045538117,0,0.8999999999999999,0.7999999999999999,0.1,1,0,1,0,0,7,7,36,,,,,,,89.81710824999027,89.81710824999027,89.91773754201131,90.13451983299456,90.38478408299852,90.38478408299852,90.38478408299852,90.38478408299852,90.61774137499742,90.61774137499742,90.61774137499742,90.61774137499742,90.61774137499742,90.7337692079891,0,,,100001,001,2023-04-13_16h07.10.079,DMS_etROI_12-36_stimBlast,2022.2.4,59.60002412050076,
stimBlast2,40,0,0.1,0.4661386045538117,0.7,0.1,50,UNPRED,12,0.4661386045538117,2,images/picture_3.png,images/picture_1.png,0,"[11.733433509789464, 11.733433509789462]",11.733433509789464,11.733433509789462,images/picture_2.png,1,"[11.733433509789462, -11.733433509789466]",11.733433509789462,-11.733433509789464,images/picture_3.png,2,"[-11.733433509789462, 11.733433509789464]",-11.733433509789462,11.733433509789464,images/picture_3.png,2,"[-11.733433509789462, 11.733433509789464]","[-11.733433509789462, 11.733433509789464]","[-11.733433509789462, 11.733433509789464]",0.1,0.4661386045538117,0.5661386045538117,0.23386139544618825,0.7999999999999999,0.3161386045538117,0,0.8999999999999999,0.7999999999999999,0.1,1,0,1,0,0,8,8,10,,,,,,,90.7337692079891,90.7337692079891,90.83439845801331,91.0512893749983,91.2846844579908,91.2846844579908,91.2846844579908,91.2846844579908,91.51758629200049,91.51758629200049,91.51758629200049,91.51758629200049,91.51758629200049,91.62993520800956,0,,,100001,001,2023-04-13_16h07.10.079,DMS_etROI_12-36_stimBlast,2022.2.4,59.60002412050076,
stimBlast2,40,0,0.1,0.4661386045538117,0.7,0.1,59,UNPRED,12,0.4661386045538117,2,images/picture_3.png,images/picture_1.png,0,"[11.733433509789462, -11.733433509789466]",11.733433509789462,-11.733433509789464,images/picture_2.png,1,"[-11.733433509789462, 11.733433509789464]",-11.733433509789462,11.733433509789464,images/picture_3.png,2,"[-11.733433509789466, -11.733433509789462]",-11.733433509789464,-11.733433509789462,images/picture_3.png,2,"[-11.733433509789466, -11.733433509789462]","[-11.733433509789466, -11.733433509789462]","[-11.733433509789466, -11.733433509789462]",0.1,0.4661386045538117,0.5661386045538117,0.23386139544618825,0.7999999999999999,0.3161386045538117,0,0.8999999999999999,0.7999999999999999,0.1,1,0,1,0,0,9,9,19,,,,,,,91.62993520800956,91.62993520800956,91.73438666699803,91.95097312500002,92.18451545800781,92.18451545800781,92.18451545800781,92.18451545800781,92.41748695800197,92.41748695800197,92.41748695800197,92.41748695800197,92.41748695800197,92.51750420799362,0,,,100001,001,2023-04-13_16h07.10.079,DMS_etROI_12-36_stimBlast,2022.2.4,59.60002412050076,
stimBlast2,40,0,0.1,0.4661386045538117,0.7,0.1,73,UNPRED,12,0.4661386045538117,1,images/picture_2.png,images/picture_1.png,0,"[-11.733433509789462, 11.733433509789464]",-11.733433509789462,11.733433509789464,images/picture_2.png,1,"[-11.733433509789466, -11.733433509789462]",-11.733433509789464,-11.733433509789462,images/picture_3.png,2,"[11.733433509789464, 11.733433509789462]",11.733433509789464,11.733433509789462,images/picture_2.png,1,"[-11.733433509789466, -11.733433509789462]","[-11.733433509789466, -11.733433509789462]","[-11.733433509789466, -11.733433509789462]",0.1,0.4661386045538117,0.5661386045538117,0.23386139544618825,0.7999999999999999,0.3161386045538117,0,0.8999999999999999,0.7999999999999999,0.1,1,0,1,0,0,10,10,33,,,,,,,92.51750420799362,92.51750420799362,92.61829874999239,92.834314000007,93.08402854201267,93.08402854201267,93.08402854201267,93.08402854201267,93.31761129200459,93.31761129200459,93.31761129200459,93.31761129200459,93.31761129200459,93.41731533300481,0,,,100001,001,2023-04-13_16h07.10.079,DMS_etROI_12-36_stimBlast,2022.2.4,59.60002412050076,
stimBlast2,40,0,0.1,0.4661386045538117,0.7,0.1,60,UNPRED,12,0.4661386045538117,1,images/picture_2.png,images/picture_1.png,0,"[-11.733433509789466, -11.733433509789462]",-11.733433509789464,-11.733433509789462,images/picture_2.png,1,"[11.733433509789462, -11.733433509789466]",11.733433509789462,-11.733433509789464,images/picture_3.png,2,"[-11.733433509789462, 11.733433509789464]",-11.733433509789462,11.733433509789464,images/picture_2.png,1,"[11.733433509789462, -11.733433509789466]","[11.733433509789462, -11.733433509789466]","[11.733433509789462, -11.733433509789466]",0.1,0.4661386045538117,0.5661386045538117,0.23386139544618825,0.7999999999999999,0.3161386045538117,0,0.8999999999999999,0.7999999999999999,0.1,1,0,1,0,0,11,11,20,,,,,,,93.41731533300481,93.41731533300481,93.5173648330092,93.73445700001321,93.98478958301712,93.98478958301712,93.98478958301712,93.98478958301712,94.21768979201443,94.23443712500739,94.23443712500739,94.23443712500739,94.23443712500739,94.31687562499428,0,,,100001,001,2023-04-13_16h07.10.079,DMS_etROI_12-36_stimBlast,2022.2.4,59.60002412050076,
stimBlast2,40,0,0.1,0.4661386045538117,0.7,0.1,63,UNPRED,12,0.4661386045538117,1,images/picture_2.png,images/picture_1.png,0,"[-11.733433509789462, 11.733433509789464]",-11.733433509789462,11.733433509789464,images/picture_2.png,1,"[11.733433509789464, 11.733433509789462]",11.733433509789464,11.733433509789462,images/picture_3.png,2,"[-11.733433509789466, -11.733433509789462]",-11.733433509789464,-11.733433509789462,images/picture_2.png,1,"[11.733433509789464, 11.733433509789462]","[11.733433509789464, 11.733433509789462]","[11.733433509789464, 11.733433509789462]",0.1,0.4661386045538117,0.5661386045538117,0.23386139544618825,0.7999999999999999,0.3161386045538117,0,0.8999999999999999,0.7999999999999999,0.1,1,0,1,0,0,12,12,23,,,,,,,94.31687562499428,94.31687562499428,94.4166847919987,94.63360658299644,94.88379162500496,94.88379162500496,94.88379162500496,94.88379162500496,95.11710008300724,95.11710008300724,95.11710008300724,95.11710008300724,95.11710008300724,95.21667179200449,0,,,100001,001,2023-04-13_16h07.10.079,DMS_etROI_12-36_stimBlast,2022.2.4,59.60002412050076,
stimBlast2,40,0,0.1,0.4661386045538117,0.7,0.1,79,UNPRED,12,0.4661386045538117,0,images/picture_1.png,images/picture_1.png,0,"[-11.733433509789466, -11.733433509789462]",-11.733433509789464,-11.733433509789462,images/picture_2.png,1,"[11.733433509789462, -11.733433509789466]",11.733433509789462,-11.733433509789464,images/picture_3.png,2,"[-11.733433509789462, 11.733433509789464]",-11.733433509789462,11.733433509789464,images/picture_1.png,0,"[-11.733433509789466, -11.733433509789462]","[-11.733433509789466, -11.733433509789462]","[-11.733433509789466, -11.733433509789462]",0.1,0.4661386045538117,0.5661386045538117,0.23386139544618825,0.7999999999999999,0.3161386045538117,0,0.8999999999999999,0.7999999999999999,0.1,1,0,1,0,0,13,13,39,,,,,,,95.21667179200449,95.21667179200449,95.31719649999286,95.53419674999896,95.78465383299044,95.78465383299044,95.78465383299044,95.78465383299044,96.01758750001318,96.01758750001318,96.01758750001318,96.01758750001318,96.01758750001318,96.1168356249982,0,,,100001,001,2023-04-13_16h07.10.079,DMS_etROI_12-36_stimBlast,2022.2.4,59.60002412050076,
stimBlast2,40,0,0.1,0.4661386045538117,0.7,0.1,52,UNPRED,12,0.4661386045538117,0,images/picture_1.png,images/picture_1.png,0,"[11.733433509789464, 11.733433509789462]",11.733433509789464,11.733433509789462,images/picture_2.png,1,"[-11.733433509789462, 11.733433509789464]",-11.733433509789462,11.733433509789464,images/picture_3.png,2,"[11.733433509789462, -11.733433509789466]",11.733433509789462,-11.733433509789464,images/picture_1.png,0,"[11.733433509789464, 11.733433509789462]","[11.733433509789464, 11.733433509789462]","[11.733433509789464, 11.733433509789462]",0.1,0.4661386045538117,0.5661386045538117,0.23386139544618825,0.7999999999999999,0.3161386045538117,0,0.8999999999999999,0.7999999999999999,0.1,1,0,1,0,0,14,14,12,,,,,,,96.1168356249982,96.1168356249982,96.21765029200469,96.43420533300377,96.68430583301233,96.68430583301233,96.68430583301233,96.68430583301233,96.91725704199052,96.91725704199052,96.91725704199052,96.91725704199052,96.91725704199052,97.0173316670116,0,,,100001,001,2023-04-13_16h07.10.079,DMS_etROI_12-36_stimBlast,2022.2.4,59.60002412050076,
stimBlast2,40,0,0.1,0.4661386045538117,0.7,0.1,67,UNPRED,12,0.4661386045538117,0,images/picture_1.png,images/picture_1.png,0,"[11.733433509789464, 11.733433509789462]",11.733433509789464,11.733433509789462,images/picture_2.png,1,"[11.733433509789462, -11.733433509789466]",11.733433509789462,-11.733433509789464,images/picture_3.png,2,"[-11.733433509789466, -11.733433509789462]",-11.733433509789464,-11.733433509789462,images/picture_1.png,0,"[11.733433509789464, 11.733433509789462]","[11.733433509789464, 11.733433509789462]","[11.733433509789464, 11.733433509789462]",0.1,0.4661386045538117,0.5661386045538117,0.23386139544618825,0.7999999999999999,0.3161386045538117,0,0.8999999999999999,0.7999999999999999,0.1,1,0,1,0,0,15,15,27,,,,,,,97.0173316670116,97.0173316670116,97.11786179200863,97.33420583300176,97.58447274999344,97.58447274999344,97.58447274999344,97.58447274999344,97.81783812498907,97.81783812498907,97.81783812498907,97.81783812498907,97.81783812498907,97.93008987500798,0,,,100001,001,2023-04-13_16h07.10.079,DMS_etROI_12-36_stimBlast,2022.2.4,59.60002412050076,
stimBlast2,40,0,0.1,0.4661386045538117,0.7,0.1,49,UNPRED,12,0.4661386045538117,2,images/picture_3.png,images/picture_1.png,0,"[-11.733433509789466, -11.733433509789462]",-11.733433509789464,-11.733433509789462,images/picture_2.png,1,"[-11.733433509789462, 11.733433509789464]",-11.733433509789462,11.733433509789464,images/picture_3.png,2,"[11.733433509789462, -11.733433509789466]",11.733433509789462,-11.733433509789464,images/picture_3.png,2,"[11.733433509789462, -11.733433509789466]","[11.733433509789462, -11.733433509789466]","[11.733433509789462, -11.733433509789466]",0.1,0.4661386045538117,0.5661386045538117,0.23386139544618825,0.7999999999999999,0.3161386045538117,0,0.8999999999999999,0.7999999999999999,0.1,1,0,1,0,0,16,16,9,,,,,,,97.93008987500798,97.93008987500798,98.0344447499956,98.25130733300466,98.48463466699468,98.48463466699468,98.48463466699468,98.48463466699468,98.71795804199064,98.71795804199064,98.71795804199064,98.71795804199064,98.71795804199064,98.82725029200083,0,,,100001,001,2023-04-13_16h07.10.079,DMS_etROI_12-36_stimBlast,2022.2.4,59.60002412050076,
stimBlast2,40,0,0.1,0.4661386045538117,0.7,0.1,64,UNPRED,12,0.4661386045538117,2,images/picture_3.png,images/picture_1.png,0,"[11.733433509789462, -11.733433509789466]",11.733433509789462,-11.733433509789464,images/picture_2.png,1,"[-11.733433509789466, -11.733433509789462]",-11.733433509789464,-11.733433509789462,images/picture_3.png,2,"[-11.733433509789462, 11.733433509789464]",-11.733433509789462,11.733433509789464,images/picture_3.png,2,"[-11.733433509789462, 11.733433509789464]","[-11.733433509789462, 11.733433509789464]","[-11.733433509789462, 11.733433509789464]",0.1,0.4661386045538117,0.5661386045538117,0.23386139544618825,0.7999999999999999,0.3161386045538117,0,0.8999999999999999,0.7999999999999999,0.1,1,0,1,0,0,17,17,24,,,,,,,98.82725029200083,98.82725029200083,98.93393233299139,99.1511021250044,99.3843837500026,99.3843837500026,99.3843837500026,99.3843837500026,99.61778929200955,99.61778929200955,99.61778929200955,99.61778929200955,99.61778929200955,99.71711487500579,0,,,100001,001,2023-04-13_16h07.10.079,DMS_etROI_12-36_stimBlast,2022.2.4,59.60002412050076,
stimBlast2,40,0,0.1,0.4661386045538117,0.7,0.1,54,UNPRED,12,0.4661386045538117,0,images/picture_1.png,images/picture_1.png,0,"[11.733433509789464, 11.733433509789462]",11.733433509789464,11.733433509789462,images/picture_2.png,1,"[-11.733433509789466, -11.733433509789462]",-11.733433509789464,-11.733433509789462,images/picture_3.png,2,"[11.733433509789462, -11.733433509789466]",11.733433509789462,-11.733433509789464,images/picture_1.png,0,"[11.733433509789464, 11.733433509789462]","[11.733433509789464, 11.733433509789462]","[11.733433509789464, 11.733433509789462]",0.1,0.4661386045538117,0.5661386045538117,0.23386139544618825,0.7999999999999999,0.3161386045538117,0,0.8999999999999999,0.7999999999999999,0.1,1,0,1,0,0,18,18,14,,,,,,,99.71711487500579,99.71711487500579,99.81785495800432,100.03425787499873,100.2846842079889,100.2846842079889,100.2846842079889,100.2846842079889,100.51785425000708,100.51785425000708,100.51785425000708,100.51785425000708,100.51785425000708,100.61748950000037,0,,,100001,001,2023-04-13_16h07.10.079,DMS_etROI_12-36_stimBlast,2022.2.4,59.60002412050076,
stimBlast2,40,0,0.1,0.4661386045538117,0.7,0.1,55,UNPRED,12,0.4661386045538117,1,images/picture_2.png,images/picture_1.png,0,"[-11.733433509789466, -11.733433509789462]",-11.733433509789464,-11.733433509789462,images/picture_2.png,1,"[-11.733433509789462, 11.733433509789464]",-11.733433509789462,11.733433509789464,images/picture_3.png,2,"[11.733433509789464, 11.733433509789462]",11.733433509789464,11.733433509789462,images/picture_2.png,1,"[-11.733433509789462, 11.733433509789464]","[-11.733433509789462, 11.733433509789464]","[-11.733433509789462, 11.733433509789464]",0.1,0.4661386045538117,0.5661386045538117,0.23386139544618825,0.7999999999999999,0.3161386045538117,0,0.8999999999999999,0.7999999999999999,0.1,1,0,1,0,0,19,19,15,,,,,,,100.61748950000037,100.61748950000037,100.71775133299525,100.93442562498967,101.18456937500741,101.18456937500741,101.18456937500741,101.18456937500741,101.41793212501216,101.41793212501216,101.41793212501216,101.41793212501216,101.41793212501216,101.51687233301345,0,,,100001,001,2023-04-13_16h07.10.079,DMS_etROI_12-36_stimBlast,2022.2.4,59.60002412050076,
stimBlast2,40,0,0.1,0.4661386045538117,0.7,0.1,72,UNPRED,12,0.4661386045538117,0,images/picture_1.png,images/picture_1.png,0,"[11.733433509789464, 11.733433509789462]",11.733433509789464,11.733433509789462,images/picture_2.png,1,"[-11.733433509789466, -11.733433509789462]",-11.733433509789464,-11.733433509789462,images/picture_3.png,2,"[11.733433509789462, -11.733433509789466]",11.733433509789462,-11.733433509789464,images/picture_1.png,0,"[11.733433509789464, 11.733433509789462]","[11.733433509789464, 11.733433509789462]","[11.733433509789464, 11.733433509789462]",0.1,0.4661386045538117,0.5661386045538117,0.23386139544618825,0.7999999999999999,0.3161386045538117,0,0.8999999999999999,0.7999999999999999,0.1,1,0,1,0,0,20,20,32,,,,,,,101.51687233301345,101.51687233301345,101.61793054200825,101.83443679200718,102.08463720799773,102.08463720799773,102.08463720799773,102.08463720799773,102.31784512501326,102.31784512501326,102.31784512501326,102.31784512501326,102.31784512501326,102.43327875001705,0,,,100001,001,2023-04-13_16h07.10.079,DMS_etROI_12-36_stimBlast,2022.2.4,59.60002412050076,
stimBlast2,40,0,0.1,0.4661386045538117,0.7,0.1,58,UNPRED,12,0.4661386045538117,2,images/picture_3.png,images/picture_1.png,0,"[11.733433509789464, 11.733433509789462]",11.733433509789464,11.733433509789462,images/picture_2.png,1,"[-11.733433509789466, -11.733433509789462]",-11.733433509789464,-11.733433509789462,images/picture_3.png,2,"[-11.733433509789462, 11.733433509789464]",-11.733433509789462,11.733433509789464,images/picture_3.png,2,"[-11.733433509789462, 11.733433509789464]","[-11.733433509789462, 11.733433509789464]","[-11.733433509789462, 11.733433509789464]",0.1,0.4661386045538117,0.5661386045538117,0.23386139544618825,0.7999999999999999,0.3161386045538117,0,0.8999999999999999,0.7999999999999999,0.1,1,0,1,0,0,21,21,18,,,,,,,102.43327875001705,102.43327875001705,102.53458245799993,102.75107654201565,102.9845360420004,102.9845360420004,102.9845360420004,102.9845360420004,103.21808562500519,103.21808562500519,103.21808562500519,103.21808562500519,103.21808562500519,103.31757099999231,0,,,100001,001,2023-04-13_16h07.10.079,DMS_etROI_12-36_stimBlast,2022.2.4,59.60002412050076,
stimBlast2,40,0,0.1,0.4661386045538117,0.7,0.1,57,UNPRED,12,0.4661386045538117,0,images/picture_1.png,images/picture_1.png,0,"[-11.733433509789466, -11.733433509789462]",-11.733433509789464,-11.733433509789462,images/picture_2.png,1,"[11.733433509789462, -11.733433509789466]",11.733433509789462,-11.733433509789464,images/picture_3.png,2,"[11.733433509789464, 11.733433509789462]",11.733433509789464,11.733433509789462,images/picture_1.png,0,"[-11.733433509789466, -11.733433509789462]","[-11.733433509789466, -11.733433509789462]","[-11.733433509789466, -11.733433509789462]",0.1,0.4661386045538117,0.5661386045538117,0.23386139544618825,0.7999999999999999,0.3161386045538117,0,0.8999999999999999,0.7999999999999999,0.1,1,0,1,0,0,22,22,17,,,,,,,103.31757099999231,103.31757099999231,103.41784362500766,103.63447012499091,103.88475845800713,103.88475845800713,103.88475845800713,103.88475845800713,104.1176044580061,104.1176044580061,104.1176044580061,104.1176044580061,104.1176044580061,104.21683600000688,0,,,100001,001,2023-04-13_16h07.10.079,DMS_etROI_12-36_stimBlast,2022.2.4,59.60002412050076,
stimBlast2,40,0,0.1,0.4661386045538117,0.7,0.1,51,UNPRED,12,0.4661386045538117,0,images/picture_1.png,images/picture_1.png,0,"[-11.733433509789466, -11.733433509789462]",-11.733433509789464,-11.733433509789462,images/picture_2.png,1,"[11.733433509789462, -11.733433509789466]",11.733433509789462,-11.733433509789464,images/picture_3.png,2,"[-11.733433509789462, 11.733433509789464]",-11.733433509789462,11.733433509789464,images/picture_1.png,0,"[-11.733433509789466, -11.733433509789462]","[-11.733433509789466, -11.733433509789462]","[-11.733433509789466, -11.733433509789462]",0.1,0.4661386045538117,0.5661386045538117,0.23386139544618825,0.7999999999999999,0.3161386045538117,0,0.8999999999999999,0.7999999999999999,0.1,1,0,1,0,0,23,23,11,,,,,,,104.21683600000688,104.21683600000688,104.31769316701684,104.53339333299664,104.78367450000951,104.78367450000951,104.78367450000951,104.78367450000951,105.0170615829993,105.0170615829993,105.0170615829993,105.0170615829993,105.0170615829993,105.11693004201516,0,,,100001,001,2023-04-13_16h07.10.079,DMS_etROI_12-36_stimBlast,2022.2.4,59.60002412050076,
stimBlast2,40,0,0.1,0.4661386045538117,0.7,0.1,75,UNPRED,12,0.4661386045538117,2,images/picture_3.png,images/picture_1.png,0,"[-11.733433509789466, -11.733433509789462]",-11.733433509789464,-11.733433509789462,images/picture_2.png,1,"[11.733433509789462, -11.733433509789466]",11.733433509789462,-11.733433509789464,images/picture_3.png,2,"[-11.733433509789462, 11.733433509789464]",-11.733433509789462,11.733433509789464,images/picture_3.png,2,"[-11.733433509789462, 11.733433509789464]","[-11.733433509789462, 11.733433509789464]","[-11.733433509789462, 11.733433509789464]",0.1,0.4661386045538117,0.5661386045538117,0.23386139544618825,0.7999999999999999,0.3161386045538117,0,0.8999999999999999,0.7999999999999999,0.1,1,0,1,0,0,24,24,35,,,,,,,105.11693004201516,105.11693004201516,105.21687095801462,105.43356820801273,105.66727458301466,105.66727458301466,105.66727458301466,105.66727458301466,105.90135900001042,105.90135900001042,105.90135900001042,105.90135900001042,105.90135900001042,106.00094845800777,0,,,100001,001,2023-04-13_16h07.10.079,DMS_etROI_12-36_stimBlast,2022.2.4,59.60002412050076,
stimBlast2,40,0,0.1,0.4661386045538117,0.7,0.1,78,UNPRED,12,0.4661386045538117,1,images/picture_2.png,images/picture_1.png,0,"[11.733433509789464, 11.733433509789462]",11.733433509789464,11.733433509789462,images/picture_2.png,1,"[11.733433509789462, -11.733433509789466]",11.733433509789462,-11.733433509789464,images/picture_3.png,2,"[-11.733433509789466, -11.733433509789462]",-11.733433509789464,-11.733433509789462,images/picture_2.png,1,"[11.733433509789462, -11.733433509789466]","[11.733433509789462, -11.733433509789466]","[11.733433509789462, -11.733433509789466]",0.1,0.4661386045538117,0.5661386045538117,0.23386139544618825,0.7999999999999999,0.3161386045538117,0,0.8999999999999999,0.7999999999999999,0.1,1,0,1,0,0,25,25,38,,,,,,,106.00094845800777,106.00094845800777,106.10142683298909,106.31767845799914,106.56762245800928,106.56762245800928,106.56762245800928,106.56762245800928,106.80107766701258,106.80107766701258,106.80107766701258,106.80107766701258,106.80107766701258,106.91365104200668,0,,,100001,001,2023-04-13_16h07.10.079,DMS_etROI_12-36_stimBlast,2022.2.4,59.60002412050076,
stimBlast2,40,0,0.1,0.4661386045538117,0.7,0.1,65,UNPRED,12,0.4661386045538117,2,images/picture_3.png,images/picture_1.png,0,"[11.733433509789462, -11.733433509789466]",11.733433509789462,-11.733433509789464,images/picture_2.png,1,"[-11.733433509789466, -11.733433509789462]",-11.733433509789464,-11.733433509789462,images/picture_3.png,2,"[11.733433509789464, 11.733433509789462]",11.733433509789464,11.733433509789462,images/picture_3.png,2,"[11.733433509789464, 11.733433509789462]","[11.733433509789464, 11.733433509789462]","[11.733433509789464, 11.733433509789462]",0.1,0.4661386045538117,0.5661386045538117,0.23386139544618825,0.7999999999999999,0.3161386045538117,0,0.8999999999999999,0.7999999999999999,0.1,1,0,1,0,0,26,26,25,,,,,,,106.91365104200668,106.91365104200668,107.01784312500968,107.23419658301282,107.46742433300824,107.46742433300824,107.46742433300824,107.46742433300824,107.70123479200993,107.70123479200993,107.70123479200993,107.70123479200993,107.70123479200993,107.81160320801428,0,,,100001,001,2023-04-13_16h07.10.079,DMS_etROI_12-36_stimBlast,2022.2.4,59.60002412050076,
stimBlast2,40,0,0.1,0.4661386045538117,0.7,0.1,41,UNPRED,12,0.4661386045538117,2,images/picture_3.png,images/picture_1.png,0,"[11.733433509789462, -11.733433509789466]",11.733433509789462,-11.733433509789464,images/picture_2.png,1,"[-11.733433509789462, 11.733433509789464]",-11.733433509789462,11.733433509789464,images/picture_3.png,2,"[-11.733433509789466, -11.733433509789462]",-11.733433509789464,-11.733433509789462,images/picture_3.png,2,"[-11.733433509789466, -11.733433509789462]","[-11.733433509789466, -11.733433509789462]","[-11.733433509789466, -11.733433509789462]",0.1,0.4661386045538117,0.5661386045538117,0.23386139544618825,0.7999999999999999,0.3161386045538117,0,0.8999999999999999,0.7999999999999999,0.1,1,0,1,0,0,27,27,1,,,,,,,107.81160320801428,107.81160320801428,107.91791833299794,108.13436958301463,108.3680102500075,108.3680102500075,108.3680102500075,108.3680102500075,108.60091983299935,108.60091983299935,108.60091983299935,108.60091983299935,108.60091983299935,108.70173749999958,0,,,100001,001,2023-04-13_16h07.10.079,DMS_etROI_12-36_stimBlast,2022.2.4,59.60002412050076,
stimBlast2,40,0,0.1,0.4661386045538117,0.7,0.1,53,UNPRED,12,0.4661386045538117,1,images/picture_2.png,images/picture_1.png,0,"[11.733433509789462, -11.733433509789466]",11.733433509789462,-11.733433509789464,images/picture_2.png,1,"[11.733433509789464, 11.733433509789462]",11.733433509789464,11.733433509789462,images/picture_3.png,2,"[-11.733433509789466, -11.733433509789462]",-11.733433509789464,-11.733433509789462,images/picture_2.png,1,"[11.733433509789464, 11.733433509789462]","[11.733433509789464, 11.733433509789462]","[11.733433509789464, 11.733433509789462]",0.1,0.4661386045538117,0.5661386045538117,0.23386139544618825,0.7999999999999999,0.3161386045538117,0,0.8999999999999999,0.7999999999999999,0.1,1,0,1,0,0,28,28,13,,,,,,,108.70173749999958,108.70173749999958,108.80134145799093,109.01761108299252,109.26779945800081,109.26779945800081,109.26779945800081,109.26779945800081,109.50131279201014,109.50131279201014,109.50131279201014,109.50131279201014,109.50131279201014,109.60023833299056,0,,,100001,001,2023-04-13_16h07.10.079,DMS_etROI_12-36_stimBlast,2022.2.4,59.60002412050076,
stimBlast2,40,0,0.1,0.4661386045538117,0.7,0.1,66,UNPRED,12,0.4661386045538117,1,images/picture_2.png,images/picture_1.png,0,"[-11.733433509789462, 11.733433509789464]",-11.733433509789462,11.733433509789464,images/picture_2.png,1,"[-11.733433509789466, -11.733433509789462]",-11.733433509789464,-11.733433509789462,images/picture_3.png,2,"[11.733433509789464, 11.733433509789462]",11.733433509789464,11.733433509789462,images/picture_2.png,1,"[-11.733433509789466, -11.733433509789462]","[-11.733433509789466, -11.733433509789462]","[-11.733433509789466, -11.733433509789462]",0.1,0.4661386045538117,0.5661386045538117,0.23386139544618825,0.7999999999999999,0.3161386045538117,0,0.8999999999999999,0.7999999999999999,0.1,1,0,1,0,0,29,29,26,,,,,,,109.60023833299056,109.60023833299056,109.70122279200586,109.91754666701308,110.16714337500161,110.16714337500161,110.16714337500161,110.16714337500161,110.40128479199484,110.40128479199484,110.40128479199484,110.40128479199484,110.40128479199484,110.5002367499983,0,,,100001,001,2023-04-13_16h07.10.079,DMS_etROI_12-36_stimBlast,2022.2.4,59.60002412050076,
stimBlast2,40,0,0.1,0.4661386045538117,0.7,0.1,42,UNPRED,12,0.4661386045538117,0,images/picture_1.png,images/picture_1.png,0,"[11.733433509789464, 11.733433509789462]",11.733433509789464,11.733433509789462,images/picture_2.png,1,"[-11.733433509789462, 11.733433509789464]",-11.733433509789462,11.733433509789464,images/picture_3.png,2,"[-11.733433509789466, -11.733433509789462]",-11.733433509789464,-11.733433509789462,images/picture_1.png,0,"[11.733433509789464, 11.733433509789462]","[11.733433509789464, 11.733433509789462]","[11.733433509789464, 11.733433509789462]",0.1,0.4661386045538117,0.5661386045538117,0.23386139544618825,0.7999999999999999,0.3161386045538117,0,0.8999999999999999,0.7999999999999999,0.1,1,0,1,0,0,30,30,2,,,,,,,110.5002367499983,110.5002367499983,110.60138795801322,110.81780495800194,111.06813820800744,111.06813820800744,111.06813820800744,111.06813820800744,111.30045387501013,111.31704666701262,111.31704666701262,111.31704666701262,111.31704666701262,111.40104212501319,0,,,100001,001,2023-04-13_16h07.10.079,DMS_etROI_12-36_stimBlast,2022.2.4,59.60002412050076,
stimBlast2,40,0,0.1,0.4661386045538117,0.7,0.1,74,UNPRED,12,0.4661386045538117,1,images/picture_2.png,images/picture_1.png,0,"[-11.733433509789462, 11.733433509789464]",-11.733433509789462,11.733433509789464,images/picture_2.png,1,"[11.733433509789462, -11.733433509789466]",11.733433509789462,-11.733433509789464,images/picture_3.png,2,"[11.733433509789464, 11.733433509789462]",11.733433509789464,11.733433509789462,images/picture_2.png,1,"[11.733433509789462, -11.733433509789466]","[11.733433509789462, -11.733433509789466]","[11.733433509789462, -11.733433509789466]",0.1,0.4661386045538117,0.5661386045538117,0.23386139544618825,0.7999999999999999,0.3161386045538117,0,0.8999999999999999,0.7999999999999999,0.1,1,0,1,0,0,31,31,34,,,,,,,111.40104212501319,111.40104212501319,111.50152237500879,111.71790787499049,111.96793733301456,111.96793733301456,111.96793733301456,111.96793733301456,112.20150970801478,112.20150970801478,112.20150970801478,112.20150970801478,112.20150970801478,112.30056495801546,0,,,100001,001,2023-04-13_16h07.10.079,DMS_etROI_12-36_stimBlast,2022.2.4,59.60002412050076,
stimBlast2,40,0,0.1,0.4661386045538117,0.7,0.1,71,UNPRED,12,0.4661386045538117,1,images/picture_2.png,images/picture_1.png,0,"[11.733433509789462, -11.733433509789466]",11.733433509789462,-11.733433509789464,images/picture_2.png,1,"[11.733433509789464, 11.733433509789462]",11.733433509789464,11.733433509789462,images/picture_3.png,2,"[-11.733433509789462, 11.733433509789464]",-11.733433509789462,11.733433509789464,images/picture_2.png,1,"[11.733433509789464, 11.733433509789462]","[11.733433509789464, 11.733433509789462]","[11.733433509789464, 11.733433509789462]",0.1,0.4661386045538117,0.5661386045538117,0.23386139544618825,0.7999999999999999,0.3161386045538117,0,0.8999999999999999,0.7999999999999999,0.1,1,0,1,0,0,32,32,31,,,,,,,112.30056495801546,112.30056495801546,112.40123504199437,112.6175140000123,112.86799212501501,112.86799212501501,112.86799212501501,112.86799212501501,113.10120462501072,113.10120462501072,113.10120462501072,113.10120462501072,113.10120462501072,113.20054058299866,0,,,100001,001,2023-04-13_16h07.10.079,DMS_etROI_12-36_stimBlast,2022.2.4,59.60002412050076,
stimBlast2,40,0,0.1,0.4661386045538117,0.7,0.1,40,UNPRED,12,0.4661386045538117,1,images/picture_2.png,images/picture_1.png,0,"[-11.733433509789466, -11.733433509789462]",-11.733433509789464,-11.733433509789462,images/picture_2.png,1,"[11.733433509789462, -11.733433509789466]",11.733433509789462,-11.733433509789464,images/picture_3.png,2,"[-11.733433509789462, 11.733433509789464]",-11.733433509789462,11.733433509789464,images/picture_2.png,1,"[11.733433509789462, -11.733433509789466]","[11.733433509789462, -11.733433509789466]","[11.733433509789462, -11.733433509789466]",0.1,0.4661386045538117,0.5661386045538117,0.23386139544618825,0.7999999999999999,0.3161386045538117,0,0.8999999999999999,0.7999999999999999,0.1,1,0,1,0,0,33,33,0,,,,,,,113.20054058299866,113.20054058299866,113.30131420801627,113.51752437499817,113.76787116701598,113.76787116701598,113.76787116701598,113.76787116701598,114.0011690419924,114.0011690419924,114.0011690419924,114.0011690419924,114.0011690419924,114.1005547500099,0,,,100001,001,2023-04-13_16h07.10.079,DMS_etROI_12-36_stimBlast,2022.2.4,59.60002412050076,
stimBlast2,40,0,0.1,0.4661386045538117,0.7,0.1,44,UNPRED,12,0.4661386045538117,1,images/picture_2.png,images/picture_1.png,0,"[-11.733433509789466, -11.733433509789462]",-11.733433509789464,-11.733433509789462,images/picture_2.png,1,"[11.733433509789462, -11.733433509789466]",11.733433509789462,-11.733433509789464,images/picture_3.png,2,"[11.733433509789464, 11.733433509789462]",11.733433509789464,11.733433509789462,images/picture_2.png,1,"[11.733433509789462, -11.733433509789466]","[11.733433509789462, -11.733433509789466]","[11.733433509789462, -11.733433509789466]",0.1,0.4661386045538117,0.5661386045538117,0.23386139544618825,0.7999999999999999,0.3161386045538117,0,0.8999999999999999,0.7999999999999999,0.1,1,0,1,0,0,34,34,4,,,,,,,114.1005547500099,114.1005547500099,114.20107583299978,114.417508500017,114.66788187500788,114.66788187500788,114.66788187500788,114.66788187500788,114.90042304201052,114.91709533301764,114.91709533301764,114.91709533301764,114.91709533301764,115.00043058299343,0,,,100001,001,2023-04-13_16h07.10.079,DMS_etROI_12-36_stimBlast,2022.2.4,59.60002412050076,
stimBlast2,40,0,0.1,0.4661386045538117,0.7,0.1,48,UNPRED,12,0.4661386045538117,1,images/picture_2.png,images/picture_1.png,0,"[11.733433509789462, -11.733433509789466]",11.733433509789462,-11.733433509789464,images/picture_2.png,1,"[11.733433509789464, 11.733433509789462]",11.733433509789464,11.733433509789462,images/picture_3.png,2,"[-11.733433509789462, 11.733433509789464]",-11.733433509789462,11.733433509789464,images/picture_2.png,1,"[11.733433509789464, 11.733433509789462]","[11.733433509789464, 11.733433509789462]","[11.733433509789464, 11.733433509789462]",0.1,0.4661386045538117,0.5661386045538117,0.23386139544618825,0.7999999999999999,0.3161386045538117,0,0.8999999999999999,0.7999999999999999,0.1,1,0,1,0,0,35,35,8,,,,,,,115.00043058299343,115.00043058299343,115.10039870798937,115.3170398749935,115.56708958299714,115.56708958299714,115.56708958299714,115.56708958299714,115.80045712500578,115.80045712500578,115.80045712500578,115.80045712500578,115.80045712500578,115.91290708299493,0,,,100001,001,2023-04-13_16h07.10.079,DMS_etROI_12-36_stimBlast,2022.2.4,59.60002412050076,
stimBlast2,40,0,0.1,0.4661386045538117,0.7,0.1,77,UNPRED,12,0.4661386045538117,2,images/picture_3.png,images/picture_1.png,0,"[11.733433509789464, 11.733433509789462]",11.733433509789464,11.733433509789462,images/picture_2.png,1,"[11.733433509789462, -11.733433509789466]",11.733433509789462,-11.733433509789464,images/picture_3.png,2,"[-11.733433509789462, 11.733433509789464]",-11.733433509789462,11.733433509789464,images/picture_3.png,2,"[-11.733433509789462, 11.733433509789464]","[-11.733433509789462, 11.733433509789464]","[-11.733433509789462, 11.733433509789464]",0.1,0.4661386045538117,0.5661386045538117,0.23386139544618825,0.7999999999999999,0.3161386045538117,0,0.8999999999999999,0.7999999999999999,0.1,1,0,1,0,0,36,36,37,,,,,,,115.91290708299493,115.91290708299493,116.01816816700739,116.23420508299023,116.46826541700284,116.46826541700284,116.46826541700284,116.46826541700284,116.70126570799039,116.71778720800648,116.71778720800648,116.71778720800648,116.71778720800648,116.81517083299696,0,,,100001,001,2023-04-13_16h07.10.079,DMS_etROI_12-36_stimBlast,2022.2.4,59.60002412050076,
stimBlast2,40,0,0.1,0.4661386045538117,0.7,0.1,70,UNPRED,12,0.4661386045538117,2,images/picture_3.png,images/picture_1.png,0,"[-11.733433509789466, -11.733433509789462]",-11.733433509789464,-11.733433509789462,images/picture_2.png,1,"[11.733433509789462, -11.733433509789466]",11.733433509789462,-11.733433509789464,images/picture_3.png,2,"[11.733433509789464, 11.733433509789462]",11.733433509789464,11.733433509789462,images/picture_3.png,2,"[11.733433509789464, 11.733433509789462]","[11.733433509789464, 11.733433509789462]","[11.733433509789464, 11.733433509789462]",0.1,0.4661386045538117,0.5661386045538117,0.23386139544618825,0.7999999999999999,0.3161386045538117,0,0.8999999999999999,0.7999999999999999,0.1,1,0,1,0,0,37,37,30,,,,,,,116.81517083299696,116.81517083299696,116.91797841701191,117.13461337500485,117.36779908300377,117.36779908300377,117.36779908300377,117.36779908300377,117.60118529200554,117.60118529200554,117.60118529200554,117.60118529200554,117.60118529200554,117.70902833298896,0,,,100001,001,2023-04-13_16h07.10.079,DMS_etROI_12-36_stimBlast,2022.2.4,59.60002412050076,
stimBlast2,40,0,0.1,0.4661386045538117,0.7,0.1,69,UNPRED,12,0.4661386045538117,2,images/picture_3.png,images/picture_1.png,0,"[-11.733433509789466, -11.733433509789462]",-11.733433509789464,-11.733433509789462,images/picture_2.png,1,"[11.733433509789464, 11.733433509789462]",11.733433509789464,11.733433509789462,images/picture_3.png,2,"[11.733433509789462, -11.733433509789466]",11.733433509789462,-11.733433509789464,images/picture_3.png,2,"[11.733433509789462, -11.733433509789466]","[11.733433509789462, -11.733433509789466]","[11.733433509789462, -11.733433509789466]",0.1,0.4661386045538117,0.5661386045538117,0.23386139544618825,0.7999999999999999,0.3161386045538117,0,0.8999999999999999,0.7999999999999999,0.1,1,0,1,0,0,38,38,29,,,,,,,117.70902833298896,117.70902833298896,117.8178567920113,118.0342208330112,118.26794166699983,118.26794166699983,118.26794166699983,118.26794166699983,118.50076741699013,118.50076741699013,118.50076741699013,118.50076741699013,118.50076741699013,118.60125783301191,0,,,100001,001,2023-04-13_16h07.10.079,DMS_etROI_12-36_stimBlast,2022.2.4,59.60002412050076,
stimBlast2,40,0,0.1,0.4661386045538117,0.7,0.1,56,UNPRED,12,0.4661386045538117,1,images/picture_2.png,images/picture_1.png,0,"[-11.733433509789462, 11.733433509789464]",-11.733433509789462,11.733433509789464,images/picture_2.png,1,"[11.733433509789462, -11.733433509789466]",11.733433509789462,-11.733433509789464,images/picture_3.png,2,"[-11.733433509789466, -11.733433509789462]",-11.733433509789464,-11.733433509789462,images/picture_2.png,1,"[11.733433509789462, -11.733433509789466]","[11.733433509789462, -11.733433509789466]","[11.733433509789462, -11.733433509789466]",0.1,0.4661386045538117,0.5661386045538117,0.23386139544618825,0.7999999999999999,0.3161386045538117,0,0.8999999999999999,0.7999999999999999,0.1,1,0,1,0,0,39,39,16,,,,,,,118.60125783301191,118.60125783301191,118.70065783298924,118.91750645800494,119.16828329200507,119.16828329200507,119.16828329200507,119.16828329200507,119.40135370800272,119.41765575000318,119.41765575000318,119.41765575000318,119.41765575000318,119.84981779201189,0,,,100001,001,2023-04-13_16h07.10.079,DMS_etROI_12-36_stimBlast,2022.2.4,59.60002412050076,
,,,,,,,,,,,,,,,,,,,,,,,,,,,,,,,,,,,,,,,,,,,1,0,1,0,,,,,,,,,119.84981779201189,131.90330670800176,,,,,,,,,,,,,,,,,,100001,001,2023-04-13_16h07.10.079,DMS_etROI_12-36_stimBlast,2022.2.4,59.60002412050076,
stimBlast2,40,0,0.1,0.4661386045538117,0.7,0.1,114,PRED,12,0.4661386045538117,2,images/picture_3.png,images/picture_1.png,0,"[-11.733433509789462, 11.733433509789464]",-11.733433509789462,11.733433509789464,images/picture_2.png,1,"[-11.733433509789466, -11.733433509789462]",-11.733433509789464,-11.733433509789462,images/picture_3.png,2,"[11.733433509789464, 11.733433509789462]",11.733433509789464,11.733433509789462,images/picture_3.png,2,"[11.733433509789464, 11.733433509789462]","[11.733433509789464, 11.733433509789462]","[11.733433509789464, 11.733433509789462]",0.1,0.4661386045538117,0.5661386045538117,0.23386139544618825,0.7999999999999999,0.3161386045538117,0,0.8999999999999999,0.7999999999999999,0.1,2,0,2,0,0,0,0,34,,,,,,,131.90330670800176,131.90330670800176,132.0174293750024,132.23482729200623,132.4684116670105,132.4684116670105,132.4684116670105,132.4684116670105,132.70162379200337,132.7183355000161,132.7183355000161,132.7183355000161,132.7183355000161,132.8148487500148,0,,,100001,001,2023-04-13_16h07.10.079,DMS_etROI_12-36_stimBlast,2022.2.4,59.60002412050076,
stimBlast2,40,0,0.1,0.4661386045538117,0.7,0.1,119,PRED,12,0.4661386045538117,2,images/picture_3.png,images/picture_1.png,0,"[11.733433509789464, 11.733433509789462]",11.733433509789464,11.733433509789462,images/picture_2.png,1,"[11.733433509789462, -11.733433509789466]",11.733433509789462,-11.733433509789464,images/picture_3.png,2,"[-11.733433509789462, 11.733433509789464]",-11.733433509789462,11.733433509789464,images/picture_3.png,2,"[-11.733433509789462, 11.733433509789464]","[-11.733433509789462, 11.733433509789464]","[-11.733433509789462, 11.733433509789464]",0.1,0.4661386045538117,0.5661386045538117,0.23386139544618825,0.7999999999999999,0.3161386045538117,0,0.8999999999999999,0.7999999999999999,0.1,2,0,2,0,0,1,1,39,,,,,,,132.8148487500148,132.8148487500148,132.91764895801316,133.13504429199384,133.36836487500113,133.36836487500113,133.36836487500113,133.36836487500113,133.60169850001694,133.60169850001694,133.60169850001694,133.60169850001694,133.60169850001694,133.7103708749928,0,,,100001,001,2023-04-13_16h07.10.079,DMS_etROI_12-36_stimBlast,2022.2.4,59.60002412050076,
stimBlast2,40,0,0.1,0.4661386045538117,0.7,0.1,95,PRED,12,0.4661386045538117,2,images/picture_3.png,images/picture_1.png,0,"[-11.733433509789462, 11.733433509789464]",-11.733433509789462,11.733433509789464,images/picture_2.png,1,"[11.733433509789462, -11.733433509789466]",11.733433509789462,-11.733433509789464,images/picture_3.png,2,"[-11.733433509789466, -11.733433509789462]",-11.733433509789464,-11.733433509789462,images/picture_3.png,2,"[-11.733433509789466, -11.733433509789462]","[-11.733433509789466, -11.733433509789462]","[-11.733433509789466, -11.733433509789462]",0.1,0.4661386045538117,0.5661386045538117,0.23386139544618825,0.7999999999999999,0.3161386045538117,0,0.8999999999999999,0.7999999999999999,0.1,2,0,2,0,0,2,2,15,,,,,,,133.7103708749928,133.7103708749928,133.81821816699812,134.03449320798973,134.2679143330024,134.2679143330024,134.2679143330024,134.2679143330024,134.50149770799908,134.50149770799908,134.50149770799908,134.50149770799908,134.50149770799908,134.61130583300837,0,,,100001,001,2023-04-13_16h07.10.079,DMS_etROI_12-36_stimBlast,2022.2.4,59.60002412050076,
stimBlast2,40,0,0.1,0.4661386045538117,0.7,0.1,86,PRED,12,0.4661386045538117,2,images/picture_3.png,images/picture_1.png,0,"[11.733433509789464, 11.733433509789462]",11.733433509789464,11.733433509789462,images/picture_2.png,1,"[-11.733433509789466, -11.733433509789462]",-11.733433509789464,-11.733433509789462,images/picture_3.png,2,"[11.733433509789462, -11.733433509789466]",11.733433509789462,-11.733433509789464,images/picture_3.png,2,"[11.733433509789462, -11.733433509789466]","[11.733433509789462, -11.733433509789466]","[11.733433509789462, -11.733433509789466]",0.1,0.4661386045538117,0.5661386045538117,0.23386139544618825,0.7999999999999999,0.3161386045538117,0,0.8999999999999999,0.7999999999999999,0.1,2,0,2,0,0,3,3,6,,,,,,,134.61130583300837,134.61130583300837,134.71824149999884,134.93436158300028,135.1671820830088,135.1671820830088,135.1671820830088,135.1671820830088,135.4007480420114,135.4007480420114,135.4007480420114,135.4007480420114,135.4007480420114,135.50025741700665,0,,,100001,001,2023-04-13_16h07.10.079,DMS_etROI_12-36_stimBlast,2022.2.4,59.60002412050076,
stimBlast2,40,0,0.1,0.4661386045538117,0.7,0.1,115,PRED,12,0.4661386045538117,2,images/picture_3.png,images/picture_1.png,0,"[11.733433509789462, -11.733433509789466]",11.733433509789462,-11.733433509789464,images/picture_2.png,1,"[11.733433509789464, 11.733433509789462]",11.733433509789464,11.733433509789462,images/picture_3.png,2,"[-11.733433509789462, 11.733433509789464]",-11.733433509789462,11.733433509789464,images/picture_3.png,2,"[-11.733433509789462, 11.733433509789464]","[-11.733433509789462, 11.733433509789464]","[-11.733433509789462, 11.733433509789464]",0.1,0.4661386045538117,0.5661386045538117,0.23386139544618825,0.7999999999999999,0.3161386045538117,0,0.8999999999999999,0.7999999999999999,0.1,2,0,2,0,0,4,4,35,,,,,,,135.50025741700665,135.50025741700665,135.60030383299454,135.81705058299121,136.05051741699572,136.05051741699572,136.05051741699572,136.05051741699572,136.28437766700517,136.28437766700517,136.28437766700517,136.28437766700517,136.28437766700517,136.39438450001762,0,,,100001,001,2023-04-13_16h07.10.079,DMS_etROI_12-36_stimBlast,2022.2.4,59.60002412050076,
stimBlast2,40,0,0.1,0.4661386045538117,0.7,0.1,99,PRED,12,0.4661386045538117,2,images/picture_3.png,images/picture_1.png,0,"[-11.733433509789462, 11.733433509789464]",-11.733433509789462,11.733433509789464,images/picture_2.png,1,"[-11.733433509789466, -11.733433509789462]",-11.733433509789464,-11.733433509789462,images/picture_3.png,2,"[11.733433509789464, 11.733433509789462]",11.733433509789464,11.733433509789462,images/picture_3.png,2,"[11.733433509789464, 11.733433509789462]","[11.733433509789464, 11.733433509789462]","[11.733433509789464, 11.733433509789462]",0.1,0.4661386045538117,0.5661386045538117,0.23386139544618825,0.7999999999999999,0.3161386045538117,0,0.8999999999999999,0.7999999999999999,0.1,2,0,2,0,0,5,5,19,,,,,,,136.39438450001762,136.39438450001762,136.50109325000085,136.71811691700714,136.95156716700876,136.95156716700876,136.95156716700876,136.95156716700876,137.1847957080172,137.20147595799062,137.20147595799062,137.20147595799062,137.20147595799062,137.29376237498946,0,,,100001,001,2023-04-13_16h07.10.079,DMS_etROI_12-36_stimBlast,2022.2.4,59.60002412050076,
stimBlast2,40,0,0.1,0.4661386045538117,0.7,0.1,101,PRED,12,0.4661386045538117,2,images/picture_3.png,images/picture_1.png,0,"[11.733433509789462, -11.733433509789466]",11.733433509789462,-11.733433509789464,images/picture_2.png,1,"[-11.733433509789462, 11.733433509789464]",-11.733433509789462,11.733433509789464,images/picture_3.png,2,"[11.733433509789464, 11.733433509789462]",11.733433509789464,11.733433509789462,images/picture_3.png,2,"[11.733433509789464, 11.733433509789462]","[11.733433509789464, 11.733433509789462]","[11.733433509789464, 11.733433509789462]",0.1,0.4661386045538117,0.5661386045538117,0.23386139544618825,0.7999999999999999,0.3161386045538117,0,0.8999999999999999,0.7999999999999999,0.1,2,0,2,0,0,6,6,21,,,,,,,137.29376237498946,137.29376237498946,137.40127333300188,137.6179282499943,137.85163908300456,137.85163908300456,137.85163908300456,137.85163908300456,138.08454054201138,138.08454054201138,138.08454054201138,138.08454054201138,138.08454054201138,138.19401050001034,0,,,100001,001,2023-04-13_16h07.10.079,DMS_etROI_12-36_stimBlast,2022.2.4,59.60002412050076,
stimBlast2,40,0,0.1,0.4661386045538117,0.7,0.1,84,PRED,12,0.4661386045538117,2,images/picture_3.png,images/picture_1.png,0,"[11.733433509789464, 11.733433509789462]",11.733433509789464,11.733433509789462,images/picture_2.png,1,"[-11.733433509789462, 11.733433509789464]",-11.733433509789462,11.733433509789464,images/picture_3.png,2,"[11.733433509789462, -11.733433509789466]",11.733433509789462,-11.733433509789464,images/picture_3.png,2,"[11.733433509789462, -11.733433509789466]","[11.733433509789462, -11.733433509789466]","[11.733433509789462, -11.733433509789466]",0.1,0.4661386045538117,0.5661386045538117,0.23386139544618825,0.7999999999999999,0.3161386045538117,0,0.8999999999999999,0.7999999999999999,0.1,2,0,2,0,0,7,7,4,,,,,,,138.19401050001034,138.19401050001034,138.30131804200937,138.51739033299964,138.7516037079913,138.7516037079913,138.7516037079913,138.7516037079913,138.9845622080029,138.9845622080029,138.9845622080029,138.9845622080029,138.9845622080029,139.0949454169895,0,,,100001,001,2023-04-13_16h07.10.079,DMS_etROI_12-36_stimBlast,2022.2.4,59.60002412050076,
stimBlast2,40,0,0.1,0.4661386045538117,0.7,0.1,97,PRED,12,0.4661386045538117,2,images/picture_3.png,images/picture_1.png,0,"[11.733433509789462, -11.733433509789466]",11.733433509789462,-11.733433509789464,images/picture_2.png,1,"[-11.733433509789462, 11.733433509789464]",-11.733433509789462,11.733433509789464,images/picture_3.png,2,"[11.733433509789464, 11.733433509789462]",11.733433509789464,11.733433509789462,images/picture_3.png,2,"[11.733433509789464, 11.733433509789462]","[11.733433509789464, 11.733433509789462]","[11.733433509789464, 11.733433509789462]",0.1,0.4661386045538117,0.5661386045538117,0.23386139544618825,0.7999999999999999,0.3161386045538117,0,0.8999999999999999,0.7999999999999999,0.1,2,0,2,0,0,8,8,17,,,,,,,139.0949454169895,139.0949454169895,139.20138137499453,139.41803412500303,139.65136791701661,139.65136791701661,139.65136791701661,139.65136791701661,139.8846304170147,139.8846304170147,139.8846304170147,139.8846304170147,139.8846304170147,139.99377058300888,0,,,100001,001,2023-04-13_16h07.10.079,DMS_etROI_12-36_stimBlast,2022.2.4,59.60002412050076,
