trial_count,blockType,blockNum,delay_time,stimImage_i,stimImage,responseImage1,responseImage1_i,responseImage1_pos,responseImage1_X,responseImage1_Y,responseImage2,responseImage2_i,responseImage2_pos,responseImage2_X,responseImage2_Y,responseImage3,responseImage3_i,responseImage3_pos,responseImage3_X,responseImage3_Y,cue_onset,cue_dur,delay_onset,delay_dur,resp_onset,resp_dur,rest_onset,rest_dur,circle_dur,circle_onset,blocks.thisRepN,blocks.thisTrialN,blocks.thisN,blocks.thisIndex,trials.thisRepN,trials.thisTrialN,trials.thisN,trials.thisIndex,key_resp.started,text.started,key_resp.keys,key_resp.rt,text_2.started,text_2.stopped,etRecord.started,sample.started,Delay.started,sample.stopped,Delay.stopped,Response_1.started,Response_2.started,Response_3.started,polygon.started,Response_1.stopped,Response_2.stopped,Response_3.stopped,etRecord.stopped,polygon.stopped,participant,session,date,expName,psychopyVersion,frameRate,
,,,,,,,,,,,,,,,,,,,,,,,,,,,,,,,,,,,,,,,59.85612120899896,59.85612120899896,t,74.23569195799791,,,,,,,,,,,,,,,,,200001,002,2023-03-10_12h05.14.516,DMS_BEST_eyetracking_DAN_base_12-36_looped_10minWORKING,2022.2.4,None,
1,PRED,12,1.110778577677167,1,images/picture_2.png,images/picture_1.png,0,"[-11.733433509789466, -11.733433509789462]",-11.733433509789464,-11.733433509789462,images/picture_2.png,1,"[11.733433509789462, -11.733433509789466]",11.733433509789462,-11.733433509789464,images/picture_3.png,2,"[-11.733433509789462, 11.733433509789464]",-11.733433509789462,11.733433509789464,0,1,1,1.110778577677167,2.1107785776771677,0.889221422322833,3,1,1.8607785776771677,0,0,0,0,0,0,0,0,1,,,,,134.09980533400085,146.12571529200068,,,,,,,,,,,,,,,200001,002,2023-03-10_12h05.14.516,DMS_BEST_eyetracking_DAN_base_12-36_looped_10minWORKING,2022.2.4,None,
1,PRED,12,1.110778577677167,1,images/picture_2.png,images/picture_1.png,0,"[-11.733433509789466, -11.733433509789462]",-11.733433509789464,-11.733433509789462,images/picture_2.png,1,"[11.733433509789462, -11.733433509789466]",11.733433509789462,-11.733433509789464,images/picture_3.png,2,"[-11.733433509789462, 11.733433509789464]",-11.733433509789462,11.733433509789464,0,1,1,1.110778577677167,2.1107785776771677,0.889221422322833,3,1,1.8607785776771677,0,0,0,0,0,0,0,0,1,,,,,,,0.005490083000040613,146.12571529200068,146.12571529200068,147.13385924999966,148.00046054199993,148.23329445900163,148.23329445900163,148.23329445900163,149.11964162499862,149.133704459,149.133704459,149.133704459,4.0097098750011355,150.15336070899866,200001,002,2023-03-10_12h05.14.516,DMS_BEST_eyetracking_DAN_base_12-36_looped_10minWORKING,2022.2.4,None,
3,PRED,12,0.7916419347565389,1,images/picture_2.png,images/picture_1.png,0,"[-11.733433509789462, 11.733433509789464]",-11.733433509789462,11.733433509789464,images/picture_2.png,1,"[11.733433509789462, -11.733433509789466]",11.733433509789462,-11.733433509789464,images/picture_3.png,2,"[-11.733433509789466, -11.733433509789462]",-11.733433509789464,-11.733433509789462,0,1,1,0.7916419347565389,1.7916419347565389,1.2083580652434611,3,1,1.5416419347565389,0,0,0,0,0,0,1,1,3,,,,,,,,,,,,,,,,,,,,,200001,002,2023-03-10_12h05.14.516,DMS_BEST_eyetracking_DAN_base_12-36_looped_10minWORKING,2022.2.4,None,
3,PRED,12,0.7916419347565389,1,images/picture_2.png,images/picture_1.png,0,"[-11.733433509789462, 11.733433509789464]",-11.733433509789462,11.733433509789464,images/picture_2.png,1,"[11.733433509789462, -11.733433509789466]",11.733433509789462,-11.733433509789464,images/picture_3.png,2,"[-11.733433509789466, -11.733433509789462]",-11.733433509789464,-11.733433509789462,0,1,1,0.7916419347565389,1.7916419347565389,1.2083580652434611,3,1,1.5416419347565389,0,0,0,0,0,0,1,1,3,,,,,,,0.004991124998923624,150.15336070899866,150.15336070899866,151.16680175000147,151.7005420839996,151.91982016700058,151.91982016700058,151.91982016700058,153.13380437500018,153.13380437500018,153.13380437500018,153.13380437500018,4.02980345800097,154.13394766700003,200001,002,2023-03-10_12h05.14.516,DMS_BEST_eyetracking_DAN_base_12-36_looped_10minWORKING,2022.2.4,None,
0,PRED,12,0.9093066685123388,1,images/picture_2.png,images/picture_1.png,0,"[-11.733433509789462, 11.733433509789464]",-11.733433509789462,11.733433509789464,images/picture_2.png,1,"[-11.733433509789466, -11.733433509789462]",-11.733433509789464,-11.733433509789462,images/picture_3.png,2,"[11.733433509789464, 11.733433509789462]",11.733433509789464,11.733433509789462,0,1,1,0.9093066685123388,1.9093066685123388,1.0906933314876612,3,1,1.6593066685123388,0,0,0,0,0,0,2,2,0,,,,,,,,,,,,,,,,,,,,,200001,002,2023-03-10_12h05.14.516,DMS_BEST_eyetracking_DAN_base_12-36_looped_10minWORKING,2022.2.4,None,
0,PRED,12,0.9093066685123388,1,images/picture_2.png,images/picture_1.png,0,"[-11.733433509789462, 11.733433509789464]",-11.733433509789462,11.733433509789464,images/picture_2.png,1,"[-11.733433509789466, -11.733433509789462]",-11.733433509789464,-11.733433509789462,images/picture_3.png,2,"[11.733433509789464, 11.733433509789462]",11.733433509789464,11.733433509789462,0,1,1,0.9093066685123388,1.9093066685123388,1.0906933314876612,3,1,1.6593066685123388,0,0,0,0,0,0,2,2,0,,,,,,,0.005029125000874046,154.1870122500004,154.1870122500004,155.20049183399897,155.8531798340009,156.0670393750006,156.0670393750006,156.0670393750006,157.167238334001,157.167238334001,157.167238334001,157.167238334001,4.029622291000123,158.16707291700004,200001,002,2023-03-10_12h05.14.516,DMS_BEST_eyetracking_DAN_base_12-36_looped_10minWORKING,2022.2.4,None,
6,PRED,12,0.9379883892886428,1,images/picture_2.png,images/picture_1.png,0,"[11.733433509789462, -11.733433509789466]",11.733433509789462,-11.733433509789464,images/picture_2.png,1,"[-11.733433509789466, -11.733433509789462]",-11.733433509789464,-11.733433509789462,images/picture_3.png,2,"[11.733433509789464, 11.733433509789462]",11.733433509789464,11.733433509789462,0,1,1,0.9379883892886428,1.937988389288643,1.062011610711357,3,1,1.687988389288643,0,0,0,0,0,0,3,3,6,,,,,,,,,,,,,,,,,,,,,200001,002,2023-03-10_12h05.14.516,DMS_BEST_eyetracking_DAN_base_12-36_looped_10minWORKING,2022.2.4,None,
6,PRED,12,0.9379883892886428,1,images/picture_2.png,images/picture_1.png,0,"[11.733433509789462, -11.733433509789466]",11.733433509789462,-11.733433509789464,images/picture_2.png,1,"[-11.733433509789466, -11.733433509789462]",-11.733433509789464,-11.733433509789462,images/picture_3.png,2,"[11.733433509789464, 11.733433509789462]",11.733433509789464,11.733433509789462,0,1,1,0.9379883892886428,1.937988389288643,1.062011610711357,3,1,1.687988389288643,0,0,0,0,0,0,3,3,6,,,,,,,0.004816832999495091,158.2205332500016,158.2205332500016,159.23397587499858,159.92002233400126,160.1335641250007,160.1335641250007,160.1335641250007,161.20016374999977,161.20016374999977,161.20016374999977,161.20016374999977,4.031198290998873,162.2005375000008,200001,002,2023-03-10_12h05.14.516,DMS_BEST_eyetracking_DAN_base_12-36_looped_10minWORKING,2022.2.4,None,
7,PRED,12,0.8235411216453041,1,images/picture_2.png,images/picture_1.png,0,"[-11.733433509789466, -11.733433509789462]",-11.733433509789464,-11.733433509789462,images/picture_2.png,1,"[11.733433509789462, -11.733433509789466]",11.733433509789462,-11.733433509789464,images/picture_3.png,2,"[11.733433509789464, 11.733433509789462]",11.733433509789464,11.733433509789462,0,1,1,0.8235411216453041,1.823541121645304,1.176458878354696,3,1,1.573541121645304,0,0,0,0,0,0,4,4,7,,,,,,,,,,,,,,,,,,,,,200001,002,2023-03-10_12h05.14.516,DMS_BEST_eyetracking_DAN_base_12-36_looped_10minWORKING,2022.2.4,None,
7,PRED,12,0.8235411216453041,1,images/picture_2.png,images/picture_1.png,0,"[-11.733433509789466, -11.733433509789462]",-11.733433509789464,-11.733433509789462,images/picture_2.png,1,"[11.733433509789462, -11.733433509789466]",11.733433509789462,-11.733433509789464,images/picture_3.png,2,"[11.733433509789464, 11.733433509789462]",11.733433509789464,11.733433509789462,0,1,1,0.8235411216453041,1.823541121645304,1.176458878354696,3,1,1.573541121645304,0,0,0,0,0,0,4,4,7,,,,,,,0.005071250001492444,162.25392845899842,162.25392845899842,163.26720325000133,163.83391024999946,164.05334583399963,164.05334583399963,164.05334583399963,165.23399637499824,165.23399637499824,165.23399637499824,165.23399637499824,4.0294916670027305,166.23397183400084,200001,002,2023-03-10_12h05.14.516,DMS_BEST_eyetracking_DAN_base_12-36_looped_10minWORKING,2022.2.4,None,
8,PRED,12,1.150981881476493,1,images/picture_2.png,images/picture_1.png,0,"[-11.733433509789462, 11.733433509789464]",-11.733433509789462,11.733433509789464,images/picture_2.png,1,"[11.733433509789462, -11.733433509789466]",11.733433509789462,-11.733433509789464,images/picture_3.png,2,"[11.733433509789464, 11.733433509789462]",11.733433509789464,11.733433509789462,0,1,1,1.150981881476493,2.1509818814764934,0.8490181185235071,3,1,1.9009818814764932,0,0,0,0,0,0,5,5,8,,,,,,,,,,,,,,,,,,,,,200001,002,2023-03-10_12h05.14.516,DMS_BEST_eyetracking_DAN_base_12-36_looped_10minWORKING,2022.2.4,None,
8,PRED,12,1.150981881476493,1,images/picture_2.png,images/picture_1.png,0,"[-11.733433509789462, 11.733433509789464]",-11.733433509789462,11.733433509789464,images/picture_2.png,1,"[11.733433509789462, -11.733433509789466]",11.733433509789462,-11.733433509789464,images/picture_3.png,2,"[11.733433509789464, 11.733433509789462]",11.733433509789464,11.733433509789462,0,1,1,1.150981881476493,2.1509818814764934,0.8490181185235071,3,1,1.9009818814764932,0,0,0,0,0,0,5,5,8,,,,,,,0.004968624998582527,166.28672004200052,166.28672004200052,167.30070283399982,168.20063466699867,168.42008737500146,168.42008737500146,168.42008737500146,169.26728033399922,169.26728033399922,169.26728033399922,169.26728033399922,4.0300234999995155,170.26722233400142,200001,002,2023-03-10_12h05.14.516,DMS_BEST_eyetracking_DAN_base_12-36_looped_10minWORKING,2022.2.4,None,
2,PRED,12,0.8182680001897784,1,images/picture_2.png,images/picture_1.png,0,"[-11.733433509789466, -11.733433509789462]",-11.733433509789464,-11.733433509789462,images/picture_2.png,1,"[11.733433509789462, -11.733433509789466]",11.733433509789462,-11.733433509789464,images/picture_3.png,2,"[11.733433509789464, 11.733433509789462]",11.733433509789464,11.733433509789462,0,1,1,0.8182680001897784,1.8182680001897784,1.1817319998102216,3,1,1.5682680001897784,0,0,0,0,0,0,6,6,2,,,,,,,,,,,,,,,,,,,,,200001,002,2023-03-10_12h05.14.516,DMS_BEST_eyetracking_DAN_base_12-36_looped_10minWORKING,2022.2.4,None,
2,PRED,12,0.8182680001897784,1,images/picture_2.png,images/picture_1.png,0,"[-11.733433509789466, -11.733433509789462]",-11.733433509789464,-11.733433509789462,images/picture_2.png,1,"[11.733433509789462, -11.733433509789466]",11.733433509789462,-11.733433509789464,images/picture_3.png,2,"[11.733433509789464, 11.733433509789462]",11.733433509789464,11.733433509789462,0,1,1,0.8182680001897784,1.8182680001897784,1.1817319998102216,3,1,1.5682680001897784,0,0,0,0,0,0,6,6,2,,,,,,,0.004901874999632128,170.32049295899924,170.32049295899924,171.33374741700027,171.90069433399913,172.12010920900138,172.12010920900138,172.12010920900138,173.30070145900027,173.30070145900027,173.30070145900027,173.30070145900027,4.030739417001314,174.30075987500095,200001,002,2023-03-10_12h05.14.516,DMS_BEST_eyetracking_DAN_base_12-36_looped_10minWORKING,2022.2.4,None,
5,PRED,12,1.1629414822556652,1,images/picture_2.png,images/picture_1.png,0,"[11.733433509789464, 11.733433509789462]",11.733433509789464,11.733433509789462,images/picture_2.png,1,"[-11.733433509789466, -11.733433509789462]",-11.733433509789464,-11.733433509789462,images/picture_3.png,2,"[-11.733433509789462, 11.733433509789464]",-11.733433509789462,11.733433509789464,0,1,1,1.1629414822556652,2.162941482255665,0.8370585177443348,3,1,1.9129414822556647,0,0,0,0,0,0,7,7,5,,,,,,,,,,,,,,,,,,,,,200001,002,2023-03-10_12h05.14.516,DMS_BEST_eyetracking_DAN_base_12-36_looped_10minWORKING,2022.2.4,None,
5,PRED,12,1.1629414822556652,1,images/picture_2.png,images/picture_1.png,0,"[11.733433509789464, 11.733433509789462]",11.733433509789464,11.733433509789462,images/picture_2.png,1,"[-11.733433509789466, -11.733433509789462]",-11.733433509789464,-11.733433509789462,images/picture_3.png,2,"[-11.733433509789462, 11.733433509789464]",-11.733433509789462,11.733433509789464,0,1,1,1.1629414822556652,2.162941482255665,0.8370585177443348,3,1,1.9129414822556647,0,0,0,0,0,0,7,7,5,,,,,,,0.0050299579997954424,174.35403245899943,174.35403245899943,175.36727774999963,176.26724820899835,176.50028216699866,176.50028216699866,176.50028216699866,177.33403175000058,177.33403175000058,177.33403175000058,177.33403175000058,4.029025707997789,178.33398070900148,200001,002,2023-03-10_12h05.14.516,DMS_BEST_eyetracking_DAN_base_12-36_looped_10minWORKING,2022.2.4,None,
4,PRED,12,1.0342263445027982,1,images/picture_2.png,images/picture_1.png,0,"[11.733433509789464, 11.733433509789462]",11.733433509789464,11.733433509789462,images/picture_2.png,1,"[-11.733433509789462, 11.733433509789464]",-11.733433509789462,11.733433509789464,images/picture_3.png,2,"[11.733433509789462, -11.733433509789466]",11.733433509789462,-11.733433509789464,0,1,1,1.0342263445027982,2.034226344502798,0.9657736554972018,3,1,1.7842263445027982,0,0,0,0,0,0,8,8,4,,,,,,,,,,,,,,,,,,,,,200001,002,2023-03-10_12h05.14.516,DMS_BEST_eyetracking_DAN_base_12-36_looped_10minWORKING,2022.2.4,None,
4,PRED,12,1.0342263445027982,1,images/picture_2.png,images/picture_1.png,0,"[11.733433509789464, 11.733433509789462]",11.733433509789464,11.733433509789462,images/picture_2.png,1,"[-11.733433509789462, 11.733433509789464]",-11.733433509789462,11.733433509789464,images/picture_3.png,2,"[11.733433509789462, -11.733433509789466]",11.733433509789462,-11.733433509789464,0,1,1,1.0342263445027982,2.034226344502798,0.9657736554972018,3,1,1.7842263445027982,0,0,0,0,0,0,8,8,4,,,,,,,0.005008083000575425,178.38710766700024,178.38710766700024,179.4006650420015,180.1868954169986,180.4004481669981,180.4004481669981,180.4004481669981,181.36689429200123,181.36689429200123,181.36689429200123,181.36689429200123,4.030156415999954,182.36760950000098,200001,002,2023-03-10_12h05.14.516,DMS_BEST_eyetracking_DAN_base_12-36_looped_10minWORKING,2022.2.4,None,
,,,,,,,,,,,,,,,,,,,,,,,,,,,,,,,0,0,0,0,,,,,,,,,182.42777812499844,194.4541363749995,,,,,,,,,,,,,,,200001,002,2023-03-10_12h05.14.516,DMS_BEST_eyetracking_DAN_base_12-36_looped_10minWORKING,2022.2.4,None,
9,UNPRED,12,0.7205509545877617,1,images/picture_2.png,images/picture_1.png,0,"[11.733433509789464, 11.733433509789462]",11.733433509789464,11.733433509789462,images/picture_2.png,1,"[11.733433509789462, -11.733433509789466]",11.733433509789462,-11.733433509789464,images/picture_3.png,2,"[-11.733433509789462, 11.733433509789464]",-11.733433509789462,11.733433509789464,0,1,1,0.7205509545877617,1.7205509545877615,1.2794490454122385,3,1,1.4705509545877615,0,1,0,1,0,0,0,0,0,,,,,,,,,,,,,,,,,,,,,200001,002,2023-03-10_12h05.14.516,DMS_BEST_eyetracking_DAN_base_12-36_looped_10minWORKING,2022.2.4,None,
9,UNPRED,12,0.7205509545877617,1,images/picture_2.png,images/picture_1.png,0,"[11.733433509789464, 11.733433509789462]",11.733433509789464,11.733433509789462,images/picture_2.png,1,"[11.733433509789462, -11.733433509789466]",11.733433509789462,-11.733433509789464,images/picture_3.png,2,"[-11.733433509789462, 11.733433509789464]",-11.733433509789462,11.733433509789464,0,1,1,0.7205509545877617,1.7205509545877615,1.2794490454122385,3,1,1.4705509545877615,0,1,0,1,0,0,0,0,0,,,,,,,0.003950792000978254,194.4541363749995,194.4541363749995,195.46746270899894,195.9340124170012,196.16722095899968,196.16722095899968,196.16722095899968,197.45397791700088,197.45397791700088,197.45397791700088,197.45397791700088,4.010999209000147,198.48604895899916,200001,002,2023-03-10_12h05.14.516,DMS_BEST_eyetracking_DAN_base_12-36_looped_10minWORKING,2022.2.4,None,
11,UNPRED,12,0.6978323416627173,0,images/picture_1.png,images/picture_1.png,0,"[11.733433509789462, -11.733433509789466]",11.733433509789462,-11.733433509789464,images/picture_2.png,1,"[-11.733433509789462, 11.733433509789464]",-11.733433509789462,11.733433509789464,images/picture_3.png,2,"[11.733433509789464, 11.733433509789462]",11.733433509789464,11.733433509789462,0,1,1,0.6978323416627173,1.6978323416627172,1.3021676583372828,3,1,1.4478323416627172,0,1,0,1,0,0,1,1,2,,,,,,,,,,,,,,,,,,,,,200001,002,2023-03-10_12h05.14.516,DMS_BEST_eyetracking_DAN_base_12-36_looped_10minWORKING,2022.2.4,None,
11,UNPRED,12,0.6978323416627173,0,images/picture_1.png,images/picture_1.png,0,"[11.733433509789462, -11.733433509789466]",11.733433509789462,-11.733433509789464,images/picture_2.png,1,"[-11.733433509789462, 11.733433509789464]",-11.733433509789462,11.733433509789464,images/picture_3.png,2,"[11.733433509789464, 11.733433509789462]",11.733433509789464,11.733433509789462,0,1,1,0.6978323416627173,1.6978323416627172,1.3021676583372828,3,1,1.4478323416627172,0,1,0,1,0,0,1,1,2,,,,,,,0.004565999999613268,198.48604895899916,198.48604895899916,199.50070287500057,199.9340991249992,200.16728774999865,200.16728774999865,200.16728774999865,201.4669500839991,201.4669500839991,201.4669500839991,201.4669500839991,4.029678541999601,202.4672527920011,200001,002,2023-03-10_12h05.14.516,DMS_BEST_eyetracking_DAN_base_12-36_looped_10minWORKING,2022.2.4,None,
12,UNPRED,12,0.5271804159852922,0,images/picture_1.png,images/picture_1.png,0,"[11.733433509789462, -11.733433509789466]",11.733433509789462,-11.733433509789464,images/picture_2.png,1,"[-11.733433509789462, 11.733433509789464]",-11.733433509789462,11.733433509789464,images/picture_3.png,2,"[-11.733433509789466, -11.733433509789462]",-11.733433509789464,-11.733433509789462,0,1,1,0.5271804159852922,1.5271804159852922,1.4728195840147078,3,1,1.2771804159852922,0,1,0,1,0,0,2,2,3,,,,,,,,,,,,,,,,,,,,,200001,002,2023-03-10_12h05.14.516,DMS_BEST_eyetracking_DAN_base_12-36_looped_10minWORKING,2022.2.4,None,
12,UNPRED,12,0.5271804159852922,0,images/picture_1.png,images/picture_1.png,0,"[11.733433509789462, -11.733433509789466]",11.733433509789462,-11.733433509789464,images/picture_2.png,1,"[-11.733433509789462, 11.733433509789464]",-11.733433509789462,11.733433509789464,images/picture_3.png,2,"[-11.733433509789466, -11.733433509789462]",-11.733433509789464,-11.733433509789462,0,1,1,0.5271804159852922,1.5271804159852922,1.4728195840147078,3,1,1.2771804159852922,0,1,0,1,0,0,2,2,3,,,,,,,0.0033289579987467732,202.5008943339999,202.5008943339999,203.50076554200132,203.7869810839984,204.0202602089994,204.0202602089994,204.0202602089994,205.5007537499987,205.5007537499987,205.5007537499987,205.5007537499987,3.99730825000006,206.5205429589987,200001,002,2023-03-10_12h05.14.516,DMS_BEST_eyetracking_DAN_base_12-36_looped_10minWORKING,2022.2.4,None,
14,UNPRED,12,0.7315763215526601,2,images/picture_3.png,images/picture_1.png,0,"[-11.733433509789466, -11.733433509789462]",-11.733433509789464,-11.733433509789462,images/picture_2.png,1,"[-11.733433509789462, 11.733433509789464]",-11.733433509789462,11.733433509789464,images/picture_3.png,2,"[11.733433509789462, -11.733433509789466]",11.733433509789462,-11.733433509789464,0,1,1,0.7315763215526601,1.7315763215526598,1.2684236784473402,3,1,1.4815763215526598,0,1,0,1,0,0,3,3,5,,,,,,,,,,,,,,,,,,,,,200001,002,2023-03-10_12h05.14.516,DMS_BEST_eyetracking_DAN_base_12-36_looped_10minWORKING,2022.2.4,None,
14,UNPRED,12,0.7315763215526601,2,images/picture_3.png,images/picture_1.png,0,"[-11.733433509789466, -11.733433509789462]",-11.733433509789464,-11.733433509789462,images/picture_2.png,1,"[-11.733433509789462, 11.733433509789464]",-11.733433509789462,11.733433509789464,images/picture_3.png,2,"[11.733433509789462, -11.733433509789466]",11.733433509789462,-11.733433509789464,0,1,1,0.7315763215526601,1.7315763215526598,1.2684236784473402,3,1,1.4815763215526598,0,1,0,1,0,0,3,3,5,,,,,,,0.004411207999510225,206.5205429589987,206.5205429589987,207.5340628749982,208.0007283749983,208.2338375420004,208.2338375420004,208.2338375420004,209.50072858400017,209.50072858400017,209.50072858400017,209.50072858400017,4.029532583001128,210.5008040419998,200001,002,2023-03-10_12h05.14.516,DMS_BEST_eyetracking_DAN_base_12-36_looped_10minWORKING,2022.2.4,None,
16,UNPRED,12,0.9646917058275712,2,images/picture_3.png,images/picture_1.png,0,"[-11.733433509789466, -11.733433509789462]",-11.733433509789464,-11.733433509789462,images/picture_2.png,1,"[-11.733433509789462, 11.733433509789464]",-11.733433509789462,11.733433509789464,images/picture_3.png,2,"[11.733433509789464, 11.733433509789462]",11.733433509789464,11.733433509789462,0,1,1,0.9646917058275712,1.9646917058275712,1.0353082941724288,3,1,1.7146917058275712,0,1,0,1,0,0,4,4,7,,,,,,,,,,,,,,,,,,,,,200001,002,2023-03-10_12h05.14.516,DMS_BEST_eyetracking_DAN_base_12-36_looped_10minWORKING,2022.2.4,None,
16,UNPRED,12,0.9646917058275712,2,images/picture_3.png,images/picture_1.png,0,"[-11.733433509789466, -11.733433509789462]",-11.733433509789464,-11.733433509789462,images/picture_2.png,1,"[-11.733433509789462, 11.733433509789464]",-11.733433509789462,11.733433509789464,images/picture_3.png,2,"[11.733433509789464, 11.733433509789462]",11.733433509789464,11.733433509789462,0,1,1,0.9646917058275712,1.9646917058275712,1.0353082941724288,3,1,1.7146917058275712,0,1,0,1,0,0,4,4,7,,,,,,,0.003400375000637723,210.5348492919984,210.5348492919984,211.53368116699858,212.25261574999968,212.50040945900037,212.50040945900037,212.50040945900037,213.5341961669983,213.5341961669983,213.5341961669983,213.5341961669983,3.9968838749991846,214.55357187499976,200001,002,2023-03-10_12h05.14.516,DMS_BEST_eyetracking_DAN_base_12-36_looped_10minWORKING,2022.2.4,None,
13,UNPRED,12,0.748802815145261,2,images/picture_3.png,images/picture_1.png,0,"[-11.733433509789466, -11.733433509789462]",-11.733433509789464,-11.733433509789462,images/picture_2.png,1,"[-11.733433509789462, 11.733433509789464]",-11.733433509789462,11.733433509789464,images/picture_3.png,2,"[11.733433509789464, 11.733433509789462]",11.733433509789464,11.733433509789462,0,1,1,0.748802815145261,1.748802815145261,1.251197184854739,3,1,1.498802815145261,0,1,0,1,0,0,5,5,4,,,,,,,,,,,,,,,,,,,,,200001,002,2023-03-10_12h05.14.516,DMS_BEST_eyetracking_DAN_base_12-36_looped_10minWORKING,2022.2.4,None,
13,UNPRED,12,0.748802815145261,2,images/picture_3.png,images/picture_1.png,0,"[-11.733433509789466, -11.733433509789462]",-11.733433509789464,-11.733433509789462,images/picture_2.png,1,"[-11.733433509789462, 11.733433509789464]",-11.733433509789462,11.733433509789464,images/picture_3.png,2,"[11.733433509789464, 11.733433509789462]",11.733433509789464,11.733433509789462,0,1,1,0.748802815145261,1.748802815145261,1.251197184854739,3,1,1.498802815145261,0,1,0,1,0,0,5,5,4,,,,,,,0.003528541998093715,214.55357187499976,214.55357187499976,215.5675043750016,216.06745387499905,216.28741366699978,216.28741366699978,216.28741366699978,217.5342574589995,217.5534770839986,217.5534770839986,217.5534770839986,4.029648791998625,218.53419383399887,200001,002,2023-03-10_12h05.14.516,DMS_BEST_eyetracking_DAN_base_12-36_looped_10minWORKING,2022.2.4,None,
17,UNPRED,12,0.7705145488928254,0,images/picture_1.png,images/picture_1.png,0,"[11.733433509789462, -11.733433509789466]",11.733433509789462,-11.733433509789464,images/picture_2.png,1,"[11.733433509789464, 11.733433509789462]",11.733433509789464,11.733433509789462,images/picture_3.png,2,"[-11.733433509789462, 11.733433509789464]",-11.733433509789462,11.733433509789464,0,1,1,0.7705145488928254,1.7705145488928251,1.2294854511071749,3,1,1.5205145488928251,0,1,0,1,0,0,6,6,8,,,,,,,,,,,,,,,,,,,,,200001,002,2023-03-10_12h05.14.516,DMS_BEST_eyetracking_DAN_base_12-36_looped_10minWORKING,2022.2.4,None,
17,UNPRED,12,0.7705145488928254,0,images/picture_1.png,images/picture_1.png,0,"[11.733433509789462, -11.733433509789466]",11.733433509789462,-11.733433509789464,images/picture_2.png,1,"[11.733433509789464, 11.733433509789462]",11.733433509789464,11.733433509789462,images/picture_3.png,2,"[-11.733433509789462, 11.733433509789464]",-11.733433509789462,11.733433509789464,0,1,1,0.7705145488928254,1.7705145488928251,1.2294854511071749,3,1,1.5205145488928251,0,1,0,1,0,0,6,6,8,,,,,,,0.004650999999284977,218.58701337499951,218.58701337499951,219.60074874999918,220.12033433399847,220.33380579200093,220.33380579200093,220.33380579200093,221.56743424999877,221.56743424999877,221.56743424999877,221.56743424999877,4.029128750000382,222.56695862500055,200001,002,2023-03-10_12h05.14.516,DMS_BEST_eyetracking_DAN_base_12-36_looped_10minWORKING,2022.2.4,None,
10,UNPRED,12,0.7868018794580365,1,images/picture_2.png,images/picture_1.png,0,"[-11.733433509789466, -11.733433509789462]",-11.733433509789464,-11.733433509789462,images/picture_2.png,1,"[11.733433509789462, -11.733433509789466]",11.733433509789462,-11.733433509789464,images/picture_3.png,2,"[11.733433509789464, 11.733433509789462]",11.733433509789464,11.733433509789462,0,1,1,0.7868018794580365,1.7868018794580365,1.2131981205419635,3,1,1.5368018794580365,0,1,0,1,0,0,7,7,1,,,,,,,,,,,,,,,,,,,,,200001,002,2023-03-10_12h05.14.516,DMS_BEST_eyetracking_DAN_base_12-36_looped_10minWORKING,2022.2.4,None,
10,UNPRED,12,0.7868018794580365,1,images/picture_2.png,images/picture_1.png,0,"[-11.733433509789466, -11.733433509789462]",-11.733433509789464,-11.733433509789462,images/picture_2.png,1,"[11.733433509789462, -11.733433509789466]",11.733433509789462,-11.733433509789464,images/picture_3.png,2,"[11.733433509789464, 11.733433509789462]",11.733433509789464,11.733433509789462,0,1,1,0.7868018794580365,1.7868018794580365,1.2131981205419635,3,1,1.5368018794580365,0,1,0,1,0,0,7,7,1,,,,,,,0.00225279100050102,222.60031408400027,222.60031408400027,223.60079216699887,224.13402045900148,224.38753470899974,224.38753470899974,224.38753470899974,225.60095154200098,225.60095154200098,225.60095154200098,225.60095154200098,3.9994694999986677,226.6201973749994,200001,002,2023-03-10_12h05.14.516,DMS_BEST_eyetracking_DAN_base_12-36_looped_10minWORKING,2022.2.4,None,
15,UNPRED,12,0.9343389751123624,0,images/picture_1.png,images/picture_1.png,0,"[11.733433509789464, 11.733433509789462]",11.733433509789464,11.733433509789462,images/picture_2.png,1,"[-11.733433509789462, 11.733433509789464]",-11.733433509789462,11.733433509789464,images/picture_3.png,2,"[-11.733433509789466, -11.733433509789462]",-11.733433509789464,-11.733433509789462,0,1,1,0.9343389751123624,1.9343389751123623,1.0656610248876377,3,1,1.6843389751123623,0,1,0,1,0,0,8,8,6,,,,,,,,,,,,,,,,,,,,,200001,002,2023-03-10_12h05.14.516,DMS_BEST_eyetracking_DAN_base_12-36_looped_10minWORKING,2022.2.4,None,
15,UNPRED,12,0.9343389751123624,0,images/picture_1.png,images/picture_1.png,0,"[11.733433509789464, 11.733433509789462]",11.733433509789464,11.733433509789462,images/picture_2.png,1,"[-11.733433509789462, 11.733433509789464]",-11.733433509789462,11.733433509789464,images/picture_3.png,2,"[-11.733433509789466, -11.733433509789462]",-11.733433509789464,-11.733433509789462,0,1,1,0.9343389751123624,1.9343389751123623,1.0656610248876377,3,1,1.6843389751123623,0,1,0,1,0,0,8,8,6,,,,,,,0.004726999999547843,226.6201973749994,226.6201973749994,227.63420649999898,228.30045695900117,228.53383612499965,228.53383612499965,228.53383612499965,229.60095245900084,229.60095245900084,229.60095245900084,229.60095245900084,4.0294661250009085,230.6007904170001,200001,002,2023-03-10_12h05.14.516,DMS_BEST_eyetracking_DAN_base_12-36_looped_10minWORKING,2022.2.4,None,
,,,,,,,,,,,,,,,,,,,,,,,,,,,,,,,1,0,1,0,,,,,,,,,230.67512166699817,242.68791150000106,,,,,,,,,,,,,,,200001,002,2023-03-10_12h05.14.516,DMS_BEST_eyetracking_DAN_base_12-36_looped_10minWORKING,2022.2.4,None,
25,PRED,12,0.9566098924491392,0,images/picture_1.png,images/picture_1.png,0,"[-11.733433509789466, -11.733433509789462]",-11.733433509789464,-11.733433509789462,images/picture_2.png,1,"[11.733433509789464, 11.733433509789462]",11.733433509789464,11.733433509789462,images/picture_3.png,2,"[-11.733433509789462, 11.733433509789464]",-11.733433509789462,11.733433509789464,0,1,1,0.9566098924491392,1.956609892449139,1.043390107550861,3,1,1.706609892449139,0,2,0,2,0,0,0,0,7,,,,,,,,,,,,,,,,,,,,,200001,002,2023-03-10_12h05.14.516,DMS_BEST_eyetracking_DAN_base_12-36_looped_10minWORKING,2022.2.4,None,
25,PRED,12,0.9566098924491392,0,images/picture_1.png,images/picture_1.png,0,"[-11.733433509789466, -11.733433509789462]",-11.733433509789464,-11.733433509789462,images/picture_2.png,1,"[11.733433509789464, 11.733433509789462]",11.733433509789464,11.733433509789462,images/picture_3.png,2,"[-11.733433509789462, 11.733433509789464]",-11.733433509789462,11.733433509789464,0,1,1,0.9566098924491392,1.956609892449139,1.043390107550861,3,1,1.706609892449139,0,2,0,2,0,0,0,0,7,,,,,,,0.001382166999974288,242.68791150000106,242.68791150000106,243.70095887500065,244.4009860840015,244.6338419169988,244.6338419169988,244.6338419169988,245.68748733399843,245.68748733399843,245.68748733399843,245.68748733399843,4.007118249999621,246.70192195900017,200001,002,2023-03-10_12h05.14.516,DMS_BEST_eyetracking_DAN_base_12-36_looped_10minWORKING,2022.2.4,None,
26,PRED,12,1.1168163263318718,0,images/picture_1.png,images/picture_1.png,0,"[11.733433509789464, 11.733433509789462]",11.733433509789464,11.733433509789462,images/picture_2.png,1,"[11.733433509789462, -11.733433509789466]",11.733433509789462,-11.733433509789464,images/picture_3.png,2,"[-11.733433509789462, 11.733433509789464]",-11.733433509789462,11.733433509789464,0,1,1,1.1168163263318718,2.116816326331872,0.8831836736681282,3,1,1.866816326331872,0,2,0,2,0,0,1,1,8,,,,,,,,,,,,,,,,,,,,,200001,002,2023-03-10_12h05.14.516,DMS_BEST_eyetracking_DAN_base_12-36_looped_10minWORKING,2022.2.4,None,
26,PRED,12,1.1168163263318718,0,images/picture_1.png,images/picture_1.png,0,"[11.733433509789464, 11.733433509789462]",11.733433509789464,11.733433509789462,images/picture_2.png,1,"[11.733433509789462, -11.733433509789466]",11.733433509789462,-11.733433509789464,images/picture_3.png,2,"[-11.733433509789462, 11.733433509789464]",-11.733433509789462,11.733433509789464,0,1,1,1.1168163263318718,2.116816326331872,0.8831836736681282,3,1,1.866816326331872,0,2,0,2,0,0,1,1,8,,,,,,,0.0036126250015513506,246.70192195900017,246.70192195900017,247.70102150000093,248.56750683399878,248.82091095899887,248.82091095899887,248.82091095899887,249.70099287500125,249.70099287500125,249.70099287500125,249.70099287500125,3.996440042003087,250.70188612499987,200001,002,2023-03-10_12h05.14.516,DMS_BEST_eyetracking_DAN_base_12-36_looped_10minWORKING,2022.2.4,None,
20,PRED,12,0.6147220514190834,0,images/picture_1.png,images/picture_1.png,0,"[11.733433509789464, 11.733433509789462]",11.733433509789464,11.733433509789462,images/picture_2.png,1,"[11.733433509789462, -11.733433509789466]",11.733433509789462,-11.733433509789464,images/picture_3.png,2,"[-11.733433509789466, -11.733433509789462]",-11.733433509789464,-11.733433509789462,0,1,1,0.6147220514190834,1.6147220514190834,1.3852779485809166,3,1,1.3647220514190834,0,2,0,2,0,0,2,2,2,,,,,,,,,,,,,,,,,,,,,200001,002,2023-03-10_12h05.14.516,DMS_BEST_eyetracking_DAN_base_12-36_looped_10minWORKING,2022.2.4,None,
20,PRED,12,0.6147220514190834,0,images/picture_1.png,images/picture_1.png,0,"[11.733433509789464, 11.733433509789462]",11.733433509789464,11.733433509789462,images/picture_2.png,1,"[11.733433509789462, -11.733433509789466]",11.733433509789462,-11.733433509789464,images/picture_3.png,2,"[-11.733433509789466, -11.733433509789462]",-11.733433509789464,-11.733433509789462,0,1,1,0.6147220514190834,1.6147220514190834,1.3852779485809166,3,1,1.3647220514190834,0,2,0,2,0,0,2,2,2,,,,,,,0.0034917090015369467,250.70188612499987,250.70188612499987,251.70094616699862,252.06750725000165,252.31952029199965,252.31952029199965,252.31952029199965,253.70094804199834,253.70094804199834,253.70094804199834,253.70094804199834,3.996856124998885,254.70187033399998,200001,002,2023-03-10_12h05.14.516,DMS_BEST_eyetracking_DAN_base_12-36_looped_10minWORKING,2022.2.4,None,
19,PRED,12,0.6463386697650251,0,images/picture_1.png,images/picture_1.png,0,"[-11.733433509789462, 11.733433509789464]",-11.733433509789462,11.733433509789464,images/picture_2.png,1,"[11.733433509789464, 11.733433509789462]",11.733433509789464,11.733433509789462,images/picture_3.png,2,"[-11.733433509789466, -11.733433509789462]",-11.733433509789464,-11.733433509789462,0,1,1,0.6463386697650251,1.6463386697650249,1.3536613302349751,3,1,1.3963386697650249,0,2,0,2,0,0,3,3,1,,,,,,,,,,,,,,,,,,,,,200001,002,2023-03-10_12h05.14.516,DMS_BEST_eyetracking_DAN_base_12-36_looped_10minWORKING,2022.2.4,None,
19,PRED,12,0.6463386697650251,0,images/picture_1.png,images/picture_1.png,0,"[-11.733433509789462, 11.733433509789464]",-11.733433509789462,11.733433509789464,images/picture_2.png,1,"[11.733433509789464, 11.733433509789462]",11.733433509789464,11.733433509789462,images/picture_3.png,2,"[-11.733433509789466, -11.733433509789462]",-11.733433509789464,-11.733433509789462,0,1,1,0.6463386697650251,1.6463386697650249,1.3536613302349751,3,1,1.3963386697650249,0,2,0,2,0,0,3,3,1,,,,,,,0.003560041997843655,254.70187033399998,254.70187033399998,255.70094416700158,256.1009837499987,256.333965875001,256.333965875001,256.333965875001,257.70093920900035,257.70093920900035,257.70093920900035,257.70093920900035,3.9967025839978305,258.7015505419986,200001,002,2023-03-10_12h05.14.516,DMS_BEST_eyetracking_DAN_base_12-36_looped_10minWORKING,2022.2.4,None,
24,PRED,12,0.7893411275417944,0,images/picture_1.png,images/picture_1.png,0,"[11.733433509789464, 11.733433509789462]",11.733433509789464,11.733433509789462,images/picture_2.png,1,"[-11.733433509789466, -11.733433509789462]",-11.733433509789464,-11.733433509789462,images/picture_3.png,2,"[11.733433509789462, -11.733433509789466]",11.733433509789462,-11.733433509789464,0,1,1,0.7893411275417944,1.7893411275417943,1.2106588724582057,3,1,1.5393411275417943,0,2,0,2,0,0,4,4,6,,,,,,,,,,,,,,,,,,,,,200001,002,2023-03-10_12h05.14.516,DMS_BEST_eyetracking_DAN_base_12-36_looped_10minWORKING,2022.2.4,None,
24,PRED,12,0.7893411275417944,0,images/picture_1.png,images/picture_1.png,0,"[11.733433509789464, 11.733433509789462]",11.733433509789464,11.733433509789462,images/picture_2.png,1,"[-11.733433509789466, -11.733433509789462]",-11.733433509789464,-11.733433509789462,images/picture_3.png,2,"[11.733433509789462, -11.733433509789466]",11.733433509789462,-11.733433509789464,0,1,1,0.7893411275417944,1.7893411275417943,1.2106588724582057,3,1,1.5393411275417943,0,2,0,2,0,0,4,4,6,,,,,,,0.003433207999478327,258.7015505419986,258.7015505419986,259.70095183399826,260.2535445419999,260.4872546250008,260.4872546250008,260.4872546250008,261.70097958399856,261.70097958399856,261.70097958399856,261.70097958399856,3.996237707997352,262.7004053749988,200001,002,2023-03-10_12h05.14.516,DMS_BEST_eyetracking_DAN_base_12-36_looped_10minWORKING,2022.2.4,None,
22,PRED,12,0.9367482526451444,0,images/picture_1.png,images/picture_1.png,0,"[-11.733433509789466, -11.733433509789462]",-11.733433509789464,-11.733433509789462,images/picture_2.png,1,"[11.733433509789464, 11.733433509789462]",11.733433509789464,11.733433509789462,images/picture_3.png,2,"[-11.733433509789462, 11.733433509789464]",-11.733433509789462,11.733433509789464,0,1,1,0.9367482526451444,1.9367482526451445,1.0632517473548555,3,1,1.6867482526451445,0,2,0,2,0,0,5,5,4,,,,,,,,,,,,,,,,,,,,,200001,002,2023-03-10_12h05.14.516,DMS_BEST_eyetracking_DAN_base_12-36_looped_10minWORKING,2022.2.4,None,
22,PRED,12,0.9367482526451444,0,images/picture_1.png,images/picture_1.png,0,"[-11.733433509789466, -11.733433509789462]",-11.733433509789464,-11.733433509789462,images/picture_2.png,1,"[11.733433509789464, 11.733433509789462]",11.733433509789464,11.733433509789462,images/picture_3.png,2,"[-11.733433509789462, 11.733433509789464]",-11.733433509789462,11.733433509789464,0,1,1,0.9367482526451444,1.9367482526451445,1.0632517473548555,3,1,1.6867482526451445,0,2,0,2,0,0,5,5,4,,,,,,,0.0014501669975288678,262.7004053749988,262.7004053749988,263.70083774999875,264.40095562499846,264.6341201670002,264.6341201670002,264.6341201670002,265.7009980420007,265.7009980420007,265.7009980420007,265.7009980420007,3.9982863339973846,266.72039824999956,200001,002,2023-03-10_12h05.14.516,DMS_BEST_eyetracking_DAN_base_12-36_looped_10minWORKING,2022.2.4,None,
18,PRED,12,1.1863894687270877,0,images/picture_1.png,images/picture_1.png,0,"[11.733433509789462, -11.733433509789466]",11.733433509789462,-11.733433509789464,images/picture_2.png,1,"[11.733433509789464, 11.733433509789462]",11.733433509789464,11.733433509789462,images/picture_3.png,2,"[-11.733433509789462, 11.733433509789464]",-11.733433509789462,11.733433509789464,0,1,1,1.1863894687270877,2.1863894687270884,0.813610531272912,3,1,1.9363894687270882,0,2,0,2,0,0,6,6,0,,,,,,,,,,,,,,,,,,,,,200001,002,2023-03-10_12h05.14.516,DMS_BEST_eyetracking_DAN_base_12-36_looped_10minWORKING,2022.2.4,None,
18,PRED,12,1.1863894687270877,0,images/picture_1.png,images/picture_1.png,0,"[11.733433509789462, -11.733433509789466]",11.733433509789462,-11.733433509789464,images/picture_2.png,1,"[11.733433509789464, 11.733433509789462]",11.733433509789464,11.733433509789462,images/picture_3.png,2,"[-11.733433509789462, 11.733433509789464]",-11.733433509789462,11.733433509789464,0,1,1,1.1863894687270877,2.1863894687270884,0.813610531272912,3,1,1.9363894687270882,0,2,0,2,0,0,6,6,0,,,,,,,0.003606042002502363,266.72039824999956,266.72039824999956,267.73425766700166,268.6677066250013,268.8876933339998,268.8876933339998,268.8876933339998,269.700956708999,269.700956708999,269.700956708999,269.700956708999,4.029729875001067,270.7010549170009,200001,002,2023-03-10_12h05.14.516,DMS_BEST_eyetracking_DAN_base_12-36_looped_10minWORKING,2022.2.4,None,
21,PRED,12,0.9650646687868438,0,images/picture_1.png,images/picture_1.png,0,"[11.733433509789464, 11.733433509789462]",11.733433509789464,11.733433509789462,images/picture_2.png,1,"[11.733433509789462, -11.733433509789466]",11.733433509789462,-11.733433509789464,images/picture_3.png,2,"[-11.733433509789462, 11.733433509789464]",-11.733433509789462,11.733433509789464,0,1,1,0.9650646687868438,1.965064668786844,1.0349353312131562,3,1,1.7150646687868438,0,2,0,2,0,0,7,7,3,,,,,,,,,,,,,,,,,,,,,200001,002,2023-03-10_12h05.14.516,DMS_BEST_eyetracking_DAN_base_12-36_looped_10minWORKING,2022.2.4,None,
21,PRED,12,0.9650646687868438,0,images/picture_1.png,images/picture_1.png,0,"[11.733433509789464, 11.733433509789462]",11.733433509789464,11.733433509789462,images/picture_2.png,1,"[11.733433509789462, -11.733433509789466]",11.733433509789462,-11.733433509789464,images/picture_3.png,2,"[-11.733433509789462, 11.733433509789464]",-11.733433509789462,11.733433509789464,0,1,1,0.9650646687868438,1.965064668786844,1.0349353312131562,3,1,1.7150646687868438,0,2,0,2,0,0,7,7,3,,,,,,,0.0035512499998731073,270.7538939170008,270.7538939170008,271.76772695899854,272.46767654200085,272.7005840839993,272.7005840839993,272.7005840839993,273.73393545900035,273.73393545900035,273.73393545900035,273.73393545900035,4.0297517079998215,274.7342839999983,200001,002,2023-03-10_12h05.14.516,DMS_BEST_eyetracking_DAN_base_12-36_looped_10minWORKING,2022.2.4,None,
23,PRED,12,1.0430098730020876,0,images/picture_1.png,images/picture_1.png,0,"[11.733433509789464, 11.733433509789462]",11.733433509789464,11.733433509789462,images/picture_2.png,1,"[-11.733433509789462, 11.733433509789464]",-11.733433509789462,11.733433509789464,images/picture_3.png,2,"[11.733433509789462, -11.733433509789466]",11.733433509789462,-11.733433509789464,0,1,1,1.0430098730020876,2.043009873002088,0.9569901269979124,3,1,1.7930098730020876,0,2,0,2,0,0,8,8,5,,,,,,,,,,,,,,,,,,,,,200001,002,2023-03-10_12h05.14.516,DMS_BEST_eyetracking_DAN_base_12-36_looped_10minWORKING,2022.2.4,None,
23,PRED,12,1.0430098730020876,0,images/picture_1.png,images/picture_1.png,0,"[11.733433509789464, 11.733433509789462]",11.733433509789464,11.733433509789462,images/picture_2.png,1,"[-11.733433509789462, 11.733433509789464]",-11.733433509789462,11.733433509789464,images/picture_3.png,2,"[11.733433509789462, -11.733433509789466]",11.733433509789462,-11.733433509789464,0,1,1,1.0430098730020876,2.043009873002088,0.9569901269979124,3,1,1.7930098730020876,0,2,0,2,0,0,8,8,5,,,,,,,0.00360204200114822,274.7870764170002,274.7870764170002,275.80104341699916,276.58718783400036,276.8006987500012,276.8006987500012,276.8006987500012,277.76774520899926,277.76774520899926,277.76774520899926,277.76774520899926,4.030003375002707,278.7676750419996,200001,002,2023-03-10_12h05.14.516,DMS_BEST_eyetracking_DAN_base_12-36_looped_10minWORKING,2022.2.4,None,
,,,,,,,,,,,,,,,,,,,,,,,,,,,,,,,2,0,2,0,,,,,,,,,278.8546506249986,290.88759720899907,,,,,,,,,,,,,,,200001,002,2023-03-10_12h05.14.516,DMS_BEST_eyetracking_DAN_base_12-36_looped_10minWORKING,2022.2.4,None,
34,UNPRED,12,0.6727186859188239,0,images/picture_1.png,images/picture_1.png,0,"[11.733433509789462, -11.733433509789466]",11.733433509789462,-11.733433509789464,images/picture_2.png,1,"[-11.733433509789466, -11.733433509789462]",-11.733433509789464,-11.733433509789462,images/picture_3.png,2,"[-11.733433509789462, 11.733433509789464]",-11.733433509789462,11.733433509789464,0,1,1,0.6727186859188239,1.672718685918824,1.327281314081176,3,1,1.422718685918824,0,3,0,3,0,0,0,0,7,,,,,,,,,,,,,,,,,,,,,200001,002,2023-03-10_12h05.14.516,DMS_BEST_eyetracking_DAN_base_12-36_looped_10minWORKING,2022.2.4,None,
34,UNPRED,12,0.6727186859188239,0,images/picture_1.png,images/picture_1.png,0,"[11.733433509789462, -11.733433509789466]",11.733433509789462,-11.733433509789464,images/picture_2.png,1,"[-11.733433509789466, -11.733433509789462]",-11.733433509789464,-11.733433509789462,images/picture_3.png,2,"[-11.733433509789462, 11.733433509789464]",-11.733433509789462,11.733433509789464,0,1,1,0.6727186859188239,1.672718685918824,1.327281314081176,3,1,1.422718685918824,0,3,0,3,0,0,0,0,7,,,,,,,0.002844374997948762,290.88759720899907,290.88759720899907,291.90102545899936,292.3204716250002,292.55441783399874,292.55441783399874,292.55441783399874,293.8864113749987,293.8864113749987,293.8864113749987,293.8864113749987,4.0108284579982865,294.9204050420012,200001,002,2023-03-10_12h05.14.516,DMS_BEST_eyetracking_DAN_base_12-36_looped_10minWORKING,2022.2.4,None,
35,UNPRED,12,0.7782939033803151,1,images/picture_2.png,images/picture_1.png,0,"[-11.733433509789466, -11.733433509789462]",-11.733433509789464,-11.733433509789462,images/picture_2.png,1,"[11.733433509789462, -11.733433509789466]",11.733433509789462,-11.733433509789464,images/picture_3.png,2,"[-11.733433509789462, 11.733433509789464]",-11.733433509789462,11.733433509789464,0,1,1,0.7782939033803151,1.7782939033803151,1.2217060966196849,3,1,1.5282939033803151,0,3,0,3,0,0,1,1,8,,,,,,,,,,,,,,,,,,,,,200001,002,2023-03-10_12h05.14.516,DMS_BEST_eyetracking_DAN_base_12-36_looped_10minWORKING,2022.2.4,None,
35,UNPRED,12,0.7782939033803151,1,images/picture_2.png,images/picture_1.png,0,"[-11.733433509789466, -11.733433509789462]",-11.733433509789464,-11.733433509789462,images/picture_2.png,1,"[11.733433509789462, -11.733433509789466]",11.733433509789462,-11.733433509789464,images/picture_3.png,2,"[-11.733433509789462, 11.733433509789464]",-11.733433509789462,11.733433509789464,0,1,1,0.7782939033803151,1.7782939033803151,1.2217060966196849,3,1,1.5282939033803151,0,3,0,3,0,0,1,1,8,,,,,,,0.005986874999507563,294.9204050420012,294.9204050420012,295.93447016700156,296.45390504199895,296.6675018749993,296.6675018749993,296.6675018749993,297.90103966699826,297.90103966699826,297.90103966699826,297.90103966699826,4.0305712500012305,298.90108899999905,200001,002,2023-03-10_12h05.14.516,DMS_BEST_eyetracking_DAN_base_12-36_looped_10minWORKING,2022.2.4,None,
29,UNPRED,12,1.0893630324264854,1,images/picture_2.png,images/picture_1.png,0,"[11.733433509789464, 11.733433509789462]",11.733433509789464,11.733433509789462,images/picture_2.png,1,"[11.733433509789462, -11.733433509789466]",11.733433509789462,-11.733433509789464,images/picture_3.png,2,"[-11.733433509789462, 11.733433509789464]",-11.733433509789462,11.733433509789464,0,1,1,1.0893630324264854,2.089363032426485,0.9106369675735146,3,1,1.8393630324264847,0,3,0,3,0,0,2,2,2,,,,,,,,,,,,,,,,,,,,,200001,002,2023-03-10_12h05.14.516,DMS_BEST_eyetracking_DAN_base_12-36_looped_10minWORKING,2022.2.4,None,
29,UNPRED,12,1.0893630324264854,1,images/picture_2.png,images/picture_1.png,0,"[11.733433509789464, 11.733433509789462]",11.733433509789464,11.733433509789462,images/picture_2.png,1,"[11.733433509789462, -11.733433509789466]",11.733433509789462,-11.733433509789464,images/picture_3.png,2,"[-11.733433509789462, 11.733433509789464]",-11.733433509789462,11.733433509789464,0,1,1,1.0893630324264854,2.089363032426485,0.9106369675735146,3,1,1.8393630324264847,0,3,0,3,0,0,2,2,2,,,,,,,0.004974874998879386,298.95412758399834,298.95412758399834,299.96778650000124,300.80106075000003,301.0205909590004,301.0205909590004,301.0205909590004,301.93447058400125,301.93447058400125,301.93447058400125,301.93447058400125,4.030315957999846,302.93451608399846,200001,002,2023-03-10_12h05.14.516,DMS_BEST_eyetracking_DAN_base_12-36_looped_10minWORKING,2022.2.4,None,
33,UNPRED,12,1.065412642159346,0,images/picture_1.png,images/picture_1.png,0,"[-11.733433509789462, 11.733433509789464]",-11.733433509789462,11.733433509789464,images/picture_2.png,1,"[11.733433509789464, 11.733433509789462]",11.733433509789464,11.733433509789462,images/picture_3.png,2,"[11.733433509789462, -11.733433509789466]",11.733433509789462,-11.733433509789464,0,1,1,1.065412642159346,2.065412642159346,0.934587357840654,3,1,1.815412642159346,0,3,0,3,0,0,3,3,6,,,,,,,,,,,,,,,,,,,,,200001,002,2023-03-10_12h05.14.516,DMS_BEST_eyetracking_DAN_base_12-36_looped_10minWORKING,2022.2.4,None,
33,UNPRED,12,1.065412642159346,0,images/picture_1.png,images/picture_1.png,0,"[-11.733433509789462, 11.733433509789464]",-11.733433509789462,11.733433509789464,images/picture_2.png,1,"[11.733433509789464, 11.733433509789462]",11.733433509789464,11.733433509789462,images/picture_3.png,2,"[11.733433509789462, -11.733433509789466]",11.733433509789462,-11.733433509789464,0,1,1,1.065412642159346,2.065412642159346,0.934587357840654,3,1,1.815412642159346,0,3,0,3,0,0,3,3,6,,,,,,,0.004665083997679176,302.9872174170014,302.9872174170014,304.0008216669994,304.80123554199963,305.0344359589981,305.0344359589981,305.0344359589981,305.9677759590013,305.9677759590013,305.9677759590013,305.9677759590013,4.029812624998158,306.96775604199865,200001,002,2023-03-10_12h05.14.516,DMS_BEST_eyetracking_DAN_base_12-36_looped_10minWORKING,2022.2.4,None,
32,UNPRED,12,1.1973979305209994,0,images/picture_1.png,images/picture_1.png,0,"[-11.733433509789466, -11.733433509789462]",-11.733433509789464,-11.733433509789462,images/picture_2.png,1,"[-11.733433509789462, 11.733433509789464]",-11.733433509789462,11.733433509789464,images/picture_3.png,2,"[11.733433509789462, -11.733433509789466]",11.733433509789462,-11.733433509789464,0,1,1,1.1973979305209994,2.1973979305209994,0.8026020694790006,3,1,1.9473979305209996,0,3,0,3,0,0,4,4,5,,,,,,,,,,,,,,,,,,,,,200001,002,2023-03-10_12h05.14.516,DMS_BEST_eyetracking_DAN_base_12-36_looped_10minWORKING,2022.2.4,None,
32,UNPRED,12,1.1973979305209994,0,images/picture_1.png,images/picture_1.png,0,"[-11.733433509789466, -11.733433509789462]",-11.733433509789464,-11.733433509789462,images/picture_2.png,1,"[-11.733433509789462, 11.733433509789464]",-11.733433509789462,11.733433509789464,images/picture_3.png,2,"[11.733433509789462, -11.733433509789466]",11.733433509789462,-11.733433509789464,0,1,1,1.1973979305209994,2.1973979305209994,0.8026020694790006,3,1,1.9473979305209996,0,3,0,3,0,0,4,4,5,,,,,,,0.003543749997334089,307.02121966699997,307.02121966699997,308.03444120900167,308.9679179170016,309.20120029199825,309.20120029199825,309.20120029199825,310.00118129199836,310.00118129199836,310.00118129199836,310.00118129199836,4.029496957999072,311.0012092090001,200001,002,2023-03-10_12h05.14.516,DMS_BEST_eyetracking_DAN_base_12-36_looped_10minWORKING,2022.2.4,None,
27,UNPRED,12,0.6629909273579256,1,images/picture_2.png,images/picture_1.png,0,"[-11.733433509789466, -11.733433509789462]",-11.733433509789464,-11.733433509789462,images/picture_2.png,1,"[-11.733433509789462, 11.733433509789464]",-11.733433509789462,11.733433509789464,images/picture_3.png,2,"[11.733433509789462, -11.733433509789466]",11.733433509789462,-11.733433509789464,0,1,1,0.6629909273579256,1.6629909273579258,1.3370090726420742,3,1,1.4129909273579258,0,3,0,3,0,0,5,5,0,,,,,,,,,,,,,,,,,,,,,200001,002,2023-03-10_12h05.14.516,DMS_BEST_eyetracking_DAN_base_12-36_looped_10minWORKING,2022.2.4,None,
27,UNPRED,12,0.6629909273579256,1,images/picture_2.png,images/picture_1.png,0,"[-11.733433509789466, -11.733433509789462]",-11.733433509789464,-11.733433509789462,images/picture_2.png,1,"[-11.733433509789462, 11.733433509789464]",-11.733433509789462,11.733433509789464,images/picture_3.png,2,"[11.733433509789462, -11.733433509789466]",11.733433509789462,-11.733433509789464,0,1,1,0.6629909273579256,1.6629909273579258,1.3370090726420742,3,1,1.4129909273579258,0,3,0,3,0,0,5,5,0,,,,,,,0.0060977079992881045,311.0541086250014,311.0541086250014,312.06776929199987,312.4678206669996,312.70096783400004,312.70096783400004,312.70096783400004,314.03404962499917,314.05312687499827,314.05312687499827,314.05312687499827,4.030136582998239,315.0343742090008,200001,002,2023-03-10_12h05.14.516,DMS_BEST_eyetracking_DAN_base_12-36_looped_10minWORKING,2022.2.4,None,
28,UNPRED,12,0.6184282196301647,2,images/picture_3.png,images/picture_1.png,0,"[11.733433509789464, 11.733433509789462]",11.733433509789464,11.733433509789462,images/picture_2.png,1,"[-11.733433509789462, 11.733433509789464]",-11.733433509789462,11.733433509789464,images/picture_3.png,2,"[-11.733433509789466, -11.733433509789462]",-11.733433509789464,-11.733433509789462,0,1,1,0.6184282196301647,1.6184282196301647,1.3815717803698353,3,1,1.3684282196301647,0,3,0,3,0,0,6,6,1,,,,,,,,,,,,,,,,,,,,,200001,002,2023-03-10_12h05.14.516,DMS_BEST_eyetracking_DAN_base_12-36_looped_10minWORKING,2022.2.4,None,
28,UNPRED,12,0.6184282196301647,2,images/picture_3.png,images/picture_1.png,0,"[11.733433509789464, 11.733433509789462]",11.733433509789464,11.733433509789462,images/picture_2.png,1,"[-11.733433509789462, 11.733433509789464]",-11.733433509789462,11.733433509789464,images/picture_3.png,2,"[-11.733433509789466, -11.733433509789462]",-11.733433509789464,-11.733433509789462,0,1,1,0.6184282196301647,1.6184282196301647,1.3815717803698353,3,1,1.3684282196301647,0,3,0,3,0,0,6,6,1,,,,,,,0.003678958000818966,315.06900875000065,315.06900875000065,316.0677530419998,316.43450883400146,316.68741804199817,316.68741804199817,316.68741804199817,318.0680364590007,318.0680364590007,318.0680364590007,318.0680364590007,3.9964172079999116,319.0872847089995,200001,002,2023-03-10_12h05.14.516,DMS_BEST_eyetracking_DAN_base_12-36_looped_10minWORKING,2022.2.4,None,
31,UNPRED,12,0.5661619963756189,0,images/picture_1.png,images/picture_1.png,0,"[-11.733433509789462, 11.733433509789464]",-11.733433509789462,11.733433509789464,images/picture_2.png,1,"[11.733433509789464, 11.733433509789462]",11.733433509789464,11.733433509789462,images/picture_3.png,2,"[-11.733433509789466, -11.733433509789462]",-11.733433509789464,-11.733433509789462,0,1,1,0.5661619963756189,1.5661619963756193,1.4338380036243807,3,1,1.3161619963756193,0,3,0,3,0,0,7,7,4,,,,,,,,,,,,,,,,,,,,,200001,002,2023-03-10_12h05.14.516,DMS_BEST_eyetracking_DAN_base_12-36_looped_10minWORKING,2022.2.4,None,
31,UNPRED,12,0.5661619963756189,0,images/picture_1.png,images/picture_1.png,0,"[-11.733433509789462, 11.733433509789464]",-11.733433509789462,11.733433509789464,images/picture_2.png,1,"[11.733433509789464, 11.733433509789462]",11.733433509789464,11.733433509789462,images/picture_3.png,2,"[-11.733433509789466, -11.733433509789462]",-11.733433509789464,-11.733433509789462,0,1,1,0.5661619963756189,1.5661619963756193,1.4338380036243807,3,1,1.3161619963756193,0,3,0,3,0,0,7,7,4,,,,,,,0.004602416000125231,319.0872847089995,319.0872847089995,320.10086879200026,320.40133437500117,320.634212459001,320.634212459001,320.634212459001,322.0677623750016,322.0677623750016,322.0677623750016,322.0677623750016,4.030691125000885,323.06790545900003,200001,002,2023-03-10_12h05.14.516,DMS_BEST_eyetracking_DAN_base_12-36_looped_10minWORKING,2022.2.4,None,
30,UNPRED,12,1.1841441626424247,0,images/picture_1.png,images/picture_1.png,0,"[11.733433509789464, 11.733433509789462]",11.733433509789464,11.733433509789462,images/picture_2.png,1,"[11.733433509789462, -11.733433509789466]",11.733433509789462,-11.733433509789464,images/picture_3.png,2,"[-11.733433509789462, 11.733433509789464]",-11.733433509789462,11.733433509789464,0,1,1,1.1841441626424247,2.1841441626424247,0.8158558373575753,3,1,1.9341441626424247,0,3,0,3,0,0,8,8,3,,,,,,,,,,,,,,,,,,,,,200001,002,2023-03-10_12h05.14.516,DMS_BEST_eyetracking_DAN_base_12-36_looped_10minWORKING,2022.2.4,None,
30,UNPRED,12,1.1841441626424247,0,images/picture_1.png,images/picture_1.png,0,"[11.733433509789464, 11.733433509789462]",11.733433509789464,11.733433509789462,images/picture_2.png,1,"[11.733433509789462, -11.733433509789466]",11.733433509789462,-11.733433509789464,images/picture_3.png,2,"[-11.733433509789462, 11.733433509789464]",-11.733433509789462,11.733433509789464,0,1,1,1.1841441626424247,2.1841441626424247,0.8158558373575753,3,1,1.9341441626424247,0,3,0,3,0,0,8,8,3,,,,,,,0.0028257079975446686,323.1205603339986,323.1205603339986,324.13406250000116,325.06774704200143,325.28803433400026,325.28803433400026,325.28803433400026,326.1009113750006,326.1009113750006,326.1009113750006,326.1009113750006,4.027900791999855,327.10120774999814,200001,002,2023-03-10_12h05.14.516,DMS_BEST_eyetracking_DAN_base_12-36_looped_10minWORKING,2022.2.4,None,
,,,,,,,,,,,,,,,,,,,,,,,,,,,,,,,3,0,3,0,,,,,,,,,327.1961531249981,339.2211976670005,,,,,,,,,,,,,,,200001,002,2023-03-10_12h05.14.516,DMS_BEST_eyetracking_DAN_base_12-36_looped_10minWORKING,2022.2.4,None,
37,PRED,12,0.7888301412416314,0,images/picture_1.png,images/picture_1.png,0,"[11.733433509789462, -11.733433509789466]",11.733433509789462,-11.733433509789464,images/picture_2.png,1,"[11.733433509789464, 11.733433509789462]",11.733433509789464,11.733433509789462,images/picture_3.png,2,"[-11.733433509789462, 11.733433509789464]",-11.733433509789462,11.733433509789464,0,1,1,0.7888301412416314,1.7888301412416314,1.2111698587583686,3,1,1.5388301412416314,0,4,0,4,0,0,0,0,1,,,,,,,,,,,,,,,,,,,,,200001,002,2023-03-10_12h05.14.516,DMS_BEST_eyetracking_DAN_base_12-36_looped_10minWORKING,2022.2.4,None,
37,PRED,12,0.7888301412416314,0,images/picture_1.png,images/picture_1.png,0,"[11.733433509789462, -11.733433509789466]",11.733433509789462,-11.733433509789464,images/picture_2.png,1,"[11.733433509789464, 11.733433509789462]",11.733433509789464,11.733433509789462,images/picture_3.png,2,"[-11.733433509789462, 11.733433509789464]",-11.733433509789462,11.733433509789464,0,1,1,0.7888301412416314,1.7888301412416314,1.2111698587583686,3,1,1.5388301412416314,0,4,0,4,0,0,0,0,1,,,,,,,0.002830792000168003,339.2211976670005,339.2211976670005,340.2347269999991,340.76797216699924,341.0009780420005,341.0009780420005,341.0009780420005,342.2207740419981,342.2207740419981,342.2207740419981,342.2207740419981,4.011124499997095,343.2540169999993,200001,002,2023-03-10_12h05.14.516,DMS_BEST_eyetracking_DAN_base_12-36_looped_10minWORKING,2022.2.4,None,
43,PRED,12,0.857988717211969,0,images/picture_1.png,images/picture_1.png,0,"[-11.733433509789466, -11.733433509789462]",-11.733433509789464,-11.733433509789462,images/picture_2.png,1,"[11.733433509789464, 11.733433509789462]",11.733433509789464,11.733433509789462,images/picture_3.png,2,"[11.733433509789462, -11.733433509789466]",11.733433509789462,-11.733433509789464,0,1,1,0.857988717211969,1.857988717211969,1.1420112827880309,3,1,1.6079887172119691,0,4,0,4,0,0,1,1,7,,,,,,,,,,,,,,,,,,,,,200001,002,2023-03-10_12h05.14.516,DMS_BEST_eyetracking_DAN_base_12-36_looped_10minWORKING,2022.2.4,None,
43,PRED,12,0.857988717211969,0,images/picture_1.png,images/picture_1.png,0,"[-11.733433509789466, -11.733433509789462]",-11.733433509789464,-11.733433509789462,images/picture_2.png,1,"[11.733433509789464, 11.733433509789462]",11.733433509789464,11.733433509789462,images/picture_3.png,2,"[11.733433509789462, -11.733433509789466]",11.733433509789462,-11.733433509789464,0,1,1,0.857988717211969,1.857988717211969,1.1420112827880309,3,1,1.6079887172119691,0,4,0,4,0,0,1,1,7,,,,,,,0.0034160420000262093,343.2540169999993,343.2540169999993,344.2673960840002,344.8674457089983,345.0863906250015,345.0863906250015,345.0863906250015,346.23452641699987,346.23452641699987,346.23452641699987,346.23452641699987,4.029297209002834,347.2345755839997,200001,002,2023-03-10_12h05.14.516,DMS_BEST_eyetracking_DAN_base_12-36_looped_10minWORKING,2022.2.4,None,
44,PRED,12,0.95627927112268,0,images/picture_1.png,images/picture_1.png,0,"[11.733433509789462, -11.733433509789466]",11.733433509789462,-11.733433509789464,images/picture_2.png,1,"[-11.733433509789462, 11.733433509789464]",-11.733433509789462,11.733433509789464,images/picture_3.png,2,"[11.733433509789464, 11.733433509789462]",11.733433509789464,11.733433509789462,0,1,1,0.95627927112268,1.95627927112268,1.04372072887732,3,1,1.70627927112268,0,4,0,4,0,0,2,2,8,,,,,,,,,,,,,,,,,,,,,200001,002,2023-03-10_12h05.14.516,DMS_BEST_eyetracking_DAN_base_12-36_looped_10minWORKING,2022.2.4,None,
44,PRED,12,0.95627927112268,0,images/picture_1.png,images/picture_1.png,0,"[11.733433509789462, -11.733433509789466]",11.733433509789462,-11.733433509789464,images/picture_2.png,1,"[-11.733433509789462, 11.733433509789464]",-11.733433509789462,11.733433509789464,images/picture_3.png,2,"[11.733433509789464, 11.733433509789462]",11.733433509789464,11.733433509789462,0,1,1,0.95627927112268,1.95627927112268,1.04372072887732,3,1,1.70627927112268,0,4,0,4,0,0,2,2,8,,,,,,,0.00344174999918323,347.26863387499907,347.26863387499907,348.26801287499984,348.9876104169998,349.2209094589998,349.2209094589998,349.2209094589998,350.26795283400133,350.26795283400133,350.26795283400133,350.26795283400133,3.996884583000792,351.26913799999966,200001,002,2023-03-10_12h05.14.516,DMS_BEST_eyetracking_DAN_base_12-36_looped_10minWORKING,2022.2.4,None,
36,PRED,12,0.6388813399939555,0,images/picture_1.png,images/picture_1.png,0,"[-11.733433509789466, -11.733433509789462]",-11.733433509789464,-11.733433509789462,images/picture_2.png,1,"[11.733433509789464, 11.733433509789462]",11.733433509789464,11.733433509789462,images/picture_3.png,2,"[11.733433509789462, -11.733433509789466]",11.733433509789462,-11.733433509789464,0,1,1,0.6388813399939555,1.6388813399939557,1.3611186600060443,3,1,1.3888813399939557,0,4,0,4,0,0,3,3,0,,,,,,,,,,,,,,,,,,,,,200001,002,2023-03-10_12h05.14.516,DMS_BEST_eyetracking_DAN_base_12-36_looped_10minWORKING,2022.2.4,None,
36,PRED,12,0.6388813399939555,0,images/picture_1.png,images/picture_1.png,0,"[-11.733433509789466, -11.733433509789462]",-11.733433509789464,-11.733433509789462,images/picture_2.png,1,"[11.733433509789464, 11.733433509789462]",11.733433509789464,11.733433509789462,images/picture_3.png,2,"[11.733433509789462, -11.733433509789466]",11.733433509789462,-11.733433509789464,0,1,1,0.6388813399939555,1.6388813399939557,1.3611186600060443,3,1,1.3888813399939557,0,4,0,4,0,0,3,3,0,,,,,,,0.0034650419984245673,351.26913799999966,351.26913799999966,352.2679817919998,352.6679662919996,352.90080337499967,352.90080337499967,352.90080337499967,354.2675307919999,354.2675307919999,354.2675307919999,354.2675307919999,3.9956335419992683,355.26731937500153,200001,002,2023-03-10_12h05.14.516,DMS_BEST_eyetracking_DAN_base_12-36_looped_10minWORKING,2022.2.4,None,
38,PRED,12,0.5983467576171997,0,images/picture_1.png,images/picture_1.png,0,"[11.733433509789464, 11.733433509789462]",11.733433509789464,11.733433509789462,images/picture_2.png,1,"[-11.733433509789466, -11.733433509789462]",-11.733433509789464,-11.733433509789462,images/picture_3.png,2,"[11.733433509789462, -11.733433509789466]",11.733433509789462,-11.733433509789464,0,1,1,0.5983467576171997,1.5983467576171997,1.4016532423828003,3,1,1.3483467576171997,0,4,0,4,0,0,4,4,2,,,,,,,,,,,,,,,,,,,,,200001,002,2023-03-10_12h05.14.516,DMS_BEST_eyetracking_DAN_base_12-36_looped_10minWORKING,2022.2.4,None,
38,PRED,12,0.5983467576171997,0,images/picture_1.png,images/picture_1.png,0,"[11.733433509789464, 11.733433509789462]",11.733433509789464,11.733433509789462,images/picture_2.png,1,"[-11.733433509789466, -11.733433509789462]",-11.733433509789464,-11.733433509789462,images/picture_3.png,2,"[11.733433509789462, -11.733433509789466]",11.733433509789462,-11.733433509789464,0,1,1,0.5983467576171997,1.5983467576171997,1.4016532423828003,3,1,1.3483467576171997,0,4,0,4,0,0,4,4,2,,,,,,,0.0014360830027726479,355.26731937500153,355.26731937500153,356.2678580840002,356.62064737499895,356.8678697920004,356.8678697920004,356.8678697920004,358.26799820900123,358.26799820900123,358.26799820900123,358.26799820900123,3.9979855000019597,359.2691526669987,200001,002,2023-03-10_12h05.14.516,DMS_BEST_eyetracking_DAN_base_12-36_looped_10minWORKING,2022.2.4,None,
39,PRED,12,0.8391842621351522,0,images/picture_1.png,images/picture_1.png,0,"[-11.733433509789466, -11.733433509789462]",-11.733433509789464,-11.733433509789462,images/picture_2.png,1,"[11.733433509789462, -11.733433509789466]",11.733433509789462,-11.733433509789464,images/picture_3.png,2,"[-11.733433509789462, 11.733433509789464]",-11.733433509789462,11.733433509789464,0,1,1,0.8391842621351522,1.839184262135152,1.1608157378648478,3,1,1.5891842621351522,0,4,0,4,0,0,5,5,3,,,,,,,,,,,,,,,,,,,,,200001,002,2023-03-10_12h05.14.516,DMS_BEST_eyetracking_DAN_base_12-36_looped_10minWORKING,2022.2.4,None,
39,PRED,12,0.8391842621351522,0,images/picture_1.png,images/picture_1.png,0,"[-11.733433509789466, -11.733433509789462]",-11.733433509789464,-11.733433509789462,images/picture_2.png,1,"[11.733433509789462, -11.733433509789466]",11.733433509789462,-11.733433509789464,images/picture_3.png,2,"[-11.733433509789462, 11.733433509789464]",-11.733433509789462,11.733433509789464,0,1,1,0.8391842621351522,1.839184262135152,1.1608157378648478,3,1,1.5891842621351522,0,4,0,4,0,0,5,5,3,,,,,,,0.003506000000925269,359.2691526669987,359.2691526669987,360.26798425000015,360.8680214999986,361.1011823750014,361.1011823750014,361.1011823750014,362.2679929590013,362.2679929590013,362.2679929590013,362.2679929590013,3.9960725839991937,363.26850820899926,200001,002,2023-03-10_12h05.14.516,DMS_BEST_eyetracking_DAN_base_12-36_looped_10minWORKING,2022.2.4,None,
40,PRED,12,0.9254068933630112,0,images/picture_1.png,images/picture_1.png,0,"[11.733433509789464, 11.733433509789462]",11.733433509789464,11.733433509789462,images/picture_2.png,1,"[11.733433509789462, -11.733433509789466]",11.733433509789462,-11.733433509789464,images/picture_3.png,2,"[-11.733433509789466, -11.733433509789462]",-11.733433509789464,-11.733433509789462,0,1,1,0.9254068933630112,1.9254068933630109,1.074593106636989,3,1,1.6754068933630109,0,4,0,4,0,0,6,6,4,,,,,,,,,,,,,,,,,,,,,200001,002,2023-03-10_12h05.14.516,DMS_BEST_eyetracking_DAN_base_12-36_looped_10minWORKING,2022.2.4,None,
40,PRED,12,0.9254068933630112,0,images/picture_1.png,images/picture_1.png,0,"[11.733433509789464, 11.733433509789462]",11.733433509789464,11.733433509789462,images/picture_2.png,1,"[11.733433509789462, -11.733433509789466]",11.733433509789462,-11.733433509789464,images/picture_3.png,2,"[-11.733433509789466, -11.733433509789462]",-11.733433509789464,-11.733433509789462,0,1,1,0.9254068933630112,1.9254068933630109,1.074593106636989,3,1,1.6754068933630109,0,4,0,4,0,0,6,6,4,,,,,,,0.0034945829975185916,363.26850820899926,363.26850820899926,364.26803904199915,364.9534521249989,365.1863931250009,365.1863931250009,365.1863931250009,366.2680661250015,366.2680661250015,366.2680661250015,366.2680661250015,3.997026000000915,367.26863304200015,200001,002,2023-03-10_12h05.14.516,DMS_BEST_eyetracking_DAN_base_12-36_looped_10minWORKING,2022.2.4,None,
41,PRED,12,0.768400596073769,0,images/picture_1.png,images/picture_1.png,0,"[11.733433509789462, -11.733433509789466]",11.733433509789462,-11.733433509789464,images/picture_2.png,1,"[-11.733433509789462, 11.733433509789464]",-11.733433509789462,11.733433509789464,images/picture_3.png,2,"[-11.733433509789466, -11.733433509789462]",-11.733433509789464,-11.733433509789462,0,1,1,0.768400596073769,1.768400596073769,1.231599403926231,3,1,1.518400596073769,0,4,0,4,0,0,7,7,5,,,,,,,,,,,,,,,,,,,,,200001,002,2023-03-10_12h05.14.516,DMS_BEST_eyetracking_DAN_base_12-36_looped_10minWORKING,2022.2.4,None,
41,PRED,12,0.768400596073769,0,images/picture_1.png,images/picture_1.png,0,"[11.733433509789462, -11.733433509789466]",11.733433509789462,-11.733433509789464,images/picture_2.png,1,"[-11.733433509789462, 11.733433509789464]",-11.733433509789462,11.733433509789464,images/picture_3.png,2,"[-11.733433509789466, -11.733433509789462]",-11.733433509789464,-11.733433509789462,0,1,1,0.768400596073769,1.768400596073769,1.231599403926231,3,1,1.518400596073769,0,4,0,4,0,0,7,7,5,,,,,,,0.003485833000013372,367.26863304200015,367.26863304200015,368.2680500839997,368.8014143750006,369.03434679199927,369.03434679199927,369.03434679199927,370.2679920420014,370.2679920420014,370.2679920420014,370.2679920420014,3.9970128329987347,371.26912900000025,200001,002,2023-03-10_12h05.14.516,DMS_BEST_eyetracking_DAN_base_12-36_looped_10minWORKING,2022.2.4,None,
42,PRED,12,0.5408268719581001,0,images/picture_1.png,images/picture_1.png,0,"[-11.733433509789462, 11.733433509789464]",-11.733433509789462,11.733433509789464,images/picture_2.png,1,"[11.733433509789464, 11.733433509789462]",11.733433509789464,11.733433509789462,images/picture_3.png,2,"[-11.733433509789466, -11.733433509789462]",-11.733433509789464,-11.733433509789462,0,1,1,0.5408268719581001,1.5408268719581002,1.4591731280418998,3,1,1.2908268719581,0,4,0,4,0,0,8,8,6,,,,,,,,,,,,,,,,,,,,,200001,002,2023-03-10_12h05.14.516,DMS_BEST_eyetracking_DAN_base_12-36_looped_10minWORKING,2022.2.4,None,
42,PRED,12,0.5408268719581001,0,images/picture_1.png,images/picture_1.png,0,"[-11.733433509789462, 11.733433509789464]",-11.733433509789462,11.733433509789464,images/picture_2.png,1,"[11.733433509789464, 11.733433509789462]",11.733433509789464,11.733433509789462,images/picture_3.png,2,"[-11.733433509789466, -11.733433509789462]",-11.733433509789464,-11.733433509789462,0,1,1,0.5408268719581001,1.5408268719581002,1.4591731280418998,3,1,1.2908268719581,0,4,0,4,0,0,8,8,6,,,,,,,0.0035107920011796523,371.26912900000025,371.26912900000025,372.2681685839998,372.56801104199985,372.8010897089989,372.8010897089989,372.8010897089989,374.26808941700074,374.26808941700074,374.26808941700074,374.26808941700074,3.9959859579976182,375.31073620900133,200001,002,2023-03-10_12h05.14.516,DMS_BEST_eyetracking_DAN_base_12-36_looped_10minWORKING,2022.2.4,None,
,,,,,,,,,,,,,,,,,,,,,,,,,,,,,,,4,0,4,0,,,,,,,,,375.31073620900133,387.3363426249998,,,,,,,,,,,,,,,200001,002,2023-03-10_12h05.14.516,DMS_BEST_eyetracking_DAN_base_12-36_looped_10minWORKING,2022.2.4,None,
45,UNPRED,12,0.8442567648893917,2,images/picture_3.png,images/picture_1.png,0,"[-11.733433509789466, -11.733433509789462]",-11.733433509789464,-11.733433509789462,images/picture_2.png,1,"[-11.733433509789462, 11.733433509789464]",-11.733433509789462,11.733433509789464,images/picture_3.png,2,"[11.733433509789462, -11.733433509789466]",11.733433509789462,-11.733433509789464,0,1,1,0.8442567648893917,1.844256764889392,1.1557432351106085,3,1,1.5942567648893915,0,5,0,5,0,0,0,0,0,,,,,,,,,,,,,,,,,,,,,200001,002,2023-03-10_12h05.14.516,DMS_BEST_eyetracking_DAN_base_12-36_looped_10minWORKING,2022.2.4,None,
45,UNPRED,12,0.8442567648893917,2,images/picture_3.png,images/picture_1.png,0,"[-11.733433509789466, -11.733433509789462]",-11.733433509789464,-11.733433509789462,images/picture_2.png,1,"[-11.733433509789462, 11.733433509789464]",-11.733433509789462,11.733433509789464,images/picture_3.png,2,"[11.733433509789462, -11.733433509789466]",11.733433509789462,-11.733433509789464,0,1,1,0.8442567648893917,1.844256764889392,1.1557432351106085,3,1,1.5942567648893915,0,5,0,5,0,0,0,0,0,,,,,,,0.003775000001041917,387.3363426249998,387.3363426249998,388.3348709169986,388.93477570899995,389.16810795900165,389.16810795900165,389.16810795900165,390.3347840419992,390.3347840419992,390.3347840419992,390.3347840419992,3.996212791000289,391.354324584001,200001,002,2023-03-10_12h05.14.516,DMS_BEST_eyetracking_DAN_base_12-36_looped_10minWORKING,2022.2.4,None,
51,UNPRED,12,0.630964283064994,1,images/picture_2.png,images/picture_1.png,0,"[11.733433509789462, -11.733433509789466]",11.733433509789462,-11.733433509789464,images/picture_2.png,1,"[11.733433509789464, 11.733433509789462]",11.733433509789464,11.733433509789462,images/picture_3.png,2,"[-11.733433509789466, -11.733433509789462]",-11.733433509789464,-11.733433509789462,0,1,1,0.630964283064994,1.6309642830649942,1.3690357169350058,3,1,1.3809642830649942,0,5,0,5,0,0,1,1,6,,,,,,,,,,,,,,,,,,,,,200001,002,2023-03-10_12h05.14.516,DMS_BEST_eyetracking_DAN_base_12-36_looped_10minWORKING,2022.2.4,None,
51,UNPRED,12,0.630964283064994,1,images/picture_2.png,images/picture_1.png,0,"[11.733433509789462, -11.733433509789466]",11.733433509789462,-11.733433509789464,images/picture_2.png,1,"[11.733433509789464, 11.733433509789462]",11.733433509789464,11.733433509789462,images/picture_3.png,2,"[-11.733433509789466, -11.733433509789462]",-11.733433509789464,-11.733433509789462,0,1,1,0.630964283064994,1.6309642830649942,1.3690357169350058,3,1,1.3809642830649942,0,5,0,5,0,0,1,1,6,,,,,,,0.005009417000110261,391.354324584001,391.354324584001,392.3681711249992,392.7347669589981,392.9677813339986,392.9677813339986,392.9677813339986,394.33477208399927,394.33477208399927,394.33477208399927,394.33477208399927,4.029148249999707,395.3344035839982,200001,002,2023-03-10_12h05.14.516,DMS_BEST_eyetracking_DAN_base_12-36_looped_10minWORKING,2022.2.4,None,
49,UNPRED,12,0.8167214233612231,2,images/picture_3.png,images/picture_1.png,0,"[-11.733433509789462, 11.733433509789464]",-11.733433509789462,11.733433509789464,images/picture_2.png,1,"[11.733433509789464, 11.733433509789462]",11.733433509789464,11.733433509789462,images/picture_3.png,2,"[11.733433509789462, -11.733433509789466]",11.733433509789462,-11.733433509789464,0,1,1,0.8167214233612231,1.8167214233612232,1.1832785766387768,3,1,1.5667214233612232,0,5,0,5,0,0,2,2,4,,,,,,,,,,,,,,,,,,,,,200001,002,2023-03-10_12h05.14.516,DMS_BEST_eyetracking_DAN_base_12-36_looped_10minWORKING,2022.2.4,None,
49,UNPRED,12,0.8167214233612231,2,images/picture_3.png,images/picture_1.png,0,"[-11.733433509789462, 11.733433509789464]",-11.733433509789462,11.733433509789464,images/picture_2.png,1,"[11.733433509789464, 11.733433509789462]",11.733433509789464,11.733433509789462,images/picture_3.png,2,"[11.733433509789462, -11.733433509789466]",11.733433509789462,-11.733433509789464,0,1,1,0.8167214233612231,1.8167214233612232,1.1832785766387768,3,1,1.5667214233612232,0,5,0,5,0,0,2,2,4,,,,,,,0.0014057920016057324,395.36762966699825,395.36762966699825,396.3683103750009,396.93485862500165,397.18715833399983,397.18715833399983,397.18715833399983,398.36810649999825,398.36810649999825,398.36810649999825,398.36810649999825,3.9978871249986696,399.3876232090006,200001,002,2023-03-10_12h05.14.516,DMS_BEST_eyetracking_DAN_base_12-36_looped_10minWORKING,2022.2.4,None,
52,UNPRED,12,0.5813835096876566,2,images/picture_3.png,images/picture_1.png,0,"[-11.733433509789466, -11.733433509789462]",-11.733433509789464,-11.733433509789462,images/picture_2.png,1,"[-11.733433509789462, 11.733433509789464]",-11.733433509789462,11.733433509789464,images/picture_3.png,2,"[11.733433509789462, -11.733433509789466]",11.733433509789462,-11.733433509789464,0,1,1,0.5813835096876566,1.5813835096876567,1.4186164903123433,3,1,1.3313835096876567,0,5,0,5,0,0,3,3,7,,,,,,,,,,,,,,,,,,,,,200001,002,2023-03-10_12h05.14.516,DMS_BEST_eyetracking_DAN_base_12-36_looped_10minWORKING,2022.2.4,None,
52,UNPRED,12,0.5813835096876566,2,images/picture_3.png,images/picture_1.png,0,"[-11.733433509789466, -11.733433509789462]",-11.733433509789464,-11.733433509789462,images/picture_2.png,1,"[-11.733433509789462, 11.733433509789464]",-11.733433509789462,11.733433509789464,images/picture_3.png,2,"[11.733433509789462, -11.733433509789466]",11.733433509789462,-11.733433509789464,0,1,1,0.5813835096876566,1.5813835096876567,1.4186164903123433,3,1,1.3313835096876567,0,5,0,5,0,0,3,3,7,,,,,,,0.0033939589993678965,399.3876232090006,399.3876232090006,400.40158916699875,400.72061004200077,400.9549189999998,400.9549189999998,400.9549189999998,402.36833950000073,402.38749375000043,402.38749375000043,402.38749375000043,4.029524124998716,403.36821475000033,200001,002,2023-03-10_12h05.14.516,DMS_BEST_eyetracking_DAN_base_12-36_looped_10minWORKING,2022.2.4,None,
48,UNPRED,12,0.5286331837197356,0,images/picture_1.png,images/picture_1.png,0,"[11.733433509789464, 11.733433509789462]",11.733433509789464,11.733433509789462,images/picture_2.png,1,"[-11.733433509789462, 11.733433509789464]",-11.733433509789462,11.733433509789464,images/picture_3.png,2,"[11.733433509789462, -11.733433509789466]",11.733433509789462,-11.733433509789464,0,1,1,0.5286331837197356,1.5286331837197356,1.4713668162802644,3,1,1.2786331837197356,0,5,0,5,0,0,4,4,3,,,,,,,,,,,,,,,,,,,,,200001,002,2023-03-10_12h05.14.516,DMS_BEST_eyetracking_DAN_base_12-36_looped_10minWORKING,2022.2.4,None,
48,UNPRED,12,0.5286331837197356,0,images/picture_1.png,images/picture_1.png,0,"[11.733433509789464, 11.733433509789462]",11.733433509789464,11.733433509789462,images/picture_2.png,1,"[-11.733433509789462, 11.733433509789464]",-11.733433509789462,11.733433509789464,images/picture_3.png,2,"[11.733433509789462, -11.733433509789466]",11.733433509789462,-11.733433509789464,0,1,1,0.5286331837197356,1.5286331837197356,1.4713668162802644,3,1,1.2786331837197356,0,5,0,5,0,0,4,4,3,,,,,,,0.004701750000094762,403.4206674999987,403.4206674999987,404.4347926670016,404.70147024999824,404.9347184590006,404.9347184590006,404.9347184590006,406.4014133339988,406.4203752499998,406.4203752499998,406.4203752499998,4.0306957499997225,407.40148554199914,200001,002,2023-03-10_12h05.14.516,DMS_BEST_eyetracking_DAN_base_12-36_looped_10minWORKING,2022.2.4,None,
47,UNPRED,12,0.8439002097017495,0,images/picture_1.png,images/picture_1.png,0,"[11.733433509789462, -11.733433509789466]",11.733433509789462,-11.733433509789464,images/picture_2.png,1,"[11.733433509789464, 11.733433509789462]",11.733433509789464,11.733433509789462,images/picture_3.png,2,"[-11.733433509789462, 11.733433509789464]",-11.733433509789462,11.733433509789464,0,1,1,0.8439002097017495,1.8439002097017492,1.1560997902982506,3,1,1.5939002097017494,0,5,0,5,0,0,5,5,2,,,,,,,,,,,,,,,,,,,,,200001,002,2023-03-10_12h05.14.516,DMS_BEST_eyetracking_DAN_base_12-36_looped_10minWORKING,2022.2.4,None,
47,UNPRED,12,0.8439002097017495,0,images/picture_1.png,images/picture_1.png,0,"[11.733433509789462, -11.733433509789466]",11.733433509789462,-11.733433509789464,images/picture_2.png,1,"[11.733433509789464, 11.733433509789462]",11.733433509789464,11.733433509789462,images/picture_3.png,2,"[-11.733433509789462, 11.733433509789464]",-11.733433509789462,11.733433509789464,0,1,1,0.8439002097017495,1.8439002097017492,1.1560997902982506,3,1,1.5939002097017494,0,5,0,5,0,0,5,5,2,,,,,,,0.0036554580001393333,407.4547077089992,407.4547077089992,408.4683352920001,409.053892584001,409.2677129170006,409.2677129170006,409.2677129170006,410.4347846669989,410.4347846669989,410.4347846669989,410.4347846669989,4.029095166999468,411.43478716699974,200001,002,2023-03-10_12h05.14.516,DMS_BEST_eyetracking_DAN_base_12-36_looped_10minWORKING,2022.2.4,None,
53,UNPRED,12,0.5729257609419384,0,images/picture_1.png,images/picture_1.png,0,"[-11.733433509789462, 11.733433509789464]",-11.733433509789462,11.733433509789464,images/picture_2.png,1,"[11.733433509789462, -11.733433509789466]",11.733433509789462,-11.733433509789464,images/picture_3.png,2,"[11.733433509789464, 11.733433509789462]",11.733433509789464,11.733433509789462,0,1,1,0.5729257609419384,1.5729257609419385,1.4270742390580615,3,1,1.3229257609419385,0,5,0,5,0,0,6,6,8,,,,,,,,,,,,,,,,,,,,,200001,002,2023-03-10_12h05.14.516,DMS_BEST_eyetracking_DAN_base_12-36_looped_10minWORKING,2022.2.4,None,
53,UNPRED,12,0.5729257609419384,0,images/picture_1.png,images/picture_1.png,0,"[-11.733433509789462, 11.733433509789464]",-11.733433509789462,11.733433509789464,images/picture_2.png,1,"[11.733433509789462, -11.733433509789466]",11.733433509789462,-11.733433509789464,images/picture_3.png,2,"[11.733433509789464, 11.733433509789462]",11.733433509789464,11.733433509789462,0,1,1,0.5729257609419384,1.5729257609419385,1.4270742390580615,3,1,1.3229257609419385,0,5,0,5,0,0,6,6,8,,,,,,,0.00352983300035703,411.4880511670017,411.4880511670017,412.5015679169992,412.82099833399843,413.0345722919992,413.0345722919992,413.0345722919992,414.4682987089982,414.4682987089982,414.4682987089982,414.4682987089982,4.029443583000102,415.4679072500003,200001,002,2023-03-10_12h05.14.516,DMS_BEST_eyetracking_DAN_base_12-36_looped_10minWORKING,2022.2.4,None,
50,UNPRED,12,1.0681531248820135,1,images/picture_2.png,images/picture_1.png,0,"[-11.733433509789462, 11.733433509789464]",-11.733433509789462,11.733433509789464,images/picture_2.png,1,"[11.733433509789464, 11.733433509789462]",11.733433509789464,11.733433509789462,images/picture_3.png,2,"[11.733433509789462, -11.733433509789466]",11.733433509789462,-11.733433509789464,0,1,1,1.0681531248820135,2.0681531248820137,0.9318468751179864,3,1,1.8181531248820135,0,5,0,5,0,0,7,7,5,,,,,,,,,,,,,,,,,,,,,200001,002,2023-03-10_12h05.14.516,DMS_BEST_eyetracking_DAN_base_12-36_looped_10minWORKING,2022.2.4,None,
50,UNPRED,12,1.0681531248820135,1,images/picture_2.png,images/picture_1.png,0,"[-11.733433509789462, 11.733433509789464]",-11.733433509789462,11.733433509789464,images/picture_2.png,1,"[11.733433509789464, 11.733433509789462]",11.733433509789464,11.733433509789462,images/picture_3.png,2,"[11.733433509789462, -11.733433509789466]",11.733433509789462,-11.733433509789464,0,1,1,1.0681531248820135,2.0681531248820137,0.9318468751179864,3,1,1.8181531248820135,0,5,0,5,0,0,7,7,5,,,,,,,0.0023963330022525042,415.50111412499973,415.50111412499973,416.50123158399947,417.3350458749992,417.56800329199905,417.56800329199905,417.56800329199905,418.5015352500013,418.5015352500013,418.5015352500013,418.5015352500013,3.9972822080017067,419.5024152500009,200001,002,2023-03-10_12h05.14.516,DMS_BEST_eyetracking_DAN_base_12-36_looped_10minWORKING,2022.2.4,None,
46,UNPRED,12,0.8121892882321167,2,images/picture_3.png,images/picture_1.png,0,"[11.733433509789464, 11.733433509789462]",11.733433509789464,11.733433509789462,images/picture_2.png,1,"[11.733433509789462, -11.733433509789466]",11.733433509789462,-11.733433509789464,images/picture_3.png,2,"[-11.733433509789462, 11.733433509789464]",-11.733433509789462,11.733433509789464,0,1,1,0.8121892882321167,1.812189288232117,1.187810711767883,3,1,1.562189288232117,0,5,0,5,0,0,8,8,1,,,,,,,,,,,,,,,,,,,,,200001,002,2023-03-10_12h05.14.516,DMS_BEST_eyetracking_DAN_base_12-36_looped_10minWORKING,2022.2.4,None,
46,UNPRED,12,0.8121892882321167,2,images/picture_3.png,images/picture_1.png,0,"[11.733433509789464, 11.733433509789462]",11.733433509789464,11.733433509789462,images/picture_2.png,1,"[11.733433509789462, -11.733433509789466]",11.733433509789462,-11.733433509789464,images/picture_3.png,2,"[-11.733433509789462, 11.733433509789464]",-11.733433509789462,11.733433509789464,0,1,1,0.8121892882321167,1.812189288232117,1.187810711767883,3,1,1.562189288232117,0,5,0,5,0,0,8,8,1,,,,,,,0.0033386659997631796,419.5024152500009,419.5024152500009,420.5015659169985,421.0684567089993,421.30162816699885,421.30162816699885,421.30162816699885,422.5018134589991,422.5018134589991,422.5018134589991,422.5018134589991,3.9972624580004776,423.58261208399927,200001,002,2023-03-10_12h05.14.516,DMS_BEST_eyetracking_DAN_base_12-36_looped_10minWORKING,2022.2.4,None,
,,,,,,,,,,,,,,,,,,,,,,,,,,,,,,,5,0,5,0,,,,,,,,,423.58261208399927,435.6031112919991,,,,,,,,,,,,,,,200001,002,2023-03-10_12h05.14.516,DMS_BEST_eyetracking_DAN_base_12-36_looped_10minWORKING,2022.2.4,None,
56,PRED,12,0.5173109205410699,1,images/picture_2.png,images/picture_1.png,0,"[11.733433509789464, 11.733433509789462]",11.733433509789464,11.733433509789462,images/picture_2.png,1,"[-11.733433509789462, 11.733433509789464]",-11.733433509789462,11.733433509789464,images/picture_3.png,2,"[11.733433509789462, -11.733433509789466]",11.733433509789462,-11.733433509789464,0,1,1,0.5173109205410699,1.5173109205410698,1.4826890794589302,3,1,1.2673109205410698,0,6,0,6,0,0,0,0,2,,,,,,,,,,,,,,,,,,,,,200001,002,2023-03-10_12h05.14.516,DMS_BEST_eyetracking_DAN_base_12-36_looped_10minWORKING,2022.2.4,None,
56,PRED,12,0.5173109205410699,1,images/picture_2.png,images/picture_1.png,0,"[11.733433509789464, 11.733433509789462]",11.733433509789464,11.733433509789462,images/picture_2.png,1,"[-11.733433509789462, 11.733433509789464]",-11.733433509789462,11.733433509789464,images/picture_3.png,2,"[11.733433509789462, -11.733433509789466]",11.733433509789462,-11.733433509789464,0,1,1,0.5173109205410699,1.5173109205410698,1.4826890794589302,3,1,1.2673109205410698,0,6,0,6,0,0,0,0,2,,,,,,,0.004006958999525523,435.6031112919991,435.6031112919991,436.6013992920016,436.8681567499989,437.1209865839992,437.1209865839992,437.1209865839992,438.6020321249998,438.6020321249998,438.6020321249998,438.6020321249998,3.996587499997986,439.6208909169982,200001,002,2023-03-10_12h05.14.516,DMS_BEST_eyetracking_DAN_base_12-36_looped_10minWORKING,2022.2.4,None,
58,PRED,12,1.0800060100712474,1,images/picture_2.png,images/picture_1.png,0,"[-11.733433509789462, 11.733433509789464]",-11.733433509789462,11.733433509789464,images/picture_2.png,1,"[11.733433509789462, -11.733433509789466]",11.733433509789462,-11.733433509789464,images/picture_3.png,2,"[11.733433509789464, 11.733433509789462]",11.733433509789464,11.733433509789462,0,1,1,1.0800060100712474,2.0800060100712474,0.9199939899287526,3,1,1.8300060100712476,0,6,0,6,0,0,1,1,4,,,,,,,,,,,,,,,,,,,,,200001,002,2023-03-10_12h05.14.516,DMS_BEST_eyetracking_DAN_base_12-36_looped_10minWORKING,2022.2.4,None,
58,PRED,12,1.0800060100712474,1,images/picture_2.png,images/picture_1.png,0,"[-11.733433509789462, 11.733433509789464]",-11.733433509789462,11.733433509789464,images/picture_2.png,1,"[11.733433509789462, -11.733433509789466]",11.733433509789462,-11.733433509789464,images/picture_3.png,2,"[11.733433509789464, 11.733433509789462]",11.733433509789464,11.733433509789462,0,1,1,1.0800060100712474,2.0800060100712474,0.9199939899287526,3,1,1.8300060100712476,0,6,0,6,0,0,1,1,4,,,,,,,0.005019290998461656,439.6208909169982,439.6208909169982,440.6353045420001,441.45443412500026,441.66843141700156,441.66843141700156,441.66843141700156,442.6019789999991,442.6019789999991,442.6019789999991,442.6019789999991,4.029902624999522,443.60197283399975,200001,002,2023-03-10_12h05.14.516,DMS_BEST_eyetracking_DAN_base_12-36_looped_10minWORKING,2022.2.4,None,
61,PRED,12,1.0330640127573858,1,images/picture_2.png,images/picture_1.png,0,"[-11.733433509789462, 11.733433509789464]",-11.733433509789462,11.733433509789464,images/picture_2.png,1,"[-11.733433509789466, -11.733433509789462]",-11.733433509789464,-11.733433509789462,images/picture_3.png,2,"[11.733433509789464, 11.733433509789462]",11.733433509789464,11.733433509789462,0,1,1,1.0330640127573858,2.033064012757386,0.9669359872426142,3,1,1.7830640127573858,0,6,0,6,0,0,2,2,7,,,,,,,,,,,,,,,,,,,,,200001,002,2023-03-10_12h05.14.516,DMS_BEST_eyetracking_DAN_base_12-36_looped_10minWORKING,2022.2.4,None,
61,PRED,12,1.0330640127573858,1,images/picture_2.png,images/picture_1.png,0,"[-11.733433509789462, 11.733433509789464]",-11.733433509789462,11.733433509789464,images/picture_2.png,1,"[-11.733433509789466, -11.733433509789462]",-11.733433509789464,-11.733433509789462,images/picture_3.png,2,"[11.733433509789464, 11.733433509789462]",11.733433509789464,11.733433509789462,0,1,1,1.0330640127573858,2.033064012757386,0.9669359872426142,3,1,1.7830640127573858,0,6,0,6,0,0,2,2,7,,,,,,,0.005055375000665663,443.6546693749988,443.6546693749988,444.6684807089987,445.4352651670015,445.6683162500012,445.6683162500012,445.6683162500012,446.6348126669982,446.6348126669982,446.6348126669982,446.6348126669982,4.029371625001659,447.6352580419989,200001,002,2023-03-10_12h05.14.516,DMS_BEST_eyetracking_DAN_base_12-36_looped_10minWORKING,2022.2.4,None,
59,PRED,12,0.8147461293599076,1,images/picture_2.png,images/picture_1.png,0,"[11.733433509789462, -11.733433509789466]",11.733433509789462,-11.733433509789464,images/picture_2.png,1,"[11.733433509789464, 11.733433509789462]",11.733433509789464,11.733433509789462,images/picture_3.png,2,"[-11.733433509789462, 11.733433509789464]",-11.733433509789462,11.733433509789464,0,1,1,0.8147461293599076,1.814746129359908,1.1852538706400924,3,1,1.5647461293599076,0,6,0,6,0,0,3,3,5,,,,,,,,,,,,,,,,,,,,,200001,002,2023-03-10_12h05.14.516,DMS_BEST_eyetracking_DAN_base_12-36_looped_10minWORKING,2022.2.4,None,
59,PRED,12,0.8147461293599076,1,images/picture_2.png,images/picture_1.png,0,"[11.733433509789462, -11.733433509789466]",11.733433509789462,-11.733433509789464,images/picture_2.png,1,"[11.733433509789464, 11.733433509789462]",11.733433509789464,11.733433509789462,images/picture_3.png,2,"[-11.733433509789462, 11.733433509789464]",-11.733433509789462,11.733433509789464,0,1,1,0.8147461293599076,1.814746129359908,1.1852538706400924,3,1,1.5647461293599076,0,6,0,6,0,0,3,3,5,,,,,,,0.004861375000473345,447.6882290419999,447.6882290419999,448.7017367090011,449.26870379200045,449.46837258400046,449.46837258400046,449.46837258400046,450.6685515419995,450.6685515419995,450.6685515419995,450.6685515419995,4.031030959002237,451.668683625001,200001,002,2023-03-10_12h05.14.516,DMS_BEST_eyetracking_DAN_base_12-36_looped_10minWORKING,2022.2.4,None,
62,PRED,12,0.9978210324197416,1,images/picture_2.png,images/picture_1.png,0,"[-11.733433509789466, -11.733433509789462]",-11.733433509789464,-11.733433509789462,images/picture_2.png,1,"[11.733433509789462, -11.733433509789466]",11.733433509789462,-11.733433509789464,images/picture_3.png,2,"[-11.733433509789462, 11.733433509789464]",-11.733433509789462,11.733433509789464,0,1,1,0.9978210324197416,1.9978210324197416,1.0021789675802584,3,1,1.7478210324197416,0,6,0,6,0,0,4,4,8,,,,,,,,,,,,,,,,,,,,,200001,002,2023-03-10_12h05.14.516,DMS_BEST_eyetracking_DAN_base_12-36_looped_10minWORKING,2022.2.4,None,
62,PRED,12,0.9978210324197416,1,images/picture_2.png,images/picture_1.png,0,"[-11.733433509789466, -11.733433509789462]",-11.733433509789464,-11.733433509789462,images/picture_2.png,1,"[11.733433509789462, -11.733433509789466]",11.733433509789462,-11.733433509789464,images/picture_3.png,2,"[-11.733433509789462, 11.733433509789464]",-11.733433509789462,11.733433509789464,0,1,1,0.9978210324197416,1.9978210324197416,1.0021789675802584,3,1,1.7478210324197416,0,6,0,6,0,0,4,4,8,,,,,,,0.005012292000174057,451.7217022920013,451.7217022920013,452.7352641670004,453.46870149999813,453.7015780840011,453.7015780840011,453.7015780840011,454.70236916700014,454.70236916700014,454.70236916700014,454.70236916700014,4.03032904200154,455.70222137499877,200001,002,2023-03-10_12h05.14.516,DMS_BEST_eyetracking_DAN_base_12-36_looped_10minWORKING,2022.2.4,None,
55,PRED,12,0.8721221034592967,1,images/picture_2.png,images/picture_1.png,0,"[-11.733433509789466, -11.733433509789462]",-11.733433509789464,-11.733433509789462,images/picture_2.png,1,"[-11.733433509789462, 11.733433509789464]",-11.733433509789462,11.733433509789464,images/picture_3.png,2,"[11.733433509789462, -11.733433509789466]",11.733433509789462,-11.733433509789464,0,1,1,0.8721221034592967,1.8721221034592967,1.1278778965407033,3,1,1.6221221034592967,0,6,0,6,0,0,5,5,1,,,,,,,,,,,,,,,,,,,,,200001,002,2023-03-10_12h05.14.516,DMS_BEST_eyetracking_DAN_base_12-36_looped_10minWORKING,2022.2.4,None,
55,PRED,12,0.8721221034592967,1,images/picture_2.png,images/picture_1.png,0,"[-11.733433509789466, -11.733433509789462]",-11.733433509789464,-11.733433509789462,images/picture_2.png,1,"[-11.733433509789462, 11.733433509789464]",-11.733433509789462,11.733433509789464,images/picture_3.png,2,"[11.733433509789462, -11.733433509789466]",11.733433509789462,-11.733433509789464,0,1,1,0.8721221034592967,1.8721221034592967,1.1278778965407033,3,1,1.6221221034592967,0,6,0,6,0,0,5,5,1,,,,,,,0.00499945900082821,455.75486583399834,455.75486583399834,456.76826512499974,457.3876276250012,457.6015105000006,457.6015105000006,457.6015105000006,458.7352815000013,458.7352815000013,458.7352815000013,458.7352815000013,4.0287100419991475,459.73556329200073,200001,002,2023-03-10_12h05.14.516,DMS_BEST_eyetracking_DAN_base_12-36_looped_10minWORKING,2022.2.4,None,
57,PRED,12,0.931268675680358,1,images/picture_2.png,images/picture_1.png,0,"[11.733433509789464, 11.733433509789462]",11.733433509789464,11.733433509789462,images/picture_2.png,1,"[11.733433509789462, -11.733433509789466]",11.733433509789462,-11.733433509789464,images/picture_3.png,2,"[-11.733433509789466, -11.733433509789462]",-11.733433509789464,-11.733433509789462,0,1,1,0.931268675680358,1.9312686756803576,1.068731324319642,3,1,1.681268675680358,0,6,0,6,0,0,6,6,3,,,,,,,,,,,,,,,,,,,,,200001,002,2023-03-10_12h05.14.516,DMS_BEST_eyetracking_DAN_base_12-36_looped_10minWORKING,2022.2.4,None,
57,PRED,12,0.931268675680358,1,images/picture_2.png,images/picture_1.png,0,"[11.733433509789464, 11.733433509789462]",11.733433509789464,11.733433509789462,images/picture_2.png,1,"[11.733433509789462, -11.733433509789466]",11.733433509789462,-11.733433509789464,images/picture_3.png,2,"[-11.733433509789466, -11.733433509789462]",-11.733433509789464,-11.733433509789462,0,1,1,0.931268675680358,1.9312686756803576,1.068731324319642,3,1,1.681268675680358,0,6,0,6,0,0,6,6,3,,,,,,,0.004817124998226063,459.78801999999996,459.78801999999996,460.801941624999,461.4687081669981,461.70175941699927,461.70175941699927,461.70175941699927,462.76867974999914,462.76867974999914,462.76867974999914,462.76867974999914,4.03138399999807,463.7687313339993,200001,002,2023-03-10_12h05.14.516,DMS_BEST_eyetracking_DAN_base_12-36_looped_10minWORKING,2022.2.4,None,
60,PRED,12,1.193260258235329,1,images/picture_2.png,images/picture_1.png,0,"[11.733433509789464, 11.733433509789462]",11.733433509789464,11.733433509789462,images/picture_2.png,1,"[-11.733433509789466, -11.733433509789462]",-11.733433509789464,-11.733433509789462,images/picture_3.png,2,"[11.733433509789462, -11.733433509789466]",11.733433509789462,-11.733433509789464,0,1,1,1.193260258235329,2.193260258235329,0.8067397417646709,3,1,1.943260258235329,0,6,0,6,0,0,7,7,6,,,,,,,,,,,,,,,,,,,,,200001,002,2023-03-10_12h05.14.516,DMS_BEST_eyetracking_DAN_base_12-36_looped_10minWORKING,2022.2.4,None,
60,PRED,12,1.193260258235329,1,images/picture_2.png,images/picture_1.png,0,"[11.733433509789464, 11.733433509789462]",11.733433509789464,11.733433509789462,images/picture_2.png,1,"[-11.733433509789466, -11.733433509789462]",-11.733433509789464,-11.733433509789462,images/picture_3.png,2,"[11.733433509789462, -11.733433509789466]",11.733433509789462,-11.733433509789464,0,1,1,1.193260258235329,2.193260258235329,0.8067397417646709,3,1,1.943260258235329,0,6,0,6,0,0,7,7,6,,,,,,,0.0049450829974375665,463.8215674999992,463.8215674999992,464.83546441699946,465.76872074999847,465.98864454200157,465.98864454200157,465.98864454200157,466.8016418750012,466.8016418750012,466.8016418750012,466.8016418750012,4.029528291997849,467.8020394999985,200001,002,2023-03-10_12h05.14.516,DMS_BEST_eyetracking_DAN_base_12-36_looped_10minWORKING,2022.2.4,None,
54,PRED,12,0.7613113677486258,1,images/picture_2.png,images/picture_1.png,0,"[11.733433509789464, 11.733433509789462]",11.733433509789464,11.733433509789462,images/picture_2.png,1,"[11.733433509789462, -11.733433509789466]",11.733433509789462,-11.733433509789464,images/picture_3.png,2,"[-11.733433509789462, 11.733433509789464]",-11.733433509789462,11.733433509789464,0,1,1,0.7613113677486258,1.7613113677486258,1.2386886322513742,3,1,1.5113113677486258,0,6,0,6,0,0,8,8,0,,,,,,,,,,,,,,,,,,,,,200001,002,2023-03-10_12h05.14.516,DMS_BEST_eyetracking_DAN_base_12-36_looped_10minWORKING,2022.2.4,None,
54,PRED,12,0.7613113677486258,1,images/picture_2.png,images/picture_1.png,0,"[11.733433509789464, 11.733433509789462]",11.733433509789464,11.733433509789462,images/picture_2.png,1,"[11.733433509789462, -11.733433509789466]",11.733433509789462,-11.733433509789464,images/picture_3.png,2,"[-11.733433509789462, 11.733433509789464]",-11.733433509789462,11.733433509789464,0,1,1,0.7613113677486258,1.7613113677486258,1.2386886322513742,3,1,1.5113113677486258,0,6,0,6,0,0,8,8,0,,,,,,,0.004962167000485351,467.85508879199915,467.85508879199915,468.86883574999956,469.3688059999986,469.58829324999897,469.58829324999897,469.58829324999897,470.83547312500014,470.83547312500014,470.83547312500014,470.83547312500014,4.030091208001977,471.8354452499989,200001,002,2023-03-10_12h05.14.516,DMS_BEST_eyetracking_DAN_base_12-36_looped_10minWORKING,2022.2.4,None,
,,,,,,,,,,,,,,,,,,,,,,,,,,,,,,,6,0,6,0,,,,,,,,,471.95768954199957,483.9888261669985,,,,,,,,,,,,,,,200001,002,2023-03-10_12h05.14.516,DMS_BEST_eyetracking_DAN_base_12-36_looped_10minWORKING,2022.2.4,None,
69,UNPRED,12,0.5167636561369915,2,images/picture_3.png,images/picture_1.png,0,"[11.733433509789464, 11.733433509789462]",11.733433509789464,11.733433509789462,images/picture_2.png,1,"[-11.733433509789462, 11.733433509789464]",-11.733433509789462,11.733433509789464,images/picture_3.png,2,"[11.733433509789462, -11.733433509789466]",11.733433509789462,-11.733433509789464,0,1,1,0.5167636561369915,1.5167636561369915,1.4832363438630085,3,1,1.2667636561369915,0,7,0,7,0,0,0,0,6,,,,,,,,,,,,,,,,,,,,,200001,002,2023-03-10_12h05.14.516,DMS_BEST_eyetracking_DAN_base_12-36_looped_10minWORKING,2022.2.4,None,
69,UNPRED,12,0.5167636561369915,2,images/picture_3.png,images/picture_1.png,0,"[11.733433509789464, 11.733433509789462]",11.733433509789464,11.733433509789462,images/picture_2.png,1,"[-11.733433509789462, 11.733433509789464]",-11.733433509789462,11.733433509789464,images/picture_3.png,2,"[11.733433509789462, -11.733433509789466]",11.733433509789462,-11.733433509789464,0,1,1,0.5167636561369915,1.5167636561369915,1.4832363438630085,3,1,1.2667636561369915,0,7,0,7,0,0,0,0,6,,,,,,,0.0027438750003057066,483.9888261669985,483.9888261669985,485.0020369999984,485.26874008400046,485.50189150000006,485.50189150000006,485.50189150000006,486.98746762500014,486.98746762500014,486.98746762500014,486.98746762500014,4.010276209002768,488.02080012499937,200001,002,2023-03-10_12h05.14.516,DMS_BEST_eyetracking_DAN_base_12-36_looped_10minWORKING,2022.2.4,None,
66,UNPRED,12,0.7371642045148314,1,images/picture_2.png,images/picture_1.png,0,"[-11.733433509789462, 11.733433509789464]",-11.733433509789462,11.733433509789464,images/picture_2.png,1,"[11.733433509789464, 11.733433509789462]",11.733433509789464,11.733433509789462,images/picture_3.png,2,"[11.733433509789462, -11.733433509789466]",11.733433509789462,-11.733433509789464,0,1,1,0.7371642045148314,1.7371642045148314,1.2628357954851686,3,1,1.4871642045148314,0,7,0,7,0,0,1,1,3,,,,,,,,,,,,,,,,,,,,,200001,002,2023-03-10_12h05.14.516,DMS_BEST_eyetracking_DAN_base_12-36_looped_10minWORKING,2022.2.4,None,
66,UNPRED,12,0.7371642045148314,1,images/picture_2.png,images/picture_1.png,0,"[-11.733433509789462, 11.733433509789464]",-11.733433509789462,11.733433509789464,images/picture_2.png,1,"[11.733433509789464, 11.733433509789462]",11.733433509789464,11.733433509789462,images/picture_3.png,2,"[11.733433509789462, -11.733433509789466]",11.733433509789462,-11.733433509789464,0,1,1,0.7371642045148314,1.7371642045148314,1.2628357954851686,3,1,1.4871642045148314,0,7,0,7,0,0,1,1,3,,,,,,,0.004834374998608837,488.02080012499937,488.02080012499937,489.035594459001,489.5214694589995,489.7353842500015,489.7353842500015,489.7353842500015,491.00222487499923,491.00222487499923,491.00222487499923,491.00222487499923,4.030470707999484,492.0021892920013,200001,002,2023-03-10_12h05.14.516,DMS_BEST_eyetracking_DAN_base_12-36_looped_10minWORKING,2022.2.4,None,
68,UNPRED,12,0.9977076839632044,1,images/picture_2.png,images/picture_1.png,0,"[-11.733433509789462, 11.733433509789464]",-11.733433509789462,11.733433509789464,images/picture_2.png,1,"[-11.733433509789466, -11.733433509789462]",-11.733433509789464,-11.733433509789462,images/picture_3.png,2,"[11.733433509789464, 11.733433509789462]",11.733433509789464,11.733433509789462,0,1,1,0.9977076839632044,1.9977076839632044,1.0022923160367956,3,1,1.7477076839632044,0,7,0,7,0,0,2,2,5,,,,,,,,,,,,,,,,,,,,,200001,002,2023-03-10_12h05.14.516,DMS_BEST_eyetracking_DAN_base_12-36_looped_10minWORKING,2022.2.4,None,
68,UNPRED,12,0.9977076839632044,1,images/picture_2.png,images/picture_1.png,0,"[-11.733433509789462, 11.733433509789464]",-11.733433509789462,11.733433509789464,images/picture_2.png,1,"[-11.733433509789466, -11.733433509789462]",-11.733433509789464,-11.733433509789462,images/picture_3.png,2,"[11.733433509789464, 11.733433509789462]",11.733433509789464,11.733433509789462,0,1,1,0.9977076839632044,1.9977076839632044,1.0022923160367956,3,1,1.7477076839632044,0,7,0,7,0,0,2,2,5,,,,,,,0.005126333999214694,492.0548759589983,492.0548759589983,493.0687706669996,493.80222729199886,494.0353289170016,494.0353289170016,494.0353289170016,495.03547987500133,495.03547987500133,495.03547987500133,495.03547987500133,4.030656249997264,496.0355085420015,200001,002,2023-03-10_12h05.14.516,DMS_BEST_eyetracking_DAN_base_12-36_looped_10minWORKING,2022.2.4,None,
71,UNPRED,12,0.8725929541372651,2,images/picture_3.png,images/picture_1.png,0,"[11.733433509789462, -11.733433509789466]",11.733433509789462,-11.733433509789464,images/picture_2.png,1,"[-11.733433509789462, 11.733433509789464]",-11.733433509789462,11.733433509789464,images/picture_3.png,2,"[11.733433509789464, 11.733433509789462]",11.733433509789464,11.733433509789462,0,1,1,0.8725929541372651,1.8725929541372648,1.127407045862735,3,1,1.6225929541372648,0,7,0,7,0,0,3,3,8,,,,,,,,,,,,,,,,,,,,,200001,002,2023-03-10_12h05.14.516,DMS_BEST_eyetracking_DAN_base_12-36_looped_10minWORKING,2022.2.4,None,
71,UNPRED,12,0.8725929541372651,2,images/picture_3.png,images/picture_1.png,0,"[11.733433509789462, -11.733433509789466]",11.733433509789462,-11.733433509789464,images/picture_2.png,1,"[-11.733433509789462, 11.733433509789464]",-11.733433509789462,11.733433509789464,images/picture_3.png,2,"[11.733433509789464, 11.733433509789462]",11.733433509789464,11.733433509789462,0,1,1,0.8725929541372651,1.8725929541372648,1.127407045862735,3,1,1.6225929541372648,0,7,0,7,0,0,3,3,8,,,,,,,0.0033974590005527716,496.0883942920009,496.0883942920009,497.1017852920013,497.7207934170001,497.93507808399954,497.93507808399954,497.93507808399954,499.06895491699834,499.06895491699834,499.06895491699834,499.06895491699834,4.029684291999729,500.0688897500004,200001,002,2023-03-10_12h05.14.516,DMS_BEST_eyetracking_DAN_base_12-36_looped_10minWORKING,2022.2.4,None,
