trial_count,blockType,blockNum,delay_time,stimImage_i,stimImage,responseImage1,responseImage1_i,responseImage1_pos,responseImage1_X,responseImage1_Y,responseImage2,responseImage2_i,responseImage2_pos,responseImage2_X,responseImage2_Y,responseImage3,responseImage3_i,responseImage3_pos,responseImage3_X,responseImage3_Y,cue_onset,cue_dur,delay_onset,delay_dur,resp_onset,resp_dur,rest_onset,rest_dur,circle_dur,circle_onset,total_dur,cross_onset,cross_dur,delay_resp_period,blocks.thisRepN,blocks.thisTrialN,blocks.thisN,blocks.thisIndex,trials.thisRepN,trials.thisTrialN,trials.thisN,trials.thisIndex,key_resp.started,text.started,key_resp.keys,key_resp.rt,text_2.started,text_2.stopped,sample.started,Delay.started,sample.stopped,Delay.stopped,Response_1.started,Response_2.started,Response_3.started,polygon.started,Response_1.stopped,Response_2.stopped,Response_3.stopped,polygon.stopped,participant,session,date,expName,psychopyVersion,frameRate,
,,,,,,,,,,,,,,,,,,,,,,,,,,,,,,,,,,,,,,,,,,,86.60028749983758,86.60028749983758,t,66.42760262498632,,,,,,,,,,,,,,,200005,002,2023-04-04_10h55.29.924,DMS_et_12-36,2022.2.4,None,
2,PRED,12,0.5741415428030996,1,images/picture_2.png,images/picture_1.png,0,"[11.733433509789462, -11.733433509789466]",11.733433509789462,-11.733433509789464,images/picture_2.png,1,"[-11.733433509789462, 11.733433509789464]",-11.733433509789462,11.733433509789464,images/picture_3.png,2,"[-11.733433509789466, -11.733433509789462]",-11.733433509789464,-11.733433509789462,0,1,1,0.5741415428030996,1.5741415428030996,1.4258584571969004,3.0,1,1.3241415428030996,0,4.0,3.0,1,2,0,0,0,0,0,0,0,2,,,,,153.54746324988082,165.58539445791394,165.58539445791394,165.58539445791394,166.59089154191315,166.92390033300035,167.15683875000104,167.15683875000104,167.15683875000104,168.57659662491642,168.59027562499978,168.59027562499978,168.59027562499978,169.58989779185504,200005,002,2023-04-04_10h55.29.924,DMS_et_12-36,2022.2.4,None,
1,PRED,12,0.5741415428030996,1,images/picture_2.png,images/picture_1.png,0,"[-11.733433509789462, 11.733433509789464]",-11.733433509789462,11.733433509789464,images/picture_2.png,1,"[11.733433509789464, 11.733433509789462]",11.733433509789464,11.733433509789462,images/picture_3.png,2,"[-11.733433509789466, -11.733433509789462]",-11.733433509789464,-11.733433509789462,0,1,1,0.5741415428030996,1.5741415428030996,1.4258584571969004,3.0,1,1.3241415428030996,0,4.0,3.0,1,2,0,0,0,0,0,1,1,1,,,,,,,169.58989779185504,169.58989779185504,170.59030624991283,170.92345454194583,171.15678937500343,171.15678937500343,171.15678937500343,172.59041233290918,172.59041233290918,172.59041233290918,172.59041233290918,173.58984724991024,200005,002,2023-04-04_10h55.29.924,DMS_et_12-36,2022.2.4,None,
0,PRED,12,0.5741415428030996,1,images/picture_2.png,images/picture_1.png,0,"[11.733433509789464, 11.733433509789462]",11.733433509789464,11.733433509789462,images/picture_2.png,1,"[-11.733433509789462, 11.733433509789464]",-11.733433509789462,11.733433509789464,images/picture_3.png,2,"[11.733433509789462, -11.733433509789466]",11.733433509789462,-11.733433509789464,0,1,1,0.5741415428030996,1.5741415428030996,1.4258584571969004,3.0,1,1.3241415428030996,0,4.0,3.0,1,2,0,0,0,0,0,2,2,0,,,,,,,173.58984724991024,173.58984724991024,174.5904761669226,174.92372624995187,175.15709612495266,175.15709612495266,175.15709612495266,176.59048554184847,176.59048554184847,176.59048554184847,176.59048554184847,177.58993124985136,200005,002,2023-04-04_10h55.29.924,DMS_et_12-36,2022.2.4,None,
6,PRED,12,0.5741415428030996,1,images/picture_2.png,images/picture_1.png,0,"[11.733433509789462, -11.733433509789466]",11.733433509789462,-11.733433509789464,images/picture_2.png,1,"[-11.733433509789466, -11.733433509789462]",-11.733433509789464,-11.733433509789462,images/picture_3.png,2,"[-11.733433509789462, 11.733433509789464]",-11.733433509789462,11.733433509789464,0,1,1,0.5741415428030996,1.5741415428030996,1.4258584571969004,3.0,1,1.3241415428030996,0,4.0,3.0,1,2,0,0,0,0,0,3,3,6,,,,,,,177.58993124985136,177.58993124985136,178.59022550005466,178.9235403749626,179.1570669170469,179.1570669170469,179.1570669170469,180.59022874990478,180.59022874990478,180.59022874990478,180.59022874990478,181.59006354189478,200005,002,2023-04-04_10h55.29.924,DMS_et_12-36,2022.2.4,None,
3,PRED,12,0.5741415428030996,1,images/picture_2.png,images/picture_1.png,0,"[-11.733433509789466, -11.733433509789462]",-11.733433509789464,-11.733433509789462,images/picture_2.png,1,"[11.733433509789464, 11.733433509789462]",11.733433509789464,11.733433509789462,images/picture_3.png,2,"[11.733433509789462, -11.733433509789466]",11.733433509789462,-11.733433509789464,0,1,1,0.5741415428030996,1.5741415428030996,1.4258584571969004,3.0,1,1.3241415428030996,0,4.0,3.0,1,2,0,0,0,0,0,4,4,3,,,,,,,181.59006354189478,181.59006354189478,182.59047145792283,182.92372079193592,183.1568962498568,183.1568962498568,183.1568962498568,184.5904547078535,184.5904547078535,184.5904547078535,184.5904547078535,185.58987066685222,200005,002,2023-04-04_10h55.29.924,DMS_et_12-36,2022.2.4,None,
8,PRED,12,0.5741415428030996,1,images/picture_2.png,images/picture_1.png,0,"[11.733433509789464, 11.733433509789462]",11.733433509789464,11.733433509789462,images/picture_2.png,1,"[11.733433509789462, -11.733433509789466]",11.733433509789462,-11.733433509789464,images/picture_3.png,2,"[-11.733433509789466, -11.733433509789462]",-11.733433509789464,-11.733433509789462,0,1,1,0.5741415428030996,1.5741415428030996,1.4258584571969004,3.0,1,1.3241415428030996,0,4.0,3.0,1,2,0,0,0,0,0,5,5,8,,,,,,,185.58987066685222,185.58987066685222,186.59045837493613,186.92367445793934,187.15705737494864,187.15705737494864,187.15705737494864,188.59043179196306,188.59043179196306,188.59043179196306,188.59043179196306,189.58982874988578,200005,002,2023-04-04_10h55.29.924,DMS_et_12-36,2022.2.4,None,
5,PRED,12,0.5741415428030996,1,images/picture_2.png,images/picture_1.png,0,"[11.733433509789462, -11.733433509789466]",11.733433509789462,-11.733433509789464,images/picture_2.png,1,"[-11.733433509789462, 11.733433509789464]",-11.733433509789462,11.733433509789464,images/picture_3.png,2,"[11.733433509789464, 11.733433509789462]",11.733433509789464,11.733433509789462,0,1,1,0.5741415428030996,1.5741415428030996,1.4258584571969004,3.0,1,1.3241415428030996,0,4.0,3.0,1,2,0,0,0,0,0,6,6,5,,,,,,,189.58982874988578,189.58982874988578,190.59046070789918,190.9237674169708,191.15756904194131,191.15756904194131,191.15756904194131,192.59067170787603,192.59067170787603,192.59067170787603,192.59067170787603,193.58994316705503,200005,002,2023-04-04_10h55.29.924,DMS_et_12-36,2022.2.4,None,
7,PRED,12,0.5741415428030996,1,images/picture_2.png,images/picture_1.png,0,"[11.733433509789462, -11.733433509789466]",11.733433509789462,-11.733433509789464,images/picture_2.png,1,"[-11.733433509789466, -11.733433509789462]",-11.733433509789464,-11.733433509789462,images/picture_3.png,2,"[11.733433509789464, 11.733433509789462]",11.733433509789464,11.733433509789462,0,1,1,0.5741415428030996,1.5741415428030996,1.4258584571969004,3.0,1,1.3241415428030996,0,4.0,3.0,1,2,0,0,0,0,0,7,7,7,,,,,,,193.58994316705503,193.58994316705503,194.59027041704394,194.92368537490256,195.15712120803073,195.15712120803073,195.15712120803073,196.5902844578959,196.5902844578959,196.5902844578959,196.5902844578959,197.58990533300675,200005,002,2023-04-04_10h55.29.924,DMS_et_12-36,2022.2.4,None,
4,PRED,12,0.5741415428030996,1,images/picture_2.png,images/picture_1.png,0,"[11.733433509789464, 11.733433509789462]",11.733433509789464,11.733433509789462,images/picture_2.png,1,"[11.733433509789462, -11.733433509789466]",11.733433509789462,-11.733433509789464,images/picture_3.png,2,"[-11.733433509789462, 11.733433509789464]",-11.733433509789462,11.733433509789464,0,1,1,0.5741415428030996,1.5741415428030996,1.4258584571969004,3.0,1,1.3241415428030996,0,4.0,3.0,1,2,0,0,0,0,0,8,8,4,,,,,,,197.58990533300675,197.58990533300675,198.59044220787473,198.92373662488535,199.15703733288683,199.15703733288683,199.15703733288683,200.5904439999722,200.5904439999722,200.5904439999722,200.5904439999722,201.60945216706023,200005,002,2023-04-04_10h55.29.924,DMS_et_12-36,2022.2.4,None,
,,,,,,,,,,,,,,,,,,,,,,,,,,,,,,,,,,,0,0,0,0,,,,,,,,,201.60945216706023,213.64237704197876,,,,,,,,,,,,,200005,002,2023-04-04_10h55.29.924,DMS_et_12-36,2022.2.4,None,
16,UNPRED,12,0.5741415428030996,0,images/picture_1.png,images/picture_1.png,0,"[-11.733433509789466, -11.733433509789462]",-11.733433509789464,-11.733433509789462,images/picture_2.png,1,"[11.733433509789462, -11.733433509789466]",11.733433509789462,-11.733433509789464,images/picture_3.png,2,"[11.733433509789464, 11.733433509789462]",11.733433509789464,11.733433509789462,0,1,1,0.5741415428030996,1.5741415428030996,1.4258584571969004,3.0,1,1.3241415428030996,0,4.0,3.0,1,2,1,0,1,0,0,0,0,7,,,,,,,213.64237704197876,213.64237704197876,214.65706350002438,214.976496249903,215.2127692080103,215.2127692080103,215.2127692080103,216.64336095796898,216.64336095796898,216.64336095796898,216.64336095796898,217.65648416685872,200005,002,2023-04-04_10h55.29.924,DMS_et_12-36,2022.2.4,None,
9,UNPRED,12,0.5741415428030996,1,images/picture_2.png,images/picture_1.png,0,"[-11.733433509789462, 11.733433509789464]",-11.733433509789462,11.733433509789464,images/picture_2.png,1,"[11.733433509789462, -11.733433509789466]",11.733433509789462,-11.733433509789464,images/picture_3.png,2,"[-11.733433509789466, -11.733433509789462]",-11.733433509789464,-11.733433509789462,0,1,1,0.5741415428030996,1.5741415428030996,1.4258584571969004,3.0,1,1.3241415428030996,0,4.0,3.0,1,2,1,0,1,0,0,1,1,0,,,,,,,217.65648416685872,217.65648416685872,218.65700762486085,218.99043920799159,219.22373491688631,219.22373491688631,219.22373491688631,220.65715420804918,220.65715420804918,220.65715420804918,220.65715420804918,221.67608104203828,200005,002,2023-04-04_10h55.29.924,DMS_et_12-36,2022.2.4,None,
11,UNPRED,12,0.5741415428030996,2,images/picture_3.png,images/picture_1.png,0,"[11.733433509789464, 11.733433509789462]",11.733433509789464,11.733433509789462,images/picture_2.png,1,"[-11.733433509789462, 11.733433509789464]",-11.733433509789462,11.733433509789464,images/picture_3.png,2,"[11.733433509789462, -11.733433509789466]",11.733433509789462,-11.733433509789464,0,1,1,0.5741415428030996,1.5741415428030996,1.4258584571969004,3.0,1,1.3241415428030996,0,4.0,3.0,1,2,1,0,1,0,0,2,2,2,,,,,,,221.67608104203828,221.67608104203828,222.6902323749382,223.00907208304852,223.22365283290856,223.22365283290856,223.22365283290856,224.65705062495545,224.65705062495545,224.65705062495545,224.65705062495545,225.65685299993493,200005,002,2023-04-04_10h55.29.924,DMS_et_12-36,2022.2.4,None,
13,UNPRED,12,0.5741415428030996,0,images/picture_1.png,images/picture_1.png,0,"[-11.733433509789462, 11.733433509789464]",-11.733433509789462,11.733433509789464,images/picture_2.png,1,"[11.733433509789462, -11.733433509789466]",11.733433509789462,-11.733433509789464,images/picture_3.png,2,"[-11.733433509789466, -11.733433509789462]",-11.733433509789464,-11.733433509789462,0,1,1,0.5741415428030996,1.5741415428030996,1.4258584571969004,3.0,1,1.3241415428030996,0,4.0,3.0,1,2,1,0,1,0,0,3,3,4,,,,,,,225.65685299993493,225.65685299993493,226.65718070790172,226.9904569168575,227.22387341689318,227.22387341689318,227.22387341689318,228.65687075001188,228.65687075001188,228.65687075001188,228.65687075001188,229.65602737502195,200005,002,2023-04-04_10h55.29.924,DMS_et_12-36,2022.2.4,None,
17,UNPRED,12,0.5741415428030996,1,images/picture_2.png,images/picture_1.png,0,"[11.733433509789462, -11.733433509789466]",11.733433509789462,-11.733433509789464,images/picture_2.png,1,"[-11.733433509789462, 11.733433509789464]",-11.733433509789462,11.733433509789464,images/picture_3.png,2,"[-11.733433509789466, -11.733433509789462]",-11.733433509789464,-11.733433509789462,0,1,1,0.5741415428030996,1.5741415428030996,1.4258584571969004,3.0,1,1.3241415428030996,0,4.0,3.0,1,2,1,0,1,0,0,4,4,8,,,,,,,229.65602737502195,229.65602737502195,230.6567665829789,230.99045920791104,231.22380283288658,231.22380283288658,231.22380283288658,232.65682391705923,232.65682391705923,232.65682391705923,232.65682391705923,233.65771408285946,200005,002,2023-04-04_10h55.29.924,DMS_et_12-36,2022.2.4,None,
15,UNPRED,12,0.5741415428030996,0,images/picture_1.png,images/picture_1.png,0,"[-11.733433509789462, 11.733433509789464]",-11.733433509789462,11.733433509789464,images/picture_2.png,1,"[11.733433509789464, 11.733433509789462]",11.733433509789464,11.733433509789462,images/picture_3.png,2,"[-11.733433509789466, -11.733433509789462]",-11.733433509789464,-11.733433509789462,0,1,1,0.5741415428030996,1.5741415428030996,1.4258584571969004,3.0,1,1.3241415428030996,0,4.0,3.0,1,2,1,0,1,0,0,5,5,6,,,,,,,233.65771408285946,233.65771408285946,234.6573262498714,234.9904070419725,235.22379283304326,235.22379283304326,235.22379283304326,236.65699595795013,236.65699595795013,236.65699595795013,236.65699595795013,237.6565010000486,200005,002,2023-04-04_10h55.29.924,DMS_et_12-36,2022.2.4,None,
14,UNPRED,12,0.5741415428030996,0,images/picture_1.png,images/picture_1.png,0,"[11.733433509789464, 11.733433509789462]",11.733433509789464,11.733433509789462,images/picture_2.png,1,"[-11.733433509789466, -11.733433509789462]",-11.733433509789464,-11.733433509789462,images/picture_3.png,2,"[11.733433509789462, -11.733433509789466]",11.733433509789462,-11.733433509789464,0,1,1,0.5741415428030996,1.5741415428030996,1.4258584571969004,3.0,1,1.3241415428030996,0,4.0,3.0,1,2,1,0,1,0,0,6,6,5,,,,,,,237.6565010000486,237.6565010000486,238.65696337493137,238.99045937485062,239.22371616703458,239.22371616703458,239.22371616703458,240.65711708297022,240.65711708297022,240.65711708297022,240.65711708297022,241.65644245804287,200005,002,2023-04-04_10h55.29.924,DMS_et_12-36,2022.2.4,None,
10,UNPRED,12,0.5741415428030996,0,images/picture_1.png,images/picture_1.png,0,"[-11.733433509789466, -11.733433509789462]",-11.733433509789464,-11.733433509789462,images/picture_2.png,1,"[-11.733433509789462, 11.733433509789464]",-11.733433509789462,11.733433509789464,images/picture_3.png,2,"[11.733433509789462, -11.733433509789466]",11.733433509789462,-11.733433509789464,0,1,1,0.5741415428030996,1.5741415428030996,1.4258584571969004,3.0,1,1.3241415428030996,0,4.0,3.0,1,2,1,0,1,0,0,7,7,1,,,,,,,241.65644245804287,241.65644245804287,242.65685229189694,242.99018395785242,243.2235628750641,243.2235628750641,243.2235628750641,244.65703374985605,244.65703374985605,244.65703374985605,244.65703374985605,245.65691433288157,200005,002,2023-04-04_10h55.29.924,DMS_et_12-36,2022.2.4,None,
12,UNPRED,12,0.5741415428030996,1,images/picture_2.png,images/picture_1.png,0,"[11.733433509789464, 11.733433509789462]",11.733433509789464,11.733433509789462,images/picture_2.png,1,"[11.733433509789462, -11.733433509789466]",11.733433509789462,-11.733433509789464,images/picture_3.png,2,"[-11.733433509789462, 11.733433509789464]",-11.733433509789462,11.733433509789464,0,1,1,0.5741415428030996,1.5741415428030996,1.4258584571969004,3.0,1,1.3241415428030996,0,4.0,3.0,1,2,1,0,1,0,0,8,8,3,,,,,,,245.65691433288157,245.65691433288157,246.65740062505938,246.9905122499913,247.2238125829026,247.2238125829026,247.2238125829026,248.65730891702697,248.65730891702697,248.65730891702697,248.65730891702697,249.68733112490736,200005,002,2023-04-04_10h55.29.924,DMS_et_12-36,2022.2.4,None,
,,,,,,,,,,,,,,,,,,,,,,,,,,,,,,,,,,,1,0,1,0,,,,,,,,,249.68733112490736,261.71725558303297,,,,,,,,,,,,,200005,002,2023-04-04_10h55.29.924,DMS_et_12-36,2022.2.4,None,
20,PRED,12,0.5741415428030996,2,images/picture_3.png,images/picture_1.png,0,"[11.733433509789464, 11.733433509789462]",11.733433509789464,11.733433509789462,images/picture_2.png,1,"[-11.733433509789462, 11.733433509789464]",-11.733433509789462,11.733433509789464,images/picture_3.png,2,"[-11.733433509789466, -11.733433509789462]",-11.733433509789464,-11.733433509789462,0,1,1,0.5741415428030996,1.5741415428030996,1.4258584571969004,3.0,1,1.3241415428030996,0,4.0,3.0,1,2,2,0,2,0,0,0,0,2,,,,,,,261.71725558303297,261.71725558303297,262.72379649989307,263.04341391683556,263.27933812490664,263.27933812490664,263.27933812490664,264.7098835420329,264.7098835420329,264.7098835420329,264.7098835420329,265.74261499987915,200005,002,2023-04-04_10h55.29.924,DMS_et_12-36,2022.2.4,None,
19,PRED,12,0.5741415428030996,2,images/picture_3.png,images/picture_1.png,0,"[-11.733433509789462, 11.733433509789464]",-11.733433509789462,11.733433509789464,images/picture_2.png,1,"[-11.733433509789466, -11.733433509789462]",-11.733433509789464,-11.733433509789462,images/picture_3.png,2,"[11.733433509789462, -11.733433509789466]",11.733433509789462,-11.733433509789464,0,1,1,0.5741415428030996,1.5741415428030996,1.4258584571969004,3.0,1,1.3241415428030996,0,4.0,3.0,1,2,2,0,2,0,0,1,1,1,,,,,,,265.74261499987915,265.74261499987915,266.757085833,267.0765181670431,267.29117416683584,267.29117416683584,267.29117416683584,268.723772832891,268.723772832891,268.723772832891,268.723772832891,269.74289045785554,200005,002,2023-04-04_10h55.29.924,DMS_et_12-36,2022.2.4,None,
26,PRED,12,0.5741415428030996,2,images/picture_3.png,images/picture_1.png,0,"[-11.733433509789462, 11.733433509789464]",-11.733433509789462,11.733433509789464,images/picture_2.png,1,"[11.733433509789462, -11.733433509789466]",11.733433509789462,-11.733433509789464,images/picture_3.png,2,"[11.733433509789464, 11.733433509789462]",11.733433509789464,11.733433509789462,0,1,1,0.5741415428030996,1.5741415428030996,1.4258584571969004,3.0,1,1.3241415428030996,0,4.0,3.0,1,2,2,0,2,0,0,2,2,8,,,,,,,269.74289045785554,269.74289045785554,270.75721429195255,271.0766316249501,271.29033670783974,271.29033670783974,271.29033670783974,272.7237459998578,272.7237459998578,272.7237459998578,272.7237459998578,273.72439591703005,200005,002,2023-04-04_10h55.29.924,DMS_et_12-36,2022.2.4,None,
22,PRED,12,0.5741415428030996,2,images/picture_3.png,images/picture_1.png,0,"[11.733433509789464, 11.733433509789462]",11.733433509789464,11.733433509789462,images/picture_2.png,1,"[-11.733433509789462, 11.733433509789464]",-11.733433509789462,11.733433509789464,images/picture_3.png,2,"[11.733433509789462, -11.733433509789466]",11.733433509789462,-11.733433509789464,0,1,1,0.5741415428030996,1.5741415428030996,1.4258584571969004,3.0,1,1.3241415428030996,0,4.0,3.0,1,2,2,0,2,0,0,3,3,4,,,,,,,273.72439591703005,273.72439591703005,274.72371958289295,275.0572167078499,275.29044962488115,275.29044962488115,275.29044962488115,276.72383245802484,276.72383245802484,276.72383245802484,276.72383245802484,277.74253266700543,200005,002,2023-04-04_10h55.29.924,DMS_et_12-36,2022.2.4,None,
23,PRED,12,0.5741415428030996,2,images/picture_3.png,images/picture_1.png,0,"[-11.733433509789462, 11.733433509789464]",-11.733433509789462,11.733433509789464,images/picture_2.png,1,"[-11.733433509789466, -11.733433509789462]",-11.733433509789464,-11.733433509789462,images/picture_3.png,2,"[11.733433509789462, -11.733433509789466]",11.733433509789462,-11.733433509789464,0,1,1,0.5741415428030996,1.5741415428030996,1.4258584571969004,3.0,1,1.3241415428030996,0,4.0,3.0,1,2,2,0,2,0,0,4,4,5,,,,,,,277.74253266700543,277.74253266700543,278.75719887483865,279.07659112499095,279.2904383330606,279.2904383330606,279.2904383330606,280.72376712504774,280.72376712504774,280.72376712504774,280.72376712504774,281.74336012499407,200005,002,2023-04-04_10h55.29.924,DMS_et_12-36,2022.2.4,None,
18,PRED,12,0.5741415428030996,2,images/picture_3.png,images/picture_1.png,0,"[11.733433509789464, 11.733433509789462]",11.733433509789464,11.733433509789462,images/picture_2.png,1,"[11.733433509789462, -11.733433509789466]",11.733433509789462,-11.733433509789464,images/picture_3.png,2,"[-11.733433509789462, 11.733433509789464]",-11.733433509789462,11.733433509789464,0,1,1,0.5741415428030996,1.5741415428030996,1.4258584571969004,3.0,1,1.3241415428030996,0,4.0,3.0,1,2,2,0,2,0,0,5,5,0,,,,,,,281.74336012499407,281.74336012499407,282.7572045829147,283.07611662498675,283.2905076248571,283.2905076248571,283.2905076248571,284.7235333749559,284.7235333749559,284.7235333749559,284.7235333749559,285.7425715420395,200005,002,2023-04-04_10h55.29.924,DMS_et_12-36,2022.2.4,None,
24,PRED,12,0.5741415428030996,2,images/picture_3.png,images/picture_1.png,0,"[-11.733433509789466, -11.733433509789462]",-11.733433509789464,-11.733433509789462,images/picture_2.png,1,"[11.733433509789464, 11.733433509789462]",11.733433509789464,11.733433509789462,images/picture_3.png,2,"[-11.733433509789462, 11.733433509789464]",-11.733433509789462,11.733433509789464,0,1,1,0.5741415428030996,1.5741415428030996,1.4258584571969004,3.0,1,1.3241415428030996,0,4.0,3.0,1,2,2,0,2,0,0,6,6,6,,,,,,,285.7425715420395,285.7425715420395,286.7569595419336,287.07679454190657,287.2905119578354,287.2905119578354,287.2905119578354,288.72372387489304,288.72372387489304,288.72372387489304,288.72372387489304,289.7426869168412,200005,002,2023-04-04_10h55.29.924,DMS_et_12-36,2022.2.4,None,
21,PRED,12,0.5741415428030996,2,images/picture_3.png,images/picture_1.png,0,"[-11.733433509789462, 11.733433509789464]",-11.733433509789462,11.733433509789464,images/picture_2.png,1,"[11.733433509789462, -11.733433509789466]",11.733433509789462,-11.733433509789464,images/picture_3.png,2,"[11.733433509789464, 11.733433509789462]",11.733433509789464,11.733433509789462,0,1,1,0.5741415428030996,1.5741415428030996,1.4258584571969004,3.0,1,1.3241415428030996,0,4.0,3.0,1,2,2,0,2,0,0,7,7,3,,,,,,,289.7426869168412,289.7426869168412,290.75723083293997,291.0770396669395,291.2905022499617,291.2905022499617,291.2905022499617,292.7237420419697,292.7237420419697,292.7237420419697,292.7237420419697,293.7426564579364,200005,002,2023-04-04_10h55.29.924,DMS_et_12-36,2022.2.4,None,
25,PRED,12,0.5741415428030996,2,images/picture_3.png,images/picture_1.png,0,"[11.733433509789464, 11.733433509789462]",11.733433509789464,11.733433509789462,images/picture_2.png,1,"[-11.733433509789466, -11.733433509789462]",-11.733433509789464,-11.733433509789462,images/picture_3.png,2,"[11.733433509789462, -11.733433509789466]",11.733433509789462,-11.733433509789464,0,1,1,0.5741415428030996,1.5741415428030996,1.4258584571969004,3.0,1,1.3241415428030996,0,4.0,3.0,1,2,2,0,2,0,0,8,8,7,,,,,,,293.7426564579364,293.7426564579364,294.7568894168362,295.07579745794646,295.290295667015,295.290295667015,295.290295667015,296.72377958288416,296.72377958288416,296.72377958288416,296.72377958288416,297.7662023329176,200005,002,2023-04-04_10h55.29.924,DMS_et_12-36,2022.2.4,None,
,,,,,,,,,,,,,,,,,,,,,,,,,,,,,,,,,,,2,0,2,0,,,,,,,,,297.7662023329176,309.78990712505765,,,,,,,,,,,,,200005,002,2023-04-04_10h55.29.924,DMS_et_12-36,2022.2.4,None,
32,UNPRED,12,0.5741415428030996,0,images/picture_1.png,images/picture_1.png,0,"[11.733433509789462, -11.733433509789466]",11.733433509789462,-11.733433509789464,images/picture_2.png,1,"[11.733433509789464, 11.733433509789462]",11.733433509789464,11.733433509789462,images/picture_3.png,2,"[-11.733433509789466, -11.733433509789462]",-11.733433509789464,-11.733433509789462,0,1,1,0.5741415428030996,1.5741415428030996,1.4258584571969004,3.0,1,1.3241415428030996,0,4.0,3.0,1,2,3,0,3,0,0,0,0,5,,,,,,,309.78990712505765,309.78990712505765,310.79056158289313,311.1240568328649,311.35726425005123,311.35726425005123,311.35726425005123,312.7905343750026,312.7905343750026,312.7905343750026,312.7905343750026,313.78992529190145,200005,002,2023-04-04_10h55.29.924,DMS_et_12-36,2022.2.4,None,
29,UNPRED,12,0.5741415428030996,0,images/picture_1.png,images/picture_1.png,0,"[-11.733433509789466, -11.733433509789462]",-11.733433509789464,-11.733433509789462,images/picture_2.png,1,"[11.733433509789462, -11.733433509789466]",11.733433509789462,-11.733433509789464,images/picture_3.png,2,"[11.733433509789464, 11.733433509789462]",11.733433509789464,11.733433509789462,0,1,1,0.5741415428030996,1.5741415428030996,1.4258584571969004,3.0,1,1.3241415428030996,0,4.0,3.0,1,2,3,0,3,0,0,1,1,2,,,,,,,313.78992529190145,313.78992529190145,314.7902366248891,315.1237047079485,315.3568462920375,315.3568462920375,315.3568462920375,316.7905055000447,316.7905055000447,316.7905055000447,316.7905055000447,317.7899851668626,200005,002,2023-04-04_10h55.29.924,DMS_et_12-36,2022.2.4,None,
34,UNPRED,12,0.5741415428030996,0,images/picture_1.png,images/picture_1.png,0,"[11.733433509789464, 11.733433509789462]",11.733433509789464,11.733433509789462,images/picture_2.png,1,"[-11.733433509789462, 11.733433509789464]",-11.733433509789462,11.733433509789464,images/picture_3.png,2,"[-11.733433509789466, -11.733433509789462]",-11.733433509789464,-11.733433509789462,0,1,1,0.5741415428030996,1.5741415428030996,1.4258584571969004,3.0,1,1.3241415428030996,0,4.0,3.0,1,2,3,0,3,0,0,2,2,7,,,,,,,317.7899851668626,317.7899851668626,318.7904907078482,319.1237700418569,319.35721187503077,319.35721187503077,319.35721187503077,320.7904732080642,320.7904732080642,320.7904732080642,320.7904732080642,321.8092394999694,200005,002,2023-04-04_10h55.29.924,DMS_et_12-36,2022.2.4,None,
27,UNPRED,12,0.5741415428030996,2,images/picture_3.png,images/picture_1.png,0,"[11.733433509789462, -11.733433509789466]",11.733433509789462,-11.733433509789464,images/picture_2.png,1,"[-11.733433509789462, 11.733433509789464]",-11.733433509789462,11.733433509789464,images/picture_3.png,2,"[-11.733433509789466, -11.733433509789462]",-11.733433509789464,-11.733433509789462,0,1,1,0.5741415428030996,1.5741415428030996,1.4258584571969004,3.0,1,1.3241415428030996,0,4.0,3.0,1,2,3,0,3,0,0,3,3,0,,,,,,,321.8092394999694,321.8092394999694,322.8237624168396,323.14345249999315,323.3571970418561,323.3571970418561,323.3571970418561,324.7903117078822,324.7903117078822,324.7903117078822,324.7903117078822,325.79038987495005,200005,002,2023-04-04_10h55.29.924,DMS_et_12-36,2022.2.4,None,
31,UNPRED,12,0.5741415428030996,0,images/picture_1.png,images/picture_1.png,0,"[-11.733433509789466, -11.733433509789462]",-11.733433509789464,-11.733433509789462,images/picture_2.png,1,"[11.733433509789464, 11.733433509789462]",11.733433509789464,11.733433509789462,images/picture_3.png,2,"[11.733433509789462, -11.733433509789466]",11.733433509789462,-11.733433509789464,0,1,1,0.5741415428030996,1.5741415428030996,1.4258584571969004,3.0,1,1.3241415428030996,0,4.0,3.0,1,2,3,0,3,0,0,4,4,4,,,,,,,325.79038987495005,325.79038987495005,326.79047979204915,327.12368795787916,327.35726287495345,327.35726287495345,327.35726287495345,328.7905350420624,328.7905350420624,328.7905350420624,328.7905350420624,329.809409041889,200005,002,2023-04-04_10h55.29.924,DMS_et_12-36,2022.2.4,None,
33,UNPRED,12,0.5741415428030996,2,images/picture_3.png,images/picture_1.png,0,"[11.733433509789462, -11.733433509789466]",11.733433509789462,-11.733433509789464,images/picture_2.png,1,"[11.733433509789464, 11.733433509789462]",11.733433509789464,11.733433509789462,images/picture_3.png,2,"[-11.733433509789466, -11.733433509789462]",-11.733433509789464,-11.733433509789462,0,1,1,0.5741415428030996,1.5741415428030996,1.4258584571969004,3.0,1,1.3241415428030996,0,4.0,3.0,1,2,3,0,3,0,0,5,5,6,,,,,,,329.809409041889,329.809409041889,330.8238013328519,331.1434168328997,331.35733374999836,331.35733374999836,331.35733374999836,332.79070400004275,332.79070400004275,332.79070400004275,332.79070400004275,333.81027975003235,200005,002,2023-04-04_10h55.29.924,DMS_et_12-36,2022.2.4,None,
28,UNPRED,12,0.5741415428030996,1,images/picture_2.png,images/picture_1.png,0,"[11.733433509789462, -11.733433509789466]",11.733433509789462,-11.733433509789464,images/picture_2.png,1,"[-11.733433509789466, -11.733433509789462]",-11.733433509789464,-11.733433509789462,images/picture_3.png,2,"[-11.733433509789462, 11.733433509789464]",-11.733433509789462,11.733433509789464,0,1,1,0.5741415428030996,1.5741415428030996,1.4258584571969004,3.0,1,1.3241415428030996,0,4.0,3.0,1,2,3,0,3,0,0,6,6,1,,,,,,,333.81027975003235,333.81027975003235,334.82388345804065,335.1431759169791,335.35695674992166,335.35695674992166,335.35695674992166,336.7905113750603,336.7905113750603,336.7905113750603,336.7905113750603,337.78959595784545,200005,002,2023-04-04_10h55.29.924,DMS_et_12-36,2022.2.4,None,
30,UNPRED,12,0.5741415428030996,1,images/picture_2.png,images/picture_1.png,0,"[11.733433509789462, -11.733433509789466]",11.733433509789462,-11.733433509789464,images/picture_2.png,1,"[-11.733433509789466, -11.733433509789462]",-11.733433509789464,-11.733433509789462,images/picture_3.png,2,"[11.733433509789464, 11.733433509789462]",11.733433509789464,11.733433509789462,0,1,1,0.5741415428030996,1.5741415428030996,1.4258584571969004,3.0,1,1.3241415428030996,0,4.0,3.0,1,2,3,0,3,0,0,7,7,3,,,,,,,337.78959595784545,337.78959595784545,338.7906877498608,339.1239554998465,339.35726016690023,339.35726016690023,339.35726016690023,340.7905249169562,340.7905249169562,340.7905249169562,340.7905249169562,341.80966545804404,200005,002,2023-04-04_10h55.29.924,DMS_et_12-36,2022.2.4,None,
35,UNPRED,12,0.5741415428030996,2,images/picture_3.png,images/picture_1.png,0,"[-11.733433509789462, 11.733433509789464]",-11.733433509789462,11.733433509789464,images/picture_2.png,1,"[11.733433509789464, 11.733433509789462]",11.733433509789464,11.733433509789462,images/picture_3.png,2,"[-11.733433509789466, -11.733433509789462]",-11.733433509789464,-11.733433509789462,0,1,1,0.5741415428030996,1.5741415428030996,1.4258584571969004,3.0,1,1.3241415428030996,0,4.0,3.0,1,2,3,0,3,0,0,8,8,8,,,,,,,341.80966545804404,341.80966545804404,342.8239965829998,343.1436792500317,343.3572090829257,343.3572090829257,343.3572090829257,344.7906767919194,344.7906767919194,344.7906767919194,344.7906767919194,345.8250753330067,200005,002,2023-04-04_10h55.29.924,DMS_et_12-36,2022.2.4,None,
,,,,,,,,,,,,,,,,,,,,,,,,,,,,,,,,,,,3,0,3,0,,,,,,,,,345.8250753330067,357.8466715000104,,,,,,,,,,,,,200005,002,2023-04-04_10h55.29.924,DMS_et_12-36,2022.2.4,None,
40,PRED,12,0.5741415428030996,0,images/picture_1.png,images/picture_1.png,0,"[11.733433509789462, -11.733433509789466]",11.733433509789462,-11.733433509789464,images/picture_2.png,1,"[-11.733433509789462, 11.733433509789464]",-11.733433509789462,11.733433509789464,images/picture_3.png,2,"[11.733433509789464, 11.733433509789462]",11.733433509789464,11.733433509789462,0,1,1,0.5741415428030996,1.5741415428030996,1.4258584571969004,3.0,1,1.3241415428030996,0,4.0,3.0,1,2,4,0,4,0,0,0,0,4,,,,,,,357.8466715000104,357.8466715000104,358.8573103749659,359.17684037494473,359.42378695798106,359.42378695798106,359.42378695798106,360.84368387493305,360.8572965830099,360.8572965830099,360.8572965830099,361.8566545830108,200005,002,2023-04-04_10h55.29.924,DMS_et_12-36,2022.2.4,None,
42,PRED,12,0.5741415428030996,0,images/picture_1.png,images/picture_1.png,0,"[11.733433509789462, -11.733433509789466]",11.733433509789462,-11.733433509789464,images/picture_2.png,1,"[-11.733433509789466, -11.733433509789462]",-11.733433509789464,-11.733433509789462,images/picture_3.png,2,"[-11.733433509789462, 11.733433509789464]",-11.733433509789462,11.733433509789464,0,1,1,0.5741415428030996,1.5741415428030996,1.4258584571969004,3.0,1,1.3241415428030996,0,4.0,3.0,1,2,4,0,4,0,0,1,1,6,,,,,,,361.8566545830108,361.8566545830108,362.8571702078916,363.19077620794997,363.42381662502885,363.42381662502885,363.42381662502885,364.8572747078724,364.8572747078724,364.8572747078724,364.8572747078724,365.85687833302654,200005,002,2023-04-04_10h55.29.924,DMS_et_12-36,2022.2.4,None,
43,PRED,12,0.5741415428030996,0,images/picture_1.png,images/picture_1.png,0,"[11.733433509789462, -11.733433509789466]",11.733433509789462,-11.733433509789464,images/picture_2.png,1,"[-11.733433509789462, 11.733433509789464]",-11.733433509789462,11.733433509789464,images/picture_3.png,2,"[11.733433509789464, 11.733433509789462]",11.733433509789464,11.733433509789462,0,1,1,0.5741415428030996,1.5741415428030996,1.4258584571969004,3.0,1,1.3241415428030996,0,4.0,3.0,1,2,4,0,4,0,0,2,2,7,,,,,,,365.85687833302654,365.85687833302654,366.85702108289115,367.1905023329891,367.4240049999207,367.4240049999207,367.4240049999207,368.8569937918801,368.8569937918801,368.8569937918801,368.8569937918801,369.8564784580376,200005,002,2023-04-04_10h55.29.924,DMS_et_12-36,2022.2.4,None,
38,PRED,12,0.5741415428030996,0,images/picture_1.png,images/picture_1.png,0,"[11.733433509789462, -11.733433509789466]",11.733433509789462,-11.733433509789464,images/picture_2.png,1,"[-11.733433509789462, 11.733433509789464]",-11.733433509789462,11.733433509789464,images/picture_3.png,2,"[-11.733433509789466, -11.733433509789462]",-11.733433509789464,-11.733433509789462,0,1,1,0.5741415428030996,1.5741415428030996,1.4258584571969004,3.0,1,1.3241415428030996,0,4.0,3.0,1,2,4,0,4,0,0,3,3,2,,,,,,,369.8564784580376,369.8564784580376,370.8569908749778,371.1904681250453,371.4236947919708,371.4236947919708,371.4236947919708,372.857081374852,372.857081374852,372.857081374852,372.857081374852,373.85638841683976,200005,002,2023-04-04_10h55.29.924,DMS_et_12-36,2022.2.4,None,
39,PRED,12,0.5741415428030996,0,images/picture_1.png,images/picture_1.png,0,"[11.733433509789462, -11.733433509789466]",11.733433509789462,-11.733433509789464,images/picture_2.png,1,"[-11.733433509789466, -11.733433509789462]",-11.733433509789464,-11.733433509789462,images/picture_3.png,2,"[-11.733433509789462, 11.733433509789464]",-11.733433509789462,11.733433509789464,0,1,1,0.5741415428030996,1.5741415428030996,1.4258584571969004,3.0,1,1.3241415428030996,0,4.0,3.0,1,2,4,0,4,0,0,4,4,3,,,,,,,373.85638841683976,373.85638841683976,374.85710183298215,375.19034491688944,375.42372204200365,375.42372204200365,375.42372204200365,376.856746125035,376.856746125035,376.856746125035,376.856746125035,377.85678066685796,200005,002,2023-04-04_10h55.29.924,DMS_et_12-36,2022.2.4,None,
44,PRED,12,0.5741415428030996,0,images/picture_1.png,images/picture_1.png,0,"[11.733433509789464, 11.733433509789462]",11.733433509789464,11.733433509789462,images/picture_2.png,1,"[-11.733433509789462, 11.733433509789464]",-11.733433509789462,11.733433509789464,images/picture_3.png,2,"[11.733433509789462, -11.733433509789466]",11.733433509789462,-11.733433509789464,0,1,1,0.5741415428030996,1.5741415428030996,1.4258584571969004,3.0,1,1.3241415428030996,0,4.0,3.0,1,2,4,0,4,0,0,5,5,8,,,,,,,377.85678066685796,377.85678066685796,378.85701895784587,379.190531082917,379.4236502079293,379.4236502079293,379.4236502079293,380.85702200001106,380.85702200001106,380.85702200001106,380.85702200001106,381.856813166989,200005,002,2023-04-04_10h55.29.924,DMS_et_12-36,2022.2.4,None,
41,PRED,12,0.5741415428030996,0,images/picture_1.png,images/picture_1.png,0,"[11.733433509789462, -11.733433509789466]",11.733433509789462,-11.733433509789464,images/picture_2.png,1,"[11.733433509789464, 11.733433509789462]",11.733433509789464,11.733433509789462,images/picture_3.png,2,"[-11.733433509789462, 11.733433509789464]",-11.733433509789462,11.733433509789464,0,1,1,0.5741415428030996,1.5741415428030996,1.4258584571969004,3.0,1,1.3241415428030996,0,4.0,3.0,1,2,4,0,4,0,0,6,6,5,,,,,,,381.856813166989,381.856813166989,382.8570310419891,383.19008283293806,383.4237444170285,383.4237444170285,383.4237444170285,384.85703791701235,384.85703791701235,384.85703791701235,384.85703791701235,385.8568344998639,200005,002,2023-04-04_10h55.29.924,DMS_et_12-36,2022.2.4,None,
36,PRED,12,0.5741415428030996,0,images/picture_1.png,images/picture_1.png,0,"[-11.733433509789462, 11.733433509789464]",-11.733433509789462,11.733433509789464,images/picture_2.png,1,"[11.733433509789462, -11.733433509789466]",11.733433509789462,-11.733433509789464,images/picture_3.png,2,"[11.733433509789464, 11.733433509789462]",11.733433509789464,11.733433509789462,0,1,1,0.5741415428030996,1.5741415428030996,1.4258584571969004,3.0,1,1.3241415428030996,0,4.0,3.0,1,2,4,0,4,0,0,7,7,0,,,,,,,385.8568344998639,385.8568344998639,386.8567407920491,387.1900392919779,387.4233822079841,387.4233822079841,387.4233822079841,388.8570228749886,388.8570228749886,388.8570228749886,388.8570228749886,389.8564518329222,200005,002,2023-04-04_10h55.29.924,DMS_et_12-36,2022.2.4,None,
37,PRED,12,0.5741415428030996,0,images/picture_1.png,images/picture_1.png,0,"[-11.733433509789462, 11.733433509789464]",-11.733433509789462,11.733433509789464,images/picture_2.png,1,"[-11.733433509789466, -11.733433509789462]",-11.733433509789464,-11.733433509789462,images/picture_3.png,2,"[11.733433509789464, 11.733433509789462]",11.733433509789464,11.733433509789462,0,1,1,0.5741415428030996,1.5741415428030996,1.4258584571969004,3.0,1,1.3241415428030996,0,4.0,3.0,1,2,4,0,4,0,0,8,8,1,,,,,,,389.8564518329222,389.8564518329222,390.8570514579769,391.1904840830248,391.42372204200365,391.42372204200365,391.42372204200365,392.8570305418689,392.8570305418689,392.8570305418689,392.8570305418689,393.9224036249798,200005,002,2023-04-04_10h55.29.924,DMS_et_12-36,2022.2.4,None,
,,,,,,,,,,,,,,,,,,,,,,,,,,,,,,,,,,,4,0,4,0,,,,,,,,,393.9224036249798,405.9429195418488,,,,,,,,,,,,,200005,002,2023-04-04_10h55.29.924,DMS_et_12-36,2022.2.4,None,
53,UNPRED,12,0.5741415428030996,0,images/picture_1.png,images/picture_1.png,0,"[11.733433509789462, -11.733433509789466]",11.733433509789462,-11.733433509789464,images/picture_2.png,1,"[-11.733433509789466, -11.733433509789462]",-11.733433509789464,-11.733433509789462,images/picture_3.png,2,"[11.733433509789464, 11.733433509789462]",11.733433509789464,11.733433509789462,0,1,1,0.5741415428030996,1.5741415428030996,1.4258584571969004,3.0,1,1.3241415428030996,0,4.0,3.0,1,2,5,0,5,0,0,0,0,8,,,,,,,405.9429195418488,405.9429195418488,406.9566909170244,407.27642245800234,407.5235729168635,407.5235729168635,407.5235729168635,408.94295470789075,408.95701812487096,408.95701812487096,408.95701812487096,409.97581774997525,200005,002,2023-04-04_10h55.29.924,DMS_et_12-36,2022.2.4,None,
50,UNPRED,12,0.5741415428030996,2,images/picture_3.png,images/picture_1.png,0,"[-11.733433509789462, 11.733433509789464]",-11.733433509789462,11.733433509789464,images/picture_2.png,1,"[11.733433509789464, 11.733433509789462]",11.733433509789464,11.733433509789462,images/picture_3.png,2,"[-11.733433509789466, -11.733433509789462]",-11.733433509789464,-11.733433509789462,0,1,1,0.5741415428030996,1.5741415428030996,1.4258584571969004,3.0,1,1.3241415428030996,0,4.0,3.0,1,2,5,0,5,0,0,1,1,5,,,,,,,409.97581774997525,409.97581774997525,410.99029545788653,411.3098687080201,411.52367633301765,411.52367633301765,411.52367633301765,412.9570121250581,412.9570121250581,412.9570121250581,412.9570121250581,413.97671129205264,200005,002,2023-04-04_10h55.29.924,DMS_et_12-36,2022.2.4,None,
46,UNPRED,12,0.5741415428030996,1,images/picture_2.png,images/picture_1.png,0,"[11.733433509789462, -11.733433509789466]",11.733433509789462,-11.733433509789464,images/picture_2.png,1,"[-11.733433509789466, -11.733433509789462]",-11.733433509789464,-11.733433509789462,images/picture_3.png,2,"[11.733433509789464, 11.733433509789462]",11.733433509789464,11.733433509789462,0,1,1,0.5741415428030996,1.5741415428030996,1.4258584571969004,3.0,1,1.3241415428030996,0,4.0,3.0,1,2,5,0,5,0,0,2,2,1,,,,,,,413.97671129205264,413.97671129205264,414.9902754998766,415.3096220418811,415.5236805828754,415.5236805828754,415.5236805828754,416.95703674992546,416.95703674992546,416.95703674992546,416.95703674992546,417.9756081670057,200005,002,2023-04-04_10h55.29.924,DMS_et_12-36,2022.2.4,None,
47,UNPRED,12,0.5741415428030996,2,images/picture_3.png,images/picture_1.png,0,"[11.733433509789462, -11.733433509789466]",11.733433509789462,-11.733433509789464,images/picture_2.png,1,"[-11.733433509789462, 11.733433509789464]",-11.733433509789462,11.733433509789464,images/picture_3.png,2,"[11.733433509789464, 11.733433509789462]",11.733433509789464,11.733433509789462,0,1,1,0.5741415428030996,1.5741415428030996,1.4258584571969004,3.0,1,1.3241415428030996,0,4.0,3.0,1,2,5,0,5,0,0,3,3,2,,,,,,,417.9756081670057,417.9756081670057,418.9902914578561,419.3098730419297,419.52355241705664,419.52355241705664,419.52355241705664,420.9569754169788,420.9569754169788,420.9569754169788,420.9569754169788,421.95729254186153,200005,002,2023-04-04_10h55.29.924,DMS_et_12-36,2022.2.4,None,
51,UNPRED,12,0.5741415428030996,0,images/picture_1.png,images/picture_1.png,0,"[11.733433509789462, -11.733433509789466]",11.733433509789462,-11.733433509789464,images/picture_2.png,1,"[-11.733433509789462, 11.733433509789464]",-11.733433509789462,11.733433509789464,images/picture_3.png,2,"[-11.733433509789466, -11.733433509789462]",-11.733433509789464,-11.733433509789462,0,1,1,0.5741415428030996,1.5741415428030996,1.4258584571969004,3.0,1,1.3241415428030996,0,4.0,3.0,1,2,5,0,5,0,0,4,4,6,,,,,,,421.95729254186153,421.95729254186153,422.9570130419452,423.290256582899,423.52369795786217,423.52369795786217,423.52369795786217,424.95701487502083,424.95701487502083,424.95701487502083,424.95701487502083,425.9757497499231,200005,002,2023-04-04_10h55.29.924,DMS_et_12-36,2022.2.4,None,
49,UNPRED,12,0.5741415428030996,2,images/picture_3.png,images/picture_1.png,0,"[-11.733433509789462, 11.733433509789464]",-11.733433509789462,11.733433509789464,images/picture_2.png,1,"[11.733433509789464, 11.733433509789462]",11.733433509789464,11.733433509789462,images/picture_3.png,2,"[11.733433509789462, -11.733433509789466]",11.733433509789462,-11.733433509789464,0,1,1,0.5741415428030996,1.5741415428030996,1.4258584571969004,3.0,1,1.3241415428030996,0,4.0,3.0,1,2,5,0,5,0,0,5,5,4,,,,,,,425.9757497499231,425.9757497499231,426.99021412502043,427.30978054204024,427.5234426248353,427.5234426248353,427.5234426248353,428.95702720806,428.95702720806,428.95702720806,428.95702720806,429.9561669579707,200005,002,2023-04-04_10h55.29.924,DMS_et_12-36,2022.2.4,None,
48,UNPRED,12,0.5741415428030996,0,images/picture_1.png,images/picture_1.png,0,"[11.733433509789464, 11.733433509789462]",11.733433509789464,11.733433509789462,images/picture_2.png,1,"[11.733433509789462, -11.733433509789466]",11.733433509789462,-11.733433509789464,images/picture_3.png,2,"[-11.733433509789462, 11.733433509789464]",-11.733433509789462,11.733433509789464,0,1,1,0.5741415428030996,1.5741415428030996,1.4258584571969004,3.0,1,1.3241415428030996,0,4.0,3.0,1,2,5,0,5,0,0,6,6,3,,,,,,,429.9561669579707,429.9561669579707,430.9569836249575,431.2903230418451,431.52385508292355,431.52385508292355,431.52385508292355,432.9570033750497,432.9570033750497,432.9570033750497,432.9570033750497,433.95608220784925,200005,002,2023-04-04_10h55.29.924,DMS_et_12-36,2022.2.4,None,
45,UNPRED,12,0.5741415428030996,1,images/picture_2.png,images/picture_1.png,0,"[-11.733433509789462, 11.733433509789464]",-11.733433509789462,11.733433509789464,images/picture_2.png,1,"[-11.733433509789466, -11.733433509789462]",-11.733433509789464,-11.733433509789462,images/picture_3.png,2,"[11.733433509789464, 11.733433509789462]",11.733433509789464,11.733433509789462,0,1,1,0.5741415428030996,1.5741415428030996,1.4258584571969004,3.0,1,1.3241415428030996,0,4.0,3.0,1,2,5,0,5,0,0,7,7,0,,,,,,,433.95608220784925,433.95608220784925,434.95700333290733,435.2902678330429,435.52375125000253,435.52375125000253,435.52375125000253,436.95705387485214,436.95705387485214,436.95705387485214,436.95705387485214,437.9571431670338,200005,002,2023-04-04_10h55.29.924,DMS_et_12-36,2022.2.4,None,
52,UNPRED,12,0.5741415428030996,1,images/picture_2.png,images/picture_1.png,0,"[-11.733433509789466, -11.733433509789462]",-11.733433509789464,-11.733433509789462,images/picture_2.png,1,"[11.733433509789464, 11.733433509789462]",11.733433509789464,11.733433509789462,images/picture_3.png,2,"[-11.733433509789462, 11.733433509789464]",-11.733433509789462,11.733433509789464,0,1,1,0.5741415428030996,1.5741415428030996,1.4258584571969004,3.0,1,1.3241415428030996,0,4.0,3.0,1,2,5,0,5,0,0,8,8,7,,,,,,,437.9571431670338,437.9571431670338,438.9570006248541,439.2902620418463,439.5235904168803,439.5235904168803,439.5235904168803,440.95699337497354,440.95699337497354,440.95699337497354,440.95699337497354,442.0975457499735,200005,002,2023-04-04_10h55.29.924,DMS_et_12-36,2022.2.4,None,
,,,,,,,,,,,,,,,,,,,,,,,,,,,,,,,,,,,5,0,5,0,,,,,,,,,442.0975457499735,454.1356628329959,,,,,,,,,,,,,200005,002,2023-04-04_10h55.29.924,DMS_et_12-36,2022.2.4,None,
62,PRED,12,0.5741415428030996,2,images/picture_3.png,images/picture_1.png,0,"[-11.733433509789466, -11.733433509789462]",-11.733433509789464,-11.733433509789462,images/picture_2.png,1,"[11.733433509789464, 11.733433509789462]",11.733433509789464,11.733433509789462,images/picture_3.png,2,"[-11.733433509789462, 11.733433509789464]",-11.733433509789462,11.733433509789464,0,1,1,0.5741415428030996,1.5741415428030996,1.4258584571969004,3.0,1,1.3241415428030996,0,4.0,3.0,1,2,6,0,6,0,0,0,0,8,,,,,,,454.1356628329959,454.1356628329959,455.14386216690764,455.4567654170096,455.6904545829166,455.6904545829166,455.6904545829166,457.1238278329838,457.1238278329838,457.1238278329838,457.1238278329838,458.14257874991745,200005,002,2023-04-04_10h55.29.924,DMS_et_12-36,2022.2.4,None,
57,PRED,12,0.5741415428030996,2,images/picture_3.png,images/picture_1.png,0,"[-11.733433509789462, 11.733433509789464]",-11.733433509789462,11.733433509789464,images/picture_2.png,1,"[11.733433509789462, -11.733433509789466]",11.733433509789462,-11.733433509789464,images/picture_3.png,2,"[-11.733433509789466, -11.733433509789462]",-11.733433509789464,-11.733433509789462,0,1,1,0.5741415428030996,1.5741415428030996,1.4258584571969004,3.0,1,1.3241415428030996,0,4.0,3.0,1,2,6,0,6,0,0,1,1,3,,,,,,,458.14257874991745,458.14257874991745,459.15680708293803,459.4759869999252,459.6902901669964,459.6902901669964,459.6902901669964,461.12372733303346,461.12372733303346,461.12372733303346,461.12372733303346,462.1429747079965,200005,002,2023-04-04_10h55.29.924,DMS_et_12-36,2022.2.4,None,
56,PRED,12,0.5741415428030996,2,images/picture_3.png,images/picture_1.png,0,"[-11.733433509789466, -11.733433509789462]",-11.733433509789464,-11.733433509789462,images/picture_2.png,1,"[11.733433509789464, 11.733433509789462]",11.733433509789464,11.733433509789462,images/picture_3.png,2,"[-11.733433509789462, 11.733433509789464]",-11.733433509789462,11.733433509789464,0,1,1,0.5741415428030996,1.5741415428030996,1.4258584571969004,3.0,1,1.3241415428030996,0,4.0,3.0,1,2,6,0,6,0,0,2,2,2,,,,,,,462.1429747079965,462.1429747079965,463.1569847080391,463.47665312490426,463.6902429580223,463.6902429580223,463.6902429580223,465.12354179192334,465.12354179192334,465.12354179192334,465.12354179192334,466.14265054184943,200005,002,2023-04-04_10h55.29.924,DMS_et_12-36,2022.2.4,None,
55,PRED,12,0.5741415428030996,2,images/picture_3.png,images/picture_1.png,0,"[-11.733433509789466, -11.733433509789462]",-11.733433509789464,-11.733433509789462,images/picture_2.png,1,"[-11.733433509789462, 11.733433509789464]",-11.733433509789462,11.733433509789464,images/picture_3.png,2,"[11.733433509789464, 11.733433509789462]",11.733433509789464,11.733433509789462,0,1,1,0.5741415428030996,1.5741415428030996,1.4258584571969004,3.0,1,1.3241415428030996,0,4.0,3.0,1,2,6,0,6,0,0,3,3,1,,,,,,,466.14265054184943,466.14265054184943,467.15711491694674,467.47648616693914,467.69027866702527,467.69027866702527,467.69027866702527,469.12342624994926,469.12342624994926,469.12342624994926,469.12342624994926,470.1429319998715,200005,002,2023-04-04_10h55.29.924,DMS_et_12-36,2022.2.4,None,
54,PRED,12,0.5741415428030996,2,images/picture_3.png,images/picture_1.png,0,"[-11.733433509789462, 11.733433509789464]",-11.733433509789462,11.733433509789464,images/picture_2.png,1,"[-11.733433509789466, -11.733433509789462]",-11.733433509789464,-11.733433509789462,images/picture_3.png,2,"[11.733433509789464, 11.733433509789462]",11.733433509789464,11.733433509789462,0,1,1,0.5741415428030996,1.5741415428030996,1.4258584571969004,3.0,1,1.3241415428030996,0,4.0,3.0,1,2,6,0,6,0,0,4,4,0,,,,,,,470.1429319998715,470.1429319998715,471.1570342918858,471.4766222080216,471.69025279185735,471.69025279185735,471.69025279185735,473.1236520418897,473.1236520418897,473.1236520418897,473.1236520418897,474.1421766669955,200005,002,2023-04-04_10h55.29.924,DMS_et_12-36,2022.2.4,None,
59,PRED,12,0.5741415428030996,2,images/picture_3.png,images/picture_1.png,0,"[-11.733433509789466, -11.733433509789462]",-11.733433509789464,-11.733433509789462,images/picture_2.png,1,"[11.733433509789464, 11.733433509789462]",11.733433509789464,11.733433509789462,images/picture_3.png,2,"[-11.733433509789462, 11.733433509789464]",-11.733433509789462,11.733433509789464,0,1,1,0.5741415428030996,1.5741415428030996,1.4258584571969004,3.0,1,1.3241415428030996,0,4.0,3.0,1,2,6,0,6,0,0,5,5,5,,,,,,,474.1421766669955,474.1421766669955,475.1571330828592,475.47615066706203,475.6901767498348,475.6901767498348,475.6901767498348,477.1237281248905,477.1237281248905,477.1237281248905,477.1237281248905,478.14346370799467,200005,002,2023-04-04_10h55.29.924,DMS_et_12-36,2022.2.4,None,
61,PRED,12,0.5741415428030996,2,images/picture_3.png,images/picture_1.png,0,"[-11.733433509789466, -11.733433509789462]",-11.733433509789464,-11.733433509789462,images/picture_2.png,1,"[-11.733433509789462, 11.733433509789464]",-11.733433509789462,11.733433509789464,images/picture_3.png,2,"[11.733433509789462, -11.733433509789466]",11.733433509789462,-11.733433509789464,0,1,1,0.5741415428030996,1.5741415428030996,1.4258584571969004,3.0,1,1.3241415428030996,0,4.0,3.0,1,2,6,0,6,0,0,6,6,7,,,,,,,478.14346370799467,478.14346370799467,479.15665908297524,479.4760976249818,479.6900233749766,479.6900233749766,479.6900233749766,481.123647792032,481.123647792032,481.123647792032,481.123647792032,482.1427469169721,200005,002,2023-04-04_10h55.29.924,DMS_et_12-36,2022.2.4,None,
58,PRED,12,0.5741415428030996,2,images/picture_3.png,images/picture_1.png,0,"[-11.733433509789466, -11.733433509789462]",-11.733433509789464,-11.733433509789462,images/picture_2.png,1,"[11.733433509789462, -11.733433509789466]",11.733433509789462,-11.733433509789464,images/picture_3.png,2,"[11.733433509789464, 11.733433509789462]",11.733433509789464,11.733433509789462,0,1,1,0.5741415428030996,1.5741415428030996,1.4258584571969004,3.0,1,1.3241415428030996,0,4.0,3.0,1,2,6,0,6,0,0,7,7,4,,,,,,,482.1427469169721,482.1427469169721,483.15678916685283,483.47650454193354,483.6902517080307,483.6902517080307,483.6902517080307,485.12367245787755,485.12367245787755,485.12367245787755,485.12367245787755,486.1434647080023,200005,002,2023-04-04_10h55.29.924,DMS_et_12-36,2022.2.4,None,
60,PRED,12,0.5741415428030996,2,images/picture_3.png,images/picture_1.png,0,"[11.733433509789464, 11.733433509789462]",11.733433509789464,11.733433509789462,images/picture_2.png,1,"[-11.733433509789466, -11.733433509789462]",-11.733433509789464,-11.733433509789462,images/picture_3.png,2,"[-11.733433509789462, 11.733433509789464]",-11.733433509789462,11.733433509789464,0,1,1,0.5741415428030996,1.5741415428030996,1.4258584571969004,3.0,1,1.3241415428030996,0,4.0,3.0,1,2,6,0,6,0,0,8,8,6,,,,,,,486.1434647080023,486.1434647080023,487.15700862486847,487.4763579580467,487.6902588750236,487.6902588750236,487.6902588750236,489.1235885829665,489.1235885829665,489.1235885829665,489.1235885829665,490.1852668749634,200005,002,2023-04-04_10h55.29.924,DMS_et_12-36,2022.2.4,None,
,,,,,,,,,,,,,,,,,,,,,,,,,,,,,,,,,,,6,0,6,0,,,,,,,,,490.1852668749634,502.2190805419814,,,,,,,,,,,,,200005,002,2023-04-04_10h55.29.924,DMS_et_12-36,2022.2.4,None,
65,UNPRED,12,0.5741415428030996,2,images/picture_3.png,images/picture_1.png,0,"[-11.733433509789462, 11.733433509789464]",-11.733433509789462,11.733433509789464,images/picture_2.png,1,"[11.733433509789462, -11.733433509789466]",11.733433509789462,-11.733433509789464,images/picture_3.png,2,"[11.733433509789464, 11.733433509789462]",11.733433509789464,11.733433509789462,0,1,1,0.5741415428030996,1.5741415428030996,1.4258584571969004,3.0,1,1.3241415428030996,0,4.0,3.0,1,2,7,0,7,0,0,0,0,2,,,,,,,502.2190805419814,502.2190805419814,503.22370645799674,503.55676649999805,503.7904651670251,503.7904651670251,503.7904651670251,505.2093681669794,505.2235841669608,505.2235841669608,505.2235841669608,506.24313466693275,200005,002,2023-04-04_10h55.29.924,DMS_et_12-36,2022.2.4,None,
71,UNPRED,12,0.5741415428030996,1,images/picture_2.png,images/picture_1.png,0,"[11.733433509789462, -11.733433509789466]",11.733433509789462,-11.733433509789464,images/picture_2.png,1,"[-11.733433509789466, -11.733433509789462]",-11.733433509789464,-11.733433509789462,images/picture_3.png,2,"[-11.733433509789462, 11.733433509789464]",-11.733433509789462,11.733433509789464,0,1,1,0.5741415428030996,1.5741415428030996,1.4258584571969004,3.0,1,1.3241415428030996,0,4.0,3.0,1,2,7,0,7,0,0,1,1,8,,,,,,,506.24313466693275,506.24313466693275,507.2569968330208,507.57648004195653,507.79034370789304,507.79034370789304,507.79034370789304,509.2235611670185,509.2235611670185,509.2235611670185,509.2235611670185,510.2426499999128,200005,002,2023-04-04_10h55.29.924,DMS_et_12-36,2022.2.4,None,
64,UNPRED,12,0.5741415428030996,2,images/picture_3.png,images/picture_1.png,0,"[-11.733433509789462, 11.733433509789464]",-11.733433509789462,11.733433509789464,images/picture_2.png,1,"[11.733433509789462, -11.733433509789466]",11.733433509789462,-11.733433509789464,images/picture_3.png,2,"[-11.733433509789466, -11.733433509789462]",-11.733433509789464,-11.733433509789462,0,1,1,0.5741415428030996,1.5741415428030996,1.4258584571969004,3.0,1,1.3241415428030996,0,4.0,3.0,1,2,7,0,7,0,0,2,2,1,,,,,,,510.2426499999128,510.2426499999128,511.2568801250309,511.57664820784703,511.79029299994,511.79029299994,511.79029299994,513.2237477500457,513.2237477500457,513.2237477500457,513.2237477500457,514.2232265828643,200005,002,2023-04-04_10h55.29.924,DMS_et_12-36,2022.2.4,None,
66,UNPRED,12,0.5741415428030996,0,images/picture_1.png,images/picture_1.png,0,"[11.733433509789462, -11.733433509789466]",11.733433509789462,-11.733433509789464,images/picture_2.png,1,"[-11.733433509789462, 11.733433509789464]",-11.733433509789462,11.733433509789464,images/picture_3.png,2,"[11.733433509789464, 11.733433509789462]",11.733433509789464,11.733433509789462,0,1,1,0.5741415428030996,1.5741415428030996,1.4258584571969004,3.0,1,1.3241415428030996,0,4.0,3.0,1,2,7,0,7,0,0,3,3,3,,,,,,,514.2232265828643,514.2232265828643,515.2237454168499,515.5570206248667,515.7902436668519,515.7902436668519,515.7902436668519,517.2236980828457,517.2236980828457,517.2236980828457,517.2236980828457,518.2231287918985,200005,002,2023-04-04_10h55.29.924,DMS_et_12-36,2022.2.4,None,
69,UNPRED,12,0.5741415428030996,1,images/picture_2.png,images/picture_1.png,0,"[11.733433509789462, -11.733433509789466]",11.733433509789462,-11.733433509789464,images/picture_2.png,1,"[-11.733433509789462, 11.733433509789464]",-11.733433509789462,11.733433509789464,images/picture_3.png,2,"[-11.733433509789466, -11.733433509789462]",-11.733433509789464,-11.733433509789462,0,1,1,0.5741415428030996,1.5741415428030996,1.4258584571969004,3.0,1,1.3241415428030996,0,4.0,3.0,1,2,7,0,7,0,0,4,4,6,,,,,,,518.2231287918985,518.2231287918985,519.2236878329422,519.5570723749697,519.7902354998514,519.7902354998514,519.7902354998514,521.2236946248449,521.2236946248449,521.2236946248449,521.2236946248449,522.2230848749168,200005,002,2023-04-04_10h55.29.924,DMS_et_12-36,2022.2.4,None,
63,UNPRED,12,0.5741415428030996,1,images/picture_2.png,images/picture_1.png,0,"[-11.733433509789462, 11.733433509789464]",-11.733433509789462,11.733433509789464,images/picture_2.png,1,"[11.733433509789462, -11.733433509789466]",11.733433509789462,-11.733433509789464,images/picture_3.png,2,"[-11.733433509789466, -11.733433509789462]",-11.733433509789464,-11.733433509789462,0,1,1,0.5741415428030996,1.5741415428030996,1.4258584571969004,3.0,1,1.3241415428030996,0,4.0,3.0,1,2,7,0,7,0,0,5,5,0,,,,,,,522.2230848749168,522.2230848749168,523.2235550829209,523.557008124888,523.7901046669576,523.7901046669576,523.7901046669576,525.2237614998594,525.2237614998594,525.2237614998594,525.2237614998594,526.2426672498696,200005,002,2023-04-04_10h55.29.924,DMS_et_12-36,2022.2.4,None,
67,UNPRED,12,0.5741415428030996,2,images/picture_3.png,images/picture_1.png,0,"[-11.733433509789466, -11.733433509789462]",-11.733433509789464,-11.733433509789462,images/picture_2.png,1,"[-11.733433509789462, 11.733433509789464]",-11.733433509789462,11.733433509789464,images/picture_3.png,2,"[11.733433509789462, -11.733433509789466]",11.733433509789462,-11.733433509789464,0,1,1,0.5741415428030996,1.5741415428030996,1.4258584571969004,3.0,1,1.3241415428030996,0,4.0,3.0,1,2,7,0,7,0,0,6,6,4,,,,,,,526.2426672498696,526.2426672498696,527.2570242919028,527.5765723329969,527.7903136669192,527.7903136669192,527.7903136669192,529.2237023748457,529.2237023748457,529.2237023748457,529.2237023748457,530.223240124993,200005,002,2023-04-04_10h55.29.924,DMS_et_12-36,2022.2.4,None,
68,UNPRED,12,0.5741415428030996,0,images/picture_1.png,images/picture_1.png,0,"[11.733433509789462, -11.733433509789466]",11.733433509789462,-11.733433509789464,images/picture_2.png,1,"[-11.733433509789466, -11.733433509789462]",-11.733433509789464,-11.733433509789462,images/picture_3.png,2,"[11.733433509789464, 11.733433509789462]",11.733433509789464,11.733433509789462,0,1,1,0.5741415428030996,1.5741415428030996,1.4258584571969004,3.0,1,1.3241415428030996,0,4.0,3.0,1,2,7,0,7,0,0,7,7,5,,,,,,,530.223240124993,530.223240124993,531.2234450830147,531.5572564168833,531.7904459999409,531.7904459999409,531.7904459999409,533.2237758750562,533.2237758750562,533.2237758750562,533.2237758750562,534.2423905420583,200005,002,2023-04-04_10h55.29.924,DMS_et_12-36,2022.2.4,None,
70,UNPRED,12,0.5741415428030996,2,images/picture_3.png,images/picture_1.png,0,"[-11.733433509789462, 11.733433509789464]",-11.733433509789462,11.733433509789464,images/picture_2.png,1,"[11.733433509789462, -11.733433509789466]",11.733433509789462,-11.733433509789464,images/picture_3.png,2,"[-11.733433509789466, -11.733433509789462]",-11.733433509789464,-11.733433509789462,0,1,1,0.5741415428030996,1.5741415428030996,1.4258584571969004,3.0,1,1.3241415428030996,0,4.0,3.0,1,2,7,0,7,0,0,8,8,7,,,,,,,534.2423905420583,534.2423905420583,535.2569690418895,535.5763129170518,535.7902722079307,535.7902722079307,535.7902722079307,537.2237069578841,537.2237069578841,537.2237069578841,537.2237069578841,538.3096206670161,200005,002,2023-04-04_10h55.29.924,DMS_et_12-36,2022.2.4,None,
,,,,,,,,,,,,,,,,,,,,,,,,,,,,,,,,,,,7,0,7,0,,,,,,,,,538.3096206670161,550.3495962920133,,,,,,,,,,,,,200005,002,2023-04-04_10h55.29.924,DMS_et_12-36,2022.2.4,None,
75,PRED,12,0.5741415428030996,1,images/picture_2.png,images/picture_1.png,0,"[11.733433509789464, 11.733433509789462]",11.733433509789464,11.733433509789462,images/picture_2.png,1,"[11.733433509789462, -11.733433509789466]",11.733433509789462,-11.733433509789464,images/picture_3.png,2,"[-11.733433509789466, -11.733433509789462]",-11.733433509789464,-11.733433509789462,0,1,1,0.5741415428030996,1.5741415428030996,1.4258584571969004,3.0,1,1.3241415428030996,0,4.0,3.0,1,2,8,0,8,0,0,0,0,3,,,,,,,550.3495962920133,550.3495962920133,551.3568128750194,551.6762715829536,551.9233721250203,551.9233721250203,551.9233721250203,553.3433278328739,553.3569448748603,553.3569448748603,553.3569448748603,554.3564879579935,200005,002,2023-04-04_10h55.29.924,DMS_et_12-36,2022.2.4,None,
73,PRED,12,0.5741415428030996,1,images/picture_2.png,images/picture_1.png,0,"[11.733433509789462, -11.733433509789466]",11.733433509789462,-11.733433509789464,images/picture_2.png,1,"[11.733433509789464, 11.733433509789462]",11.733433509789464,11.733433509789462,images/picture_3.png,2,"[-11.733433509789462, 11.733433509789464]",-11.733433509789462,11.733433509789464,0,1,1,0.5741415428030996,1.5741415428030996,1.4258584571969004,3.0,1,1.3241415428030996,0,4.0,3.0,1,2,8,0,8,0,0,1,1,1,,,,,,,554.3564879579935,554.3564879579935,555.3570137079805,555.690282916883,555.9237527078949,555.9237527078949,555.9237527078949,557.3569898749702,557.3569898749702,557.3569898749702,557.3569898749702,558.3564786668867,200005,002,2023-04-04_10h55.29.924,DMS_et_12-36,2022.2.4,None,
79,PRED,12,0.5741415428030996,1,images/picture_2.png,images/picture_1.png,0,"[11.733433509789464, 11.733433509789462]",11.733433509789464,11.733433509789462,images/picture_2.png,1,"[-11.733433509789466, -11.733433509789462]",-11.733433509789464,-11.733433509789462,images/picture_3.png,2,"[-11.733433509789462, 11.733433509789464]",-11.733433509789462,11.733433509789464,0,1,1,0.5741415428030996,1.5741415428030996,1.4258584571969004,3.0,1,1.3241415428030996,0,4.0,3.0,1,2,8,0,8,0,0,2,2,7,,,,,,,558.3564786668867,558.3564786668867,559.3569682079833,559.6903041668702,559.9235324999318,559.9235324999318,559.9235324999318,561.356856332859,561.356856332859,561.356856332859,561.356856332859,562.3566814579535,200005,002,2023-04-04_10h55.29.924,DMS_et_12-36,2022.2.4,None,
74,PRED,12,0.5741415428030996,1,images/picture_2.png,images/picture_1.png,0,"[-11.733433509789462, 11.733433509789464]",-11.733433509789462,11.733433509789464,images/picture_2.png,1,"[11.733433509789464, 11.733433509789462]",11.733433509789464,11.733433509789462,images/picture_3.png,2,"[11.733433509789462, -11.733433509789466]",11.733433509789462,-11.733433509789464,0,1,1,0.5741415428030996,1.5741415428030996,1.4258584571969004,3.0,1,1.3241415428030996,0,4.0,3.0,1,2,8,0,8,0,0,3,3,2,,,,,,,562.3566814579535,562.3566814579535,563.3570109580178,563.690285957884,563.9235351670068,563.9235351670068,563.9235351670068,565.3569525000639,565.3569525000639,565.3569525000639,565.3569525000639,566.356527667027,200005,002,2023-04-04_10h55.29.924,DMS_et_12-36,2022.2.4,None,
77,PRED,12,0.5741415428030996,1,images/picture_2.png,images/picture_1.png,0,"[11.733433509789464, 11.733433509789462]",11.733433509789464,11.733433509789462,images/picture_2.png,1,"[-11.733433509789466, -11.733433509789462]",-11.733433509789464,-11.733433509789462,images/picture_3.png,2,"[-11.733433509789462, 11.733433509789464]",-11.733433509789462,11.733433509789464,0,1,1,0.5741415428030996,1.5741415428030996,1.4258584571969004,3.0,1,1.3241415428030996,0,4.0,3.0,1,2,8,0,8,0,0,4,4,5,,,,,,,566.356527667027,566.356527667027,567.3570681668352,567.6903031249531,567.9237273749895,567.9237273749895,567.9237273749895,569.3568132079672,569.3568132079672,569.3568132079672,569.3568132079672,570.3565986668691,200005,002,2023-04-04_10h55.29.924,DMS_et_12-36,2022.2.4,None,
78,PRED,12,0.5741415428030996,1,images/picture_2.png,images/picture_1.png,0,"[-11.733433509789462, 11.733433509789464]",-11.733433509789462,11.733433509789464,images/picture_2.png,1,"[11.733433509789462, -11.733433509789466]",11.733433509789462,-11.733433509789464,images/picture_3.png,2,"[-11.733433509789466, -11.733433509789462]",-11.733433509789464,-11.733433509789462,0,1,1,0.5741415428030996,1.5741415428030996,1.4258584571969004,3.0,1,1.3241415428030996,0,4.0,3.0,1,2,8,0,8,0,0,5,5,6,,,,,,,570.3565986668691,570.3565986668691,571.3567466668319,571.6900615000632,571.923380541848,571.923380541848,571.923380541848,573.3570219578687,573.3570219578687,573.3570219578687,573.3570219578687,574.3565071248449,200005,002,2023-04-04_10h55.29.924,DMS_et_12-36,2022.2.4,None,
80,PRED,12,0.5741415428030996,1,images/picture_2.png,images/picture_1.png,0,"[11.733433509789464, 11.733433509789462]",11.733433509789464,11.733433509789462,images/picture_2.png,1,"[-11.733433509789462, 11.733433509789464]",-11.733433509789462,11.733433509789464,images/picture_3.png,2,"[-11.733433509789466, -11.733433509789462]",-11.733433509789464,-11.733433509789462,0,1,1,0.5741415428030996,1.5741415428030996,1.4258584571969004,3.0,1,1.3241415428030996,0,4.0,3.0,1,2,8,0,8,0,0,6,6,8,,,,,,,574.3565071248449,574.3565071248449,575.3570027919486,575.6902627919335,575.9237663750537,575.9237663750537,575.9237663750537,577.356805041898,577.356805041898,577.356805041898,577.356805041898,578.3565269580577,200005,002,2023-04-04_10h55.29.924,DMS_et_12-36,2022.2.4,None,
72,PRED,12,0.5741415428030996,1,images/picture_2.png,images/picture_1.png,0,"[11.733433509789462, -11.733433509789466]",11.733433509789462,-11.733433509789464,images/picture_2.png,1,"[-11.733433509789462, 11.733433509789464]",-11.733433509789462,11.733433509789464,images/picture_3.png,2,"[-11.733433509789466, -11.733433509789462]",-11.733433509789464,-11.733433509789462,0,1,1,0.5741415428030996,1.5741415428030996,1.4258584571969004,3.0,1,1.3241415428030996,0,4.0,3.0,1,2,8,0,8,0,0,7,7,0,,,,,,,578.3565269580577,578.3565269580577,579.356968041975,579.6902823329438,579.9236654578708,579.9236654578708,579.9236654578708,581.3569876248948,581.3569876248948,581.3569876248948,581.3569876248948,582.3567448330577,200005,002,2023-04-04_10h55.29.924,DMS_et_12-36,2022.2.4,None,
76,PRED,12,0.5741415428030996,1,images/picture_2.png,images/picture_1.png,0,"[11.733433509789464, 11.733433509789462]",11.733433509789464,11.733433509789462,images/picture_2.png,1,"[11.733433509789462, -11.733433509789466]",11.733433509789462,-11.733433509789464,images/picture_3.png,2,"[-11.733433509789462, 11.733433509789464]",-11.733433509789462,11.733433509789464,0,1,1,0.5741415428030996,1.5741415428030996,1.4258584571969004,3.0,1,1.3241415428030996,0,4.0,3.0,1,2,8,0,8,0,0,8,8,4,,,,,,,582.3567448330577,582.3567448330577,583.3569724168628,583.6902841250412,583.9236849579029,583.9236849579029,583.9236849579029,585.3570873329882,585.3570873329882,585.3570873329882,585.3570873329882,586.4504828329664,200005,002,2023-04-04_10h55.29.924,DMS_et_12-36,2022.2.4,None,
,,,,,,,,,,,,,,,,,,,,,,,,,,,,,,,,,,,8,0,8,0,,,,,,,,,586.4504828329664,598.4799067080021,,,,,,,,,,,,,200005,002,2023-04-04_10h55.29.924,DMS_et_12-36,2022.2.4,None,
86,UNPRED,12,0.5741415428030996,1,images/picture_2.png,images/picture_1.png,0,"[11.733433509789462, -11.733433509789466]",11.733433509789462,-11.733433509789464,images/picture_2.png,1,"[11.733433509789464, 11.733433509789462]",11.733433509789464,11.733433509789462,images/picture_3.png,2,"[-11.733433509789462, 11.733433509789464]",-11.733433509789462,11.733433509789464,0,1,1,0.5741415428030996,1.5741415428030996,1.4258584571969004,3.0,1,1.3241415428030996,0,4.0,3.0,1,2,9,0,9,0,0,0,0,5,,,,,,,598.4799067080021,598.4799067080021,599.4904855829664,599.8099844169337,600.0569068328477,600.0569068328477,600.0569068328477,601.4766385420226,601.4903411669657,601.4903411669657,601.4903411669657,602.5089900000021,200005,002,2023-04-04_10h55.29.924,DMS_et_12-36,2022.2.4,None,
87,UNPRED,12,0.5741415428030996,2,images/picture_3.png,images/picture_1.png,0,"[11.733433509789464, 11.733433509789462]",11.733433509789464,11.733433509789462,images/picture_2.png,1,"[-11.733433509789462, 11.733433509789464]",-11.733433509789462,11.733433509789464,images/picture_3.png,2,"[11.733433509789462, -11.733433509789466]",11.733433509789462,-11.733433509789464,0,1,1,0.5741415428030996,1.5741415428030996,1.4258584571969004,3.0,1,1.3241415428030996,0,4.0,3.0,1,2,9,0,9,0,0,1,1,6,,,,,,,602.5089900000021,602.5089900000021,603.5236829579808,603.8431075830013,604.056939125061,604.056939125061,604.056939125061,605.4903179579414,605.4903179579414,605.4903179579414,605.4903179579414,606.4897195829544,200005,002,2023-04-04_10h55.29.924,DMS_et_12-36,2022.2.4,None,
89,UNPRED,12,0.5741415428030996,1,images/picture_2.png,images/picture_1.png,0,"[-11.733433509789462, 11.733433509789464]",-11.733433509789462,11.733433509789464,images/picture_2.png,1,"[11.733433509789462, -11.733433509789466]",11.733433509789462,-11.733433509789464,images/picture_3.png,2,"[-11.733433509789466, -11.733433509789462]",-11.733433509789464,-11.733433509789462,0,1,1,0.5741415428030996,1.5741415428030996,1.4258584571969004,3.0,1,1.3241415428030996,0,4.0,3.0,1,2,9,0,9,0,0,2,2,8,,,,,,,606.4897195829544,606.4897195829544,607.4905291248579,607.8236874998547,608.0570311250631,608.0570311250631,608.0570311250631,609.4903933750466,609.4903933750466,609.4903933750466,609.4903933750466,610.5090544580016,200005,002,2023-04-04_10h55.29.924,DMS_et_12-36,2022.2.4,None,
83,UNPRED,12,0.5741415428030996,2,images/picture_3.png,images/picture_1.png,0,"[-11.733433509789466, -11.733433509789462]",-11.733433509789464,-11.733433509789462,images/picture_2.png,1,"[11.733433509789464, 11.733433509789462]",11.733433509789464,11.733433509789462,images/picture_3.png,2,"[-11.733433509789462, 11.733433509789464]",-11.733433509789462,11.733433509789464,0,1,1,0.5741415428030996,1.5741415428030996,1.4258584571969004,3.0,1,1.3241415428030996,0,4.0,3.0,1,2,9,0,9,0,0,3,3,2,,,,,,,610.5090544580016,610.5090544580016,611.5235143329483,611.843155666953,612.0567568328697,612.0567568328697,612.0567568328697,613.4901679998729,613.4901679998729,613.4901679998729,613.4901679998729,614.509035916999,200005,002,2023-04-04_10h55.29.924,DMS_et_12-36,2022.2.4,None,
84,UNPRED,12,0.5741415428030996,2,images/picture_3.png,images/picture_1.png,0,"[11.733433509789464, 11.733433509789462]",11.733433509789464,11.733433509789462,images/picture_2.png,1,"[-11.733433509789462, 11.733433509789464]",-11.733433509789462,11.733433509789464,images/picture_3.png,2,"[-11.733433509789466, -11.733433509789462]",-11.733433509789464,-11.733433509789462,0,1,1,0.5741415428030996,1.5741415428030996,1.4258584571969004,3.0,1,1.3241415428030996,0,4.0,3.0,1,2,9,0,9,0,0,4,4,3,,,,,,,614.509035916999,614.509035916999,615.5237516670022,615.8431425420567,616.0570381670259,616.0570381670259,616.0570381670259,617.4902654578909,617.4902654578909,617.4902654578909,617.4902654578909,618.4893830828369,200005,002,2023-04-04_10h55.29.924,DMS_et_12-36,2022.2.4,None,
85,UNPRED,12,0.5741415428030996,1,images/picture_2.png,images/picture_1.png,0,"[-11.733433509789462, 11.733433509789464]",-11.733433509789462,11.733433509789464,images/picture_2.png,1,"[11.733433509789464, 11.733433509789462]",11.733433509789464,11.733433509789462,images/picture_3.png,2,"[-11.733433509789466, -11.733433509789462]",-11.733433509789464,-11.733433509789462,0,1,1,0.5741415428030996,1.5741415428030996,1.4258584571969004,3.0,1,1.3241415428030996,0,4.0,3.0,1,2,9,0,9,0,0,5,5,4,,,,,,,618.4893830828369,618.4893830828369,619.4904310829006,619.8237315828446,620.0570917080622,620.0570917080622,620.0570917080622,621.4902594999876,621.4902594999876,621.4902594999876,621.4902594999876,622.4897488330025,200005,002,2023-04-04_10h55.29.924,DMS_et_12-36,2022.2.4,None,
82,UNPRED,12,0.5741415428030996,1,images/picture_2.png,images/picture_1.png,0,"[11.733433509789462, -11.733433509789466]",11.733433509789462,-11.733433509789464,images/picture_2.png,1,"[11.733433509789464, 11.733433509789462]",11.733433509789464,11.733433509789462,images/picture_3.png,2,"[-11.733433509789462, 11.733433509789464]",-11.733433509789462,11.733433509789464,0,1,1,0.5741415428030996,1.5741415428030996,1.4258584571969004,3.0,1,1.3241415428030996,0,4.0,3.0,1,2,9,0,9,0,0,6,6,1,,,,,,,622.4897488330025,622.4897488330025,623.490770583041,623.823454707861,624.0568132079206,624.0568132079206,624.0568132079206,625.490133541869,625.490133541869,625.490133541869,625.490133541869,626.4898827918805,200005,002,2023-04-04_10h55.29.924,DMS_et_12-36,2022.2.4,None,
81,UNPRED,12,0.5741415428030996,1,images/picture_2.png,images/picture_1.png,0,"[-11.733433509789466, -11.733433509789462]",-11.733433509789464,-11.733433509789462,images/picture_2.png,1,"[-11.733433509789462, 11.733433509789464]",-11.733433509789462,11.733433509789464,images/picture_3.png,2,"[11.733433509789464, 11.733433509789462]",11.733433509789464,11.733433509789462,0,1,1,0.5741415428030996,1.5741415428030996,1.4258584571969004,3.0,1,1.3241415428030996,0,4.0,3.0,1,2,9,0,9,0,0,7,7,0,,,,,,,626.4898827918805,626.4898827918805,627.4904466250446,627.8237058748491,628.0569834169,628.0569834169,628.0569834169,629.490299457917,629.490299457917,629.490299457917,629.490299457917,630.4889698328916,200005,002,2023-04-04_10h55.29.924,DMS_et_12-36,2022.2.4,None,
88,UNPRED,12,0.5741415428030996,0,images/picture_1.png,images/picture_1.png,0,"[-11.733433509789466, -11.733433509789462]",-11.733433509789464,-11.733433509789462,images/picture_2.png,1,"[-11.733433509789462, 11.733433509789464]",-11.733433509789462,11.733433509789464,images/picture_3.png,2,"[11.733433509789462, -11.733433509789466]",11.733433509789462,-11.733433509789464,0,1,1,0.5741415428030996,1.5741415428030996,1.4258584571969004,3.0,1,1.3241415428030996,0,4.0,3.0,1,2,9,0,9,0,0,8,8,7,,,,,,,630.4889698328916,630.4889698328916,631.4902880829759,631.8237320419867,632.0567392499652,632.0567392499652,632.0567392499652,633.4902598748449,633.4902598748449,633.4902598748449,633.4902598748449,634.6001772079617,200005,002,2023-04-04_10h55.29.924,DMS_et_12-36,2022.2.4,None,
,,,,,,,,,,,,,,,,,,,,,,,,,,,,,,,,,,,9,0,9,0,,,,,,,,,634.6001772079617,646.6301928749308,,,,,,,,,,,,,200005,002,2023-04-04_10h55.29.924,DMS_et_12-36,2022.2.4,None,
95,PRED,12,0.5741415428030996,1,images/picture_2.png,images/picture_1.png,0,"[11.733433509789462, -11.733433509789466]",11.733433509789462,-11.733433509789464,images/picture_2.png,1,"[11.733433509789464, 11.733433509789462]",11.733433509789464,11.733433509789462,images/picture_3.png,2,"[-11.733433509789462, 11.733433509789464]",-11.733433509789462,11.733433509789464,0,1,1,0.5741415428030996,1.5741415428030996,1.4258584571969004,3.0,1,1.3241415428030996,0,4.0,3.0,1,2,10,0,10,0,0,0,0,5,,,,,,,646.6301928749308,646.6301928749308,647.6439477498643,647.9569895418826,648.2097504169215,648.2097504169215,648.2097504169215,649.6237065829337,649.6430898329709,649.6430898329709,649.6430898329709,650.6230716248974,200005,002,2023-04-04_10h55.29.924,DMS_et_12-36,2022.2.4,None,
92,PRED,12,0.5741415428030996,1,images/picture_2.png,images/picture_1.png,0,"[-11.733433509789466, -11.733433509789462]",-11.733433509789464,-11.733433509789462,images/picture_2.png,1,"[11.733433509789464, 11.733433509789462]",11.733433509789464,11.733433509789462,images/picture_3.png,2,"[11.733433509789462, -11.733433509789466]",11.733433509789462,-11.733433509789464,0,1,1,0.5741415428030996,1.5741415428030996,1.4258584571969004,3.0,1,1.3241415428030996,0,4.0,3.0,1,2,10,0,10,0,0,1,1,2,,,,,,,650.6230716248974,650.6230716248974,651.6237332499586,651.9569984578993,652.1903237500228,652.1903237500228,652.1903237500228,653.6234069168568,653.6234069168568,653.6234069168568,653.6234069168568,654.6233449580614,200005,002,2023-04-04_10h55.29.924,DMS_et_12-36,2022.2.4,None,
91,PRED,12,0.5741415428030996,1,images/picture_2.png,images/picture_1.png,0,"[-11.733433509789462, 11.733433509789464]",-11.733433509789462,11.733433509789464,images/picture_2.png,1,"[11.733433509789462, -11.733433509789466]",11.733433509789462,-11.733433509789464,images/picture_3.png,2,"[-11.733433509789466, -11.733433509789462]",-11.733433509789464,-11.733433509789462,0,1,1,0.5741415428030996,1.5741415428030996,1.4258584571969004,3.0,1,1.3241415428030996,0,4.0,3.0,1,2,10,0,10,0,0,2,2,1,,,,,,,654.6233449580614,654.6233449580614,655.6237468328327,655.9567720000632,656.1902729999274,656.1902729999274,656.1902729999274,657.6237297500484,657.6237297500484,657.6237297500484,657.6237297500484,658.6227539998945,200005,002,2023-04-04_10h55.29.924,DMS_et_12-36,2022.2.4,None,
94,PRED,12,0.5741415428030996,1,images/picture_2.png,images/picture_1.png,0,"[11.733433509789464, 11.733433509789462]",11.733433509789464,11.733433509789462,images/picture_2.png,1,"[11.733433509789462, -11.733433509789466]",11.733433509789462,-11.733433509789464,images/picture_3.png,2,"[-11.733433509789466, -11.733433509789462]",-11.733433509789464,-11.733433509789462,0,1,1,0.5741415428030996,1.5741415428030996,1.4258584571969004,3.0,1,1.3241415428030996,0,4.0,3.0,1,2,10,0,10,0,0,3,3,4,,,,,,,658.6227539998945,658.6227539998945,659.6237041668501,659.9570244578645,660.1903028329834,660.1903028329834,660.1903028329834,661.6235355420504,661.6235355420504,661.6235355420504,661.6235355420504,662.6231329999864,200005,002,2023-04-04_10h55.29.924,DMS_et_12-36,2022.2.4,None,
93,PRED,12,0.5741415428030996,1,images/picture_2.png,images/picture_1.png,0,"[-11.733433509789462, 11.733433509789464]",-11.733433509789462,11.733433509789464,images/picture_2.png,1,"[11.733433509789462, -11.733433509789466]",11.733433509789462,-11.733433509789464,images/picture_3.png,2,"[-11.733433509789466, -11.733433509789462]",-11.733433509789464,-11.733433509789462,0,1,1,0.5741415428030996,1.5741415428030996,1.4258584571969004,3.0,1,1.3241415428030996,0,4.0,3.0,1,2,10,0,10,0,0,4,4,3,,,,,,,662.6231329999864,662.6231329999864,663.623789666919,663.956783792004,664.1901052920148,664.1901052920148,664.1901052920148,665.6237676669843,665.6237676669843,665.6237676669843,665.6237676669843,666.6231179998722,200005,002,2023-04-04_10h55.29.924,DMS_et_12-36,2022.2.4,None,
96,PRED,12,0.5741415428030996,1,images/picture_2.png,images/picture_1.png,0,"[11.733433509789462, -11.733433509789466]",11.733433509789462,-11.733433509789464,images/picture_2.png,1,"[-11.733433509789462, 11.733433509789464]",-11.733433509789462,11.733433509789464,images/picture_3.png,2,"[11.733433509789464, 11.733433509789462]",11.733433509789464,11.733433509789462,0,1,1,0.5741415428030996,1.5741415428030996,1.4258584571969004,3.0,1,1.3241415428030996,0,4.0,3.0,1,2,10,0,10,0,0,5,5,6,,,,,,,666.6231179998722,666.6231179998722,667.6237244170625,667.9569870829582,668.1902374168858,668.1902374168858,668.1902374168858,669.6237215830479,669.6237215830479,669.6237215830479,669.6237215830479,670.6227640828583,200005,002,2023-04-04_10h55.29.924,DMS_et_12-36,2022.2.4,None,
90,PRED,12,0.5741415428030996,1,images/picture_2.png,images/picture_1.png,0,"[-11.733433509789466, -11.733433509789462]",-11.733433509789464,-11.733433509789462,images/picture_2.png,1,"[-11.733433509789462, 11.733433509789464]",-11.733433509789462,11.733433509789464,images/picture_3.png,2,"[11.733433509789462, -11.733433509789466]",11.733433509789462,-11.733433509789464,0,1,1,0.5741415428030996,1.5741415428030996,1.4258584571969004,3.0,1,1.3241415428030996,0,4.0,3.0,1,2,10,0,10,0,0,6,6,0,,,,,,,670.6227640828583,670.6227640828583,671.6237183329649,671.9569688329939,672.1902378329542,672.1902378329542,672.1902378329542,673.6236878749914,673.6236878749914,673.6236878749914,673.6236878749914,674.6233436248731,200005,002,2023-04-04_10h55.29.924,DMS_et_12-36,2022.2.4,None,
98,PRED,12,0.5741415428030996,1,images/picture_2.png,images/picture_1.png,0,"[11.733433509789464, 11.733433509789462]",11.733433509789464,11.733433509789462,images/picture_2.png,1,"[11.733433509789462, -11.733433509789466]",11.733433509789462,-11.733433509789464,images/picture_3.png,2,"[-11.733433509789466, -11.733433509789462]",-11.733433509789464,-11.733433509789462,0,1,1,0.5741415428030996,1.5741415428030996,1.4258584571969004,3.0,1,1.3241415428030996,0,4.0,3.0,1,2,10,0,10,0,0,7,7,8,,,,,,,674.6233436248731,674.6233436248731,675.623725875048,675.9569936250336,676.1902755829506,676.1902755829506,676.1902755829506,677.6238314579241,677.6238314579241,677.6238314579241,677.6238314579241,678.6231137078721,200005,002,2023-04-04_10h55.29.924,DMS_et_12-36,2022.2.4,None,
97,PRED,12,0.5741415428030996,1,images/picture_2.png,images/picture_1.png,0,"[-11.733433509789462, 11.733433509789464]",-11.733433509789462,11.733433509789464,images/picture_2.png,1,"[11.733433509789462, -11.733433509789466]",11.733433509789462,-11.733433509789464,images/picture_3.png,2,"[11.733433509789464, 11.733433509789462]",11.733433509789464,11.733433509789462,0,1,1,0.5741415428030996,1.5741415428030996,1.4258584571969004,3.0,1,1.3241415428030996,0,4.0,3.0,1,2,10,0,10,0,0,8,8,7,,,,,,,678.6231137078721,678.6231137078721,679.623703958001,679.9570866669528,680.1902406250592,680.1902406250592,680.1902406250592,681.6236899578944,681.6236899578944,681.6236899578944,681.6236899578944,682.7364817499183,200005,002,2023-04-04_10h55.29.924,DMS_et_12-36,2022.2.4,None,
,,,,,,,,,,,,,,,,,,,,,,,,,,,,,,,,,,,10,0,10,0,,,,,,,,,682.7364817499183,694.7511162918527,,,,,,,,,,,,,200005,002,2023-04-04_10h55.29.924,DMS_et_12-36,2022.2.4,None,
99,UNPRED,12,0.5741415428030996,0,images/picture_1.png,images/picture_1.png,0,"[11.733433509789464, 11.733433509789462]",11.733433509789464,11.733433509789462,images/picture_2.png,1,"[-11.733433509789466, -11.733433509789462]",-11.733433509789464,-11.733433509789462,images/picture_3.png,2,"[-11.733433509789462, 11.733433509789464]",-11.733433509789462,11.733433509789464,0,1,1,0.5741415428030996,1.5741415428030996,1.4258584571969004,3.0,1,1.3241415428030996,0,4.0,3.0,1,2,11,0,11,0,0,0,0,0,,,,,,,694.7511162918527,694.7511162918527,695.7567785000429,696.0903191668913,696.3236867499072,696.3236867499072,696.3236867499072,697.7569962078705,697.7569962078705,697.7569962078705,697.7569962078705,698.7564122918993,200005,002,2023-04-04_10h55.29.924,DMS_et_12-36,2022.2.4,None,
101,UNPRED,12,0.5741415428030996,0,images/picture_1.png,images/picture_1.png,0,"[-11.733433509789462, 11.733433509789464]",-11.733433509789462,11.733433509789464,images/picture_2.png,1,"[11.733433509789464, 11.733433509789462]",11.733433509789464,11.733433509789462,images/picture_3.png,2,"[11.733433509789462, -11.733433509789466]",11.733433509789462,-11.733433509789464,0,1,1,0.5741415428030996,1.5741415428030996,1.4258584571969004,3.0,1,1.3241415428030996,0,4.0,3.0,1,2,11,0,11,0,0,1,1,2,,,,,,,698.7564122918993,698.7564122918993,699.7569291668478,700.0902477079071,700.3237005418632,700.3237005418632,700.3237005418632,701.7570412498899,701.7570412498899,701.7570412498899,701.7570412498899,702.7758849579841,200005,002,2023-04-04_10h55.29.924,DMS_et_12-36,2022.2.4,None,
107,UNPRED,12,0.5741415428030996,2,images/picture_3.png,images/picture_1.png,0,"[11.733433509789464, 11.733433509789462]",11.733433509789464,11.733433509789462,images/picture_2.png,1,"[-11.733433509789466, -11.733433509789462]",-11.733433509789464,-11.733433509789462,images/picture_3.png,2,"[-11.733433509789462, 11.733433509789464]",-11.733433509789462,11.733433509789464,0,1,1,0.5741415428030996,1.5741415428030996,1.4258584571969004,3.0,1,1.3241415428030996,0,4.0,3.0,1,2,11,0,11,0,0,2,2,8,,,,,,,702.7758849579841,702.7758849579841,703.790320500033,704.109825582942,704.3237012079917,704.3237012079917,704.3237012079917,705.7566598749254,705.7566598749254,705.7566598749254,705.7566598749254,706.7759364170488,200005,002,2023-04-04_10h55.29.924,DMS_et_12-36,2022.2.4,None,
104,UNPRED,12,0.5741415428030996,2,images/picture_3.png,images/picture_1.png,0,"[11.733433509789462, -11.733433509789466]",11.733433509789462,-11.733433509789464,images/picture_2.png,1,"[11.733433509789464, 11.733433509789462]",11.733433509789464,11.733433509789462,images/picture_3.png,2,"[-11.733433509789462, 11.733433509789464]",-11.733433509789462,11.733433509789464,0,1,1,0.5741415428030996,1.5741415428030996,1.4258584571969004,3.0,1,1.3241415428030996,0,4.0,3.0,1,2,11,0,11,0,0,3,3,5,,,,,,,706.7759364170488,706.7759364170488,707.7902885419317,708.1096182079054,708.3241114579141,708.3241114579141,708.3241114579141,709.7570224169176,709.7570224169176,709.7570224169176,709.7570224169176,710.7570200830232,200005,002,2023-04-04_10h55.29.924,DMS_et_12-36,2022.2.4,None,
105,UNPRED,12,0.5741415428030996,0,images/picture_1.png,images/picture_1.png,0,"[11.733433509789462, -11.733433509789466]",11.733433509789462,-11.733433509789464,images/picture_2.png,1,"[-11.733433509789462, 11.733433509789464]",-11.733433509789462,11.733433509789464,images/picture_3.png,2,"[-11.733433509789466, -11.733433509789462]",-11.733433509789464,-11.733433509789462,0,1,1,0.5741415428030996,1.5741415428030996,1.4258584571969004,3.0,1,1.3241415428030996,0,4.0,3.0,1,2,11,0,11,0,0,4,4,6,,,,,,,710.7570200830232,710.7570200830232,711.7569480419625,712.090477374848,712.3235260830261,712.3235260830261,712.3235260830261,713.7567693749443,713.7567693749443,713.7567693749443,713.7567693749443,714.7566475418862,200005,002,2023-04-04_10h55.29.924,DMS_et_12-36,2022.2.4,None,
106,UNPRED,12,0.5741415428030996,0,images/picture_1.png,images/picture_1.png,0,"[11.733433509789462, -11.733433509789466]",11.733433509789462,-11.733433509789464,images/picture_2.png,1,"[-11.733433509789466, -11.733433509789462]",-11.733433509789464,-11.733433509789462,images/picture_3.png,2,"[-11.733433509789462, 11.733433509789464]",-11.733433509789462,11.733433509789464,0,1,1,0.5741415428030996,1.5741415428030996,1.4258584571969004,3.0,1,1.3241415428030996,0,4.0,3.0,1,2,11,0,11,0,0,5,5,7,,,,,,,714.7566475418862,714.7566475418862,715.7574761670548,716.0905691669323,716.3235441248398,716.3235441248398,716.3235441248398,717.7573477078695,717.7573477078695,717.7573477078695,717.7573477078695,718.7758483749349,200005,002,2023-04-04_10h55.29.924,DMS_et_12-36,2022.2.4,None,
102,UNPRED,12,0.5741415428030996,2,images/picture_3.png,images/picture_1.png,0,"[11.733433509789462, -11.733433509789466]",11.733433509789462,-11.733433509789464,images/picture_2.png,1,"[-11.733433509789462, 11.733433509789464]",-11.733433509789462,11.733433509789464,images/picture_3.png,2,"[11.733433509789464, 11.733433509789462]",11.733433509789464,11.733433509789462,0,1,1,0.5741415428030996,1.5741415428030996,1.4258584571969004,3.0,1,1.3241415428030996,0,4.0,3.0,1,2,11,0,11,0,0,6,6,3,,,,,,,718.7758483749349,718.7758483749349,719.7905480419286,720.1099085828755,720.3238445830066,720.3238445830066,720.3238445830066,721.7569750829134,721.7569750829134,721.7569750829134,721.7569750829134,722.7766283329111,200005,002,2023-04-04_10h55.29.924,DMS_et_12-36,2022.2.4,None,
103,UNPRED,12,0.5741415428030996,1,images/picture_2.png,images/picture_1.png,0,"[-11.733433509789462, 11.733433509789464]",-11.733433509789462,11.733433509789464,images/picture_2.png,1,"[11.733433509789464, 11.733433509789462]",11.733433509789464,11.733433509789462,images/picture_3.png,2,"[11.733433509789462, -11.733433509789466]",11.733433509789462,-11.733433509789464,0,1,1,0.5741415428030996,1.5741415428030996,1.4258584571969004,3.0,1,1.3241415428030996,0,4.0,3.0,1,2,11,0,11,0,0,7,7,4,,,,,,,722.7766283329111,722.7766283329111,723.7903014170006,724.1098664579913,724.3236447500531,724.3236447500531,724.3236447500531,725.7566773749422,725.7566773749422,725.7566773749422,725.7566773749422,726.7570301669184,200005,002,2023-04-04_10h55.29.924,DMS_et_12-36,2022.2.4,None,
100,UNPRED,12,0.5741415428030996,1,images/picture_2.png,images/picture_1.png,0,"[-11.733433509789466, -11.733433509789462]",-11.733433509789464,-11.733433509789462,images/picture_2.png,1,"[11.733433509789464, 11.733433509789462]",11.733433509789464,11.733433509789462,images/picture_3.png,2,"[-11.733433509789462, 11.733433509789464]",-11.733433509789462,11.733433509789464,0,1,1,0.5741415428030996,1.5741415428030996,1.4258584571969004,3.0,1,1.3241415428030996,0,4.0,3.0,1,2,11,0,11,0,0,8,8,1,,,,,,,726.7570301669184,726.7570301669184,727.7570766250137,728.0903173328843,728.3238942080643,728.3238942080643,728.3238942080643,729.7570319999941,729.7570319999941,729.7570319999941,729.7570319999941,730.9302286249585,200005,002,2023-04-04_10h55.29.924,DMS_et_12-36,2022.2.4,None,
,,,,,,,,,,,,,,,,,,,,,,,,,,,,,,,,,,,11,0,11,0,,,,,,,,,730.9302286249585,743.065952291945,,,,,,,,,,,,,200005,002,2023-04-04_10h55.29.924,DMS_et_12-36,2022.2.4,None,
,,,,,,,,,,,,,,,,,,,,,,,,,,,,,,,,,,,,,,,,,,,,,,,743.065952291945,755.599395792,,,,,,,,,,,,,,,,,,,
