trial_count,blockType,blockNum,delay_time,stimImage_i,stimImage,responseImage1,responseImage1_i,responseImage1_pos,responseImage1_X,responseImage1_Y,responseImage2,responseImage2_i,responseImage2_pos,responseImage2_X,responseImage2_Y,responseImage3,responseImage3_i,responseImage3_pos,responseImage3_X,responseImage3_Y,cue_onset,cue_dur,delay_onset,delay_dur,resp_onset,resp_dur,rest_onset,rest_dur,circle_dur,circle_onset,total_dur,cross_onset,cross_dur,delay_resp_period,blocks.thisRepN,blocks.thisTrialN,blocks.thisN,blocks.thisIndex,trials.thisRepN,trials.thisTrialN,trials.thisN,trials.thisIndex,key_resp.started,text.started,key_resp.keys,key_resp.rt,text_2.started,text_2.stopped,sample.started,Delay.started,sample.stopped,Delay.stopped,Response_1.started,Response_2.started,Response_3.started,Response_1.stopped,Response_2.stopped,Response_3.stopped,polygon.started,polygon.stopped,participant,session,date,expName,psychopyVersion,frameRate,
,,,,,,,,,,,,,,,,,,,,,,,,,,,,,,,,,,,,,,,,,,,94.98228995800127,94.98228995800127,t,82.80723266699897,,,,,,,,,,,,,,,200005,203,2023-04-11_15h05.01.536,DMS_et_12-36,2022.2.4,None,
0,PRED,12,0.9071220353882756,1,images/picture_2.png,images/picture_1.png,0,"[11.733433509789464, 11.733433509789462]",11.733433509789464,11.733433509789462,images/picture_2.png,1,"[11.733433509789462, -11.733433509789466]",11.733433509789462,-11.733433509789464,images/picture_3.png,2,"[-11.733433509789462, 11.733433509789464]",-11.733433509789462,11.733433509789464,0,1,1,0.9071220353882756,1.907122035388276,1.0928779646117244,3.0,1,1.6571220353882756,0,4.0,3.0,1,2,0,0,0,0,0,0,0,0,,,,,178.30759970800136,190.3311228750008,190.3311228750008,190.3311228750008,191.32992999999988,191.9975438750007,192.23055725000086,192.23055725000086,192.23055725000086,193.32980883300115,193.32980883300115,193.32980883300115,193.32980883300115,194.32950408299985,200005,203,2023-04-11_15h05.01.536,DMS_et_12-36,2022.2.4,None,
8,PRED,12,0.9071220353882756,1,images/picture_2.png,images/picture_1.png,0,"[-11.733433509789466, -11.733433509789462]",-11.733433509789464,-11.733433509789462,images/picture_2.png,1,"[11.733433509789464, 11.733433509789462]",11.733433509789464,11.733433509789462,images/picture_3.png,2,"[-11.733433509789462, 11.733433509789464]",-11.733433509789462,11.733433509789464,0,1,1,0.9071220353882756,1.907122035388276,1.0928779646117244,3.0,1,1.6571220353882756,0,4.0,3.0,1,2,0,0,0,0,0,1,1,8,,,,,,,194.32950408299985,194.32950408299985,195.33000770800027,195.99653537500126,196.22998883299988,196.22998883299988,196.22998883299988,197.33029229100066,197.33029229100066,197.33029229100066,197.33029229100066,198.3292452500009,200005,203,2023-04-11_15h05.01.536,DMS_et_12-36,2022.2.4,None,
5,PRED,12,0.9071220353882756,1,images/picture_2.png,images/picture_1.png,0,"[11.733433509789464, 11.733433509789462]",11.733433509789464,11.733433509789462,images/picture_2.png,1,"[-11.733433509789462, 11.733433509789464]",-11.733433509789462,11.733433509789464,images/picture_3.png,2,"[-11.733433509789466, -11.733433509789462]",-11.733433509789464,-11.733433509789462,0,1,1,0.9071220353882756,1.907122035388276,1.0928779646117244,3.0,1,1.6571220353882756,0,4.0,3.0,1,2,0,0,0,0,0,2,2,5,,,,,,,198.3292452500009,198.3292452500009,199.32994925000094,199.9966637079997,200.23001666600067,200.23001666600067,200.23001666600067,201.33000920800077,201.33000920800077,201.33000920800077,201.33000920800077,202.32949887500035,200005,203,2023-04-11_15h05.01.536,DMS_et_12-36,2022.2.4,None,
7,PRED,12,0.9071220353882756,1,images/picture_2.png,images/picture_1.png,0,"[11.733433509789464, 11.733433509789462]",11.733433509789464,11.733433509789462,images/picture_2.png,1,"[-11.733433509789462, 11.733433509789464]",-11.733433509789462,11.733433509789464,images/picture_3.png,2,"[11.733433509789462, -11.733433509789466]",11.733433509789462,-11.733433509789464,0,1,1,0.9071220353882756,1.907122035388276,1.0928779646117244,3.0,1,1.6571220353882756,0,4.0,3.0,1,2,0,0,0,0,0,3,3,7,,,,,,,202.32949887500035,202.32949887500035,203.3299117080005,203.9965630000006,204.23017670800073,204.23017670800073,204.23017670800073,205.3296934580012,205.3296934580012,205.3296934580012,205.3296934580012,206.3291575000003,200005,203,2023-04-11_15h05.01.536,DMS_et_12-36,2022.2.4,None,
2,PRED,12,0.9071220353882756,1,images/picture_2.png,images/picture_1.png,0,"[-11.733433509789462, 11.733433509789464]",-11.733433509789462,11.733433509789464,images/picture_2.png,1,"[-11.733433509789466, -11.733433509789462]",-11.733433509789464,-11.733433509789462,images/picture_3.png,2,"[11.733433509789462, -11.733433509789466]",11.733433509789462,-11.733433509789464,0,1,1,0.9071220353882756,1.907122035388276,1.0928779646117244,3.0,1,1.6571220353882756,0,4.0,3.0,1,2,0,0,0,0,0,4,4,2,,,,,,,206.3291575000003,206.3291575000003,207.33002325000052,207.99660604100063,208.22990087500148,208.22990087500148,208.22990087500148,209.330025958001,209.330025958001,209.330025958001,209.330025958001,210.3295040410012,200005,203,2023-04-11_15h05.01.536,DMS_et_12-36,2022.2.4,None,
6,PRED,12,0.9071220353882756,1,images/picture_2.png,images/picture_1.png,0,"[-11.733433509789466, -11.733433509789462]",-11.733433509789464,-11.733433509789462,images/picture_2.png,1,"[11.733433509789464, 11.733433509789462]",11.733433509789464,11.733433509789462,images/picture_3.png,2,"[-11.733433509789462, 11.733433509789464]",-11.733433509789462,11.733433509789464,0,1,1,0.9071220353882756,1.907122035388276,1.0928779646117244,3.0,1,1.6571220353882756,0,4.0,3.0,1,2,0,0,0,0,0,5,5,6,,,,,,,210.3295040410012,210.3295040410012,211.32995808300075,211.9966651249997,212.2299040830003,212.2299040830003,212.2299040830003,213.33026566599983,213.33026566599983,213.33026566599983,213.33026566599983,214.32947737500035,200005,203,2023-04-11_15h05.01.536,DMS_et_12-36,2022.2.4,None,
4,PRED,12,0.9071220353882756,1,images/picture_2.png,images/picture_1.png,0,"[-11.733433509789466, -11.733433509789462]",-11.733433509789464,-11.733433509789462,images/picture_2.png,1,"[11.733433509789462, -11.733433509789466]",11.733433509789462,-11.733433509789464,images/picture_3.png,2,"[11.733433509789464, 11.733433509789462]",11.733433509789464,11.733433509789462,0,1,1,0.9071220353882756,1.907122035388276,1.0928779646117244,3.0,1,1.6571220353882756,0,4.0,3.0,1,2,0,0,0,0,0,6,6,4,,,,,,,214.32947737500035,214.32947737500035,215.329642875,215.99657891600145,216.22980587500024,216.22980587500024,216.22980587500024,217.3299569160008,217.3299569160008,217.3299569160008,217.3299569160008,218.32962216600026,200005,203,2023-04-11_15h05.01.536,DMS_et_12-36,2022.2.4,None,
1,PRED,12,0.9071220353882756,1,images/picture_2.png,images/picture_1.png,0,"[11.733433509789464, 11.733433509789462]",11.733433509789464,11.733433509789462,images/picture_2.png,1,"[11.733433509789462, -11.733433509789466]",11.733433509789462,-11.733433509789464,images/picture_3.png,2,"[-11.733433509789466, -11.733433509789462]",-11.733433509789464,-11.733433509789462,0,1,1,0.9071220353882756,1.907122035388276,1.0928779646117244,3.0,1,1.6571220353882756,0,4.0,3.0,1,2,0,0,0,0,0,7,7,1,,,,,,,218.32962216600026,218.32962216600026,219.32991745800064,219.9967684580006,220.23000166600104,220.23000166600104,220.23000166600104,221.32996062500024,221.32996062500024,221.32996062500024,221.32996062500024,222.3295140830014,200005,203,2023-04-11_15h05.01.536,DMS_et_12-36,2022.2.4,None,
3,PRED,12,0.9071220353882756,1,images/picture_2.png,images/picture_1.png,0,"[11.733433509789462, -11.733433509789466]",11.733433509789462,-11.733433509789464,images/picture_2.png,1,"[11.733433509789464, 11.733433509789462]",11.733433509789464,11.733433509789462,images/picture_3.png,2,"[-11.733433509789466, -11.733433509789462]",-11.733433509789464,-11.733433509789462,0,1,1,0.9071220353882756,1.907122035388276,1.0928779646117244,3.0,1,1.6571220353882756,0,4.0,3.0,1,2,0,0,0,0,0,8,8,3,,,,,,,222.3295140830014,222.3295140830014,223.329937333001,223.99667016600142,224.23023216600086,224.23023216600086,224.23023216600086,225.3302003330009,225.3302003330009,225.3302003330009,225.3302003330009,226.3484051659998,200005,203,2023-04-11_15h05.01.536,DMS_et_12-36,2022.2.4,None,
,,,,,,,,,,,,,,,,,,,,,,,,,,,,,,,,,,,0,0,0,0,,,,,,,,,226.3484051659998,238.38179520800077,,,,,,,,,,,,,200005,203,2023-04-11_15h05.01.536,DMS_et_12-36,2022.2.4,None,
17,UNPRED,12,0.9071220353882756,1,images/picture_2.png,images/picture_1.png,0,"[11.733433509789464, 11.733433509789462]",11.733433509789464,11.733433509789462,images/picture_2.png,1,"[11.733433509789462, -11.733433509789466]",11.733433509789462,-11.733433509789464,images/picture_3.png,2,"[-11.733433509789466, -11.733433509789462]",-11.733433509789464,-11.733433509789462,0,1,1,0.9071220353882756,1.907122035388276,1.0928779646117244,3.0,1,1.6571220353882756,0,4.0,3.0,1,2,1,0,1,0,0,0,0,8,,,,,,,238.38179520800077,238.38179520800077,239.39694991600118,240.04931541600126,240.28330854100022,240.28330854100022,240.28330854100022,241.38258083300025,241.38258083300025,241.38258083300025,241.38258083300025,242.39632279100078,200005,203,2023-04-11_15h05.01.536,DMS_et_12-36,2022.2.4,None,
10,UNPRED,12,0.9071220353882756,1,images/picture_2.png,images/picture_1.png,0,"[11.733433509789464, 11.733433509789462]",11.733433509789464,11.733433509789462,images/picture_2.png,1,"[-11.733433509789466, -11.733433509789462]",-11.733433509789464,-11.733433509789462,images/picture_3.png,2,"[11.733433509789462, -11.733433509789466]",11.733433509789462,-11.733433509789464,0,1,1,0.9071220353882756,1.907122035388276,1.0928779646117244,3.0,1,1.6571220353882756,0,4.0,3.0,1,2,1,0,1,0,0,1,1,1,,,,,,,242.39632279100078,242.39632279100078,243.39688616600142,244.0632772500012,244.29692437500125,244.29692437500125,244.29692437500125,245.39691037500052,245.39691037500052,245.39691037500052,245.39691037500052,246.39630862500053,200005,203,2023-04-11_15h05.01.536,DMS_et_12-36,2022.2.4,None,
13,UNPRED,12,0.9071220353882756,1,images/picture_2.png,images/picture_1.png,0,"[11.733433509789464, 11.733433509789462]",11.733433509789464,11.733433509789462,images/picture_2.png,1,"[-11.733433509789462, 11.733433509789464]",-11.733433509789462,11.733433509789464,images/picture_3.png,2,"[-11.733433509789466, -11.733433509789462]",-11.733433509789464,-11.733433509789462,0,1,1,0.9071220353882756,1.907122035388276,1.0928779646117244,3.0,1,1.6571220353882756,0,4.0,3.0,1,2,1,0,1,0,0,2,2,4,,,,,,,246.39630862500053,246.39630862500053,247.396960125001,248.06348637500014,248.2966991250014,248.2966991250014,248.2966991250014,249.39674487500088,249.39674487500088,249.39674487500088,249.39674487500088,250.3960807910007,200005,203,2023-04-11_15h05.01.536,DMS_et_12-36,2022.2.4,None,
15,UNPRED,12,0.9071220353882756,1,images/picture_2.png,images/picture_1.png,0,"[11.733433509789464, 11.733433509789462]",11.733433509789464,11.733433509789462,images/picture_2.png,1,"[-11.733433509789466, -11.733433509789462]",-11.733433509789464,-11.733433509789462,images/picture_3.png,2,"[11.733433509789462, -11.733433509789466]",11.733433509789462,-11.733433509789464,0,1,1,0.9071220353882756,1.907122035388276,1.0928779646117244,3.0,1,1.6571220353882756,0,4.0,3.0,1,2,1,0,1,0,0,3,3,6,,,,,,,250.3960807910007,250.3960807910007,251.39673783299986,252.06348304099993,252.2967667080011,252.2967667080011,252.2967667080011,253.3969111660008,253.3969111660008,253.3969111660008,253.3969111660008,254.39640441600022,200005,203,2023-04-11_15h05.01.536,DMS_et_12-36,2022.2.4,None,
9,UNPRED,12,0.9071220353882756,1,images/picture_2.png,images/picture_1.png,0,"[11.733433509789462, -11.733433509789466]",11.733433509789462,-11.733433509789464,images/picture_2.png,1,"[-11.733433509789466, -11.733433509789462]",-11.733433509789464,-11.733433509789462,images/picture_3.png,2,"[-11.733433509789462, 11.733433509789464]",-11.733433509789462,11.733433509789464,0,1,1,0.9071220353882756,1.907122035388276,1.0928779646117244,3.0,1,1.6571220353882756,0,4.0,3.0,1,2,1,0,1,0,0,4,4,0,,,,,,,254.39640441600022,254.39640441600022,255.39672483300092,256.06335220800065,256.2966484160006,256.2966484160006,256.2966484160006,257.39645720800036,257.39645720800036,257.39645720800036,257.39645720800036,258.3963670000012,200005,203,2023-04-11_15h05.01.536,DMS_et_12-36,2022.2.4,None,
14,UNPRED,12,0.9071220353882756,1,images/picture_2.png,images/picture_1.png,0,"[-11.733433509789466, -11.733433509789462]",-11.733433509789464,-11.733433509789462,images/picture_2.png,1,"[11.733433509789464, 11.733433509789462]",11.733433509789464,11.733433509789462,images/picture_3.png,2,"[11.733433509789462, -11.733433509789466]",11.733433509789462,-11.733433509789464,0,1,1,0.9071220353882756,1.907122035388276,1.0928779646117244,3.0,1,1.6571220353882756,0,4.0,3.0,1,2,1,0,1,0,0,5,5,5,,,,,,,258.3963670000012,258.3963670000012,259.3969452910005,260.06310129099984,260.29675129099996,260.29675129099996,260.29675129099996,261.39663400000063,261.39663400000063,261.39663400000063,261.39663400000063,262.39562600000136,200005,203,2023-04-11_15h05.01.536,DMS_et_12-36,2022.2.4,None,
16,UNPRED,12,0.9071220353882756,0,images/picture_1.png,images/picture_1.png,0,"[11.733433509789462, -11.733433509789466]",11.733433509789462,-11.733433509789464,images/picture_2.png,1,"[11.733433509789464, 11.733433509789462]",11.733433509789464,11.733433509789462,images/picture_3.png,2,"[-11.733433509789466, -11.733433509789462]",-11.733433509789464,-11.733433509789462,0,1,1,0.9071220353882756,1.907122035388276,1.0928779646117244,3.0,1,1.6571220353882756,0,4.0,3.0,1,2,1,0,1,0,0,6,6,7,,,,,,,262.39562600000136,262.39562600000136,263.3966635409997,264.06337866600006,264.2966905410012,264.2966905410012,264.2966905410012,265.39666154100087,265.39666154100087,265.39666154100087,265.39666154100087,266.4154633750004,200005,203,2023-04-11_15h05.01.536,DMS_et_12-36,2022.2.4,None,
12,UNPRED,12,0.9071220353882756,2,images/picture_3.png,images/picture_1.png,0,"[11.733433509789462, -11.733433509789466]",11.733433509789462,-11.733433509789464,images/picture_2.png,1,"[-11.733433509789462, 11.733433509789464]",-11.733433509789462,11.733433509789464,images/picture_3.png,2,"[-11.733433509789466, -11.733433509789462]",-11.733433509789464,-11.733433509789462,0,1,1,0.9071220353882756,1.907122035388276,1.0928779646117244,3.0,1,1.6571220353882756,0,4.0,3.0,1,2,1,0,1,0,0,7,7,3,,,,,,,266.4154633750004,266.4154633750004,267.429727875,268.0832377080005,268.2970260000002,268.2970260000002,268.2970260000002,269.39670283300075,269.39670283300075,269.39670283300075,269.39670283300075,270.4166877500011,200005,203,2023-04-11_15h05.01.536,DMS_et_12-36,2022.2.4,None,
11,UNPRED,12,0.9071220353882756,1,images/picture_2.png,images/picture_1.png,0,"[11.733433509789462, -11.733433509789466]",11.733433509789462,-11.733433509789464,images/picture_2.png,1,"[-11.733433509789466, -11.733433509789462]",-11.733433509789464,-11.733433509789462,images/picture_3.png,2,"[-11.733433509789462, 11.733433509789464]",-11.733433509789462,11.733433509789464,0,1,1,0.9071220353882756,1.907122035388276,1.0928779646117244,3.0,1,1.6571220353882756,0,4.0,3.0,1,2,1,0,1,0,0,8,8,2,,,,,,,270.4166877500011,270.4166877500011,271.4299582500007,272.0827285000014,272.2964637080004,272.2964637080004,272.2964637080004,273.3967963750001,273.3967963750001,273.3967963750001,273.3967963750001,274.4282843330002,200005,203,2023-04-11_15h05.01.536,DMS_et_12-36,2022.2.4,None,
,,,,,,,,,,,,,,,,,,,,,,,,,,,,,,,,,,,1,0,1,0,,,,,,,,,274.4282843330002,286.44933762500114,,,,,,,,,,,,,200005,203,2023-04-11_15h05.01.536,DMS_et_12-36,2022.2.4,None,
26,PRED,12,0.9071220353882756,1,images/picture_2.png,images/picture_1.png,0,"[11.733433509789462, -11.733433509789466]",11.733433509789462,-11.733433509789464,images/picture_2.png,1,"[-11.733433509789462, 11.733433509789464]",-11.733433509789462,11.733433509789464,images/picture_3.png,2,"[-11.733433509789466, -11.733433509789462]",-11.733433509789464,-11.733433509789462,0,1,1,0.9071220353882756,1.907122035388276,1.0928779646117244,3.0,1,1.6571220353882756,0,4.0,3.0,1,2,2,0,2,0,0,0,0,8,,,,,,,286.44933762500114,286.44933762500114,287.46316262500113,288.11554095800057,288.3496216250005,288.3496216250005,288.3496216250005,289.4494635830015,289.4494635830015,289.4494635830015,289.4494635830015,290.4629175830014,200005,203,2023-04-11_15h05.01.536,DMS_et_12-36,2022.2.4,None,
24,PRED,12,0.9071220353882756,1,images/picture_2.png,images/picture_1.png,0,"[-11.733433509789466, -11.733433509789462]",-11.733433509789464,-11.733433509789462,images/picture_2.png,1,"[11.733433509789462, -11.733433509789466]",11.733433509789462,-11.733433509789464,images/picture_3.png,2,"[-11.733433509789462, 11.733433509789464]",-11.733433509789462,11.733433509789464,0,1,1,0.9071220353882756,1.907122035388276,1.0928779646117244,3.0,1,1.6571220353882756,0,4.0,3.0,1,2,2,0,2,0,0,1,1,6,,,,,,,290.4629175830014,290.4629175830014,291.4634984160002,292.13018508300047,292.36342254100055,292.36342254100055,292.36342254100055,293.46355941600086,293.46355941600086,293.46355941600086,293.46355941600086,294.46279895800035,200005,203,2023-04-11_15h05.01.536,DMS_et_12-36,2022.2.4,None,
18,PRED,12,0.9071220353882756,1,images/picture_2.png,images/picture_1.png,0,"[-11.733433509789466, -11.733433509789462]",-11.733433509789464,-11.733433509789462,images/picture_2.png,1,"[-11.733433509789462, 11.733433509789464]",-11.733433509789462,11.733433509789464,images/picture_3.png,2,"[11.733433509789462, -11.733433509789466]",11.733433509789462,-11.733433509789464,0,1,1,0.9071220353882756,1.907122035388276,1.0928779646117244,3.0,1,1.6571220353882756,0,4.0,3.0,1,2,2,0,2,0,0,2,2,0,,,,,,,294.46279895800035,294.46279895800035,295.4631126660006,296.12998487500045,296.3634683330001,296.3634683330001,296.3634683330001,297.46304070800034,297.46304070800034,297.46304070800034,297.46304070800034,298.4628633330012,200005,203,2023-04-11_15h05.01.536,DMS_et_12-36,2022.2.4,None,
22,PRED,12,0.9071220353882756,1,images/picture_2.png,images/picture_1.png,0,"[-11.733433509789466, -11.733433509789462]",-11.733433509789464,-11.733433509789462,images/picture_2.png,1,"[11.733433509789462, -11.733433509789466]",11.733433509789462,-11.733433509789464,images/picture_3.png,2,"[11.733433509789464, 11.733433509789462]",11.733433509789464,11.733433509789462,0,1,1,0.9071220353882756,1.907122035388276,1.0928779646117244,3.0,1,1.6571220353882756,0,4.0,3.0,1,2,2,0,2,0,0,3,3,4,,,,,,,298.4628633330012,298.4628633330012,299.4634355830003,300.1299922500002,300.36342279100063,300.36342279100063,300.36342279100063,301.4634609580007,301.4634609580007,301.4634609580007,301.4634609580007,302.46284158300114,200005,203,2023-04-11_15h05.01.536,DMS_et_12-36,2022.2.4,None,
25,PRED,12,0.9071220353882756,1,images/picture_2.png,images/picture_1.png,0,"[11.733433509789462, -11.733433509789466]",11.733433509789462,-11.733433509789464,images/picture_2.png,1,"[11.733433509789464, 11.733433509789462]",11.733433509789464,11.733433509789462,images/picture_3.png,2,"[-11.733433509789462, 11.733433509789464]",-11.733433509789462,11.733433509789464,0,1,1,0.9071220353882756,1.907122035388276,1.0928779646117244,3.0,1,1.6571220353882756,0,4.0,3.0,1,2,2,0,2,0,0,4,4,7,,,,,,,302.46284158300114,302.46284158300114,303.46347287500066,304.13018058300077,304.36340958300025,304.36340958300025,304.36340958300025,305.4633999580001,305.4633999580001,305.4633999580001,305.4633999580001,306.4626497500012,200005,203,2023-04-11_15h05.01.536,DMS_et_12-36,2022.2.4,None,
19,PRED,12,0.9071220353882756,1,images/picture_2.png,images/picture_1.png,0,"[-11.733433509789466, -11.733433509789462]",-11.733433509789464,-11.733433509789462,images/picture_2.png,1,"[11.733433509789464, 11.733433509789462]",11.733433509789464,11.733433509789462,images/picture_3.png,2,"[-11.733433509789462, 11.733433509789464]",-11.733433509789462,11.733433509789464,0,1,1,0.9071220353882756,1.907122035388276,1.0928779646117244,3.0,1,1.6571220353882756,0,4.0,3.0,1,2,2,0,2,0,0,5,5,1,,,,,,,306.4626497500012,306.4626497500012,307.4633061250006,308.12958345800143,308.36303454100016,308.36303454100016,308.36303454100016,309.463182083,309.463182083,309.463182083,309.463182083,310.4625895830013,200005,203,2023-04-11_15h05.01.536,DMS_et_12-36,2022.2.4,None,
23,PRED,12,0.9071220353882756,1,images/picture_2.png,images/picture_1.png,0,"[11.733433509789464, 11.733433509789462]",11.733433509789464,11.733433509789462,images/picture_2.png,1,"[11.733433509789462, -11.733433509789466]",11.733433509789462,-11.733433509789464,images/picture_3.png,2,"[-11.733433509789466, -11.733433509789462]",-11.733433509789464,-11.733433509789462,0,1,1,0.9071220353882756,1.907122035388276,1.0928779646117244,3.0,1,1.6571220353882756,0,4.0,3.0,1,2,2,0,2,0,0,6,6,5,,,,,,,310.4625895830013,310.4625895830013,311.4631856249998,312.12984612500077,312.3632892910009,312.3632892910009,312.3632892910009,313.4632756660012,313.4632756660012,313.4632756660012,313.4632756660012,314.46260670800075,200005,203,2023-04-11_15h05.01.536,DMS_et_12-36,2022.2.4,None,
20,PRED,12,0.9071220353882756,1,images/picture_2.png,images/picture_1.png,0,"[-11.733433509789462, 11.733433509789464]",-11.733433509789462,11.733433509789464,images/picture_2.png,1,"[11.733433509789462, -11.733433509789466]",11.733433509789462,-11.733433509789464,images/picture_3.png,2,"[-11.733433509789466, -11.733433509789462]",-11.733433509789464,-11.733433509789462,0,1,1,0.9071220353882756,1.907122035388276,1.0928779646117244,3.0,1,1.6571220353882756,0,4.0,3.0,1,2,2,0,2,0,0,7,7,2,,,,,,,314.46260670800075,314.46260670800075,315.46320045799985,316.12990729100056,316.3632526250003,316.3632526250003,316.3632526250003,317.4631564580013,317.4631564580013,317.4631564580013,317.4631564580013,318.46287229100017,200005,203,2023-04-11_15h05.01.536,DMS_et_12-36,2022.2.4,None,
21,PRED,12,0.9071220353882756,1,images/picture_2.png,images/picture_1.png,0,"[11.733433509789464, 11.733433509789462]",11.733433509789464,11.733433509789462,images/picture_2.png,1,"[-11.733433509789462, 11.733433509789464]",-11.733433509789462,11.733433509789464,images/picture_3.png,2,"[11.733433509789462, -11.733433509789466]",11.733433509789462,-11.733433509789464,0,1,1,0.9071220353882756,1.907122035388276,1.0928779646117244,3.0,1,1.6571220353882756,0,4.0,3.0,1,2,2,0,2,0,0,8,8,3,,,,,,,318.46287229100017,318.46287229100017,319.46316087500054,320.12974975,320.3632144580006,320.3632144580006,320.3632144580006,321.46331770800134,321.46331770800134,321.46331770800134,321.46331770800134,322.5059694160009,200005,203,2023-04-11_15h05.01.536,DMS_et_12-36,2022.2.4,None,
,,,,,,,,,,,,,,,,,,,,,,,,,,,,,,,,,,,2,0,2,0,,,,,,,,,322.5059694160009,334.5400823330001,,,,,,,,,,,,,200005,203,2023-04-11_15h05.01.536,DMS_et_12-36,2022.2.4,None,
35,UNPRED,12,0.9071220353882756,2,images/picture_3.png,images/picture_1.png,0,"[11.733433509789464, 11.733433509789462]",11.733433509789464,11.733433509789462,images/picture_2.png,1,"[-11.733433509789462, 11.733433509789464]",-11.733433509789462,11.733433509789464,images/picture_3.png,2,"[-11.733433509789466, -11.733433509789462]",-11.733433509789464,-11.733433509789462,0,1,1,0.9071220353882756,1.907122035388276,1.0928779646117244,3.0,1,1.6571220353882756,0,4.0,3.0,1,2,3,0,3,0,0,0,0,8,,,,,,,334.5400823330001,334.5400823330001,335.54934850000063,336.1961626250013,336.42977091600005,336.42977091600005,336.42977091600005,337.5299273750006,337.5299273750006,337.5299273750006,337.5299273750006,338.54882745800023,200005,203,2023-04-11_15h05.01.536,DMS_et_12-36,2022.2.4,None,
30,UNPRED,12,0.9071220353882756,2,images/picture_3.png,images/picture_1.png,0,"[11.733433509789464, 11.733433509789462]",11.733433509789464,11.733433509789462,images/picture_2.png,1,"[11.733433509789462, -11.733433509789466]",11.733433509789462,-11.733433509789464,images/picture_3.png,2,"[-11.733433509789462, 11.733433509789464]",-11.733433509789462,11.733433509789464,0,1,1,0.9071220353882756,1.907122035388276,1.0928779646117244,3.0,1,1.6571220353882756,0,4.0,3.0,1,2,3,0,3,0,0,1,1,3,,,,,,,338.54882745800023,338.54882745800023,339.5630558330013,340.21573524999985,340.4299490829999,340.4299490829999,340.4299490829999,341.53002433300026,341.53002433300026,341.53002433300026,341.53002433300026,342.54872712500037,200005,203,2023-04-11_15h05.01.536,DMS_et_12-36,2022.2.4,None,
28,UNPRED,12,0.9071220353882756,2,images/picture_3.png,images/picture_1.png,0,"[11.733433509789462, -11.733433509789466]",11.733433509789462,-11.733433509789464,images/picture_2.png,1,"[11.733433509789464, 11.733433509789462]",11.733433509789464,11.733433509789462,images/picture_3.png,2,"[-11.733433509789462, 11.733433509789464]",-11.733433509789462,11.733433509789464,0,1,1,0.9071220353882756,1.907122035388276,1.0928779646117244,3.0,1,1.6571220353882756,0,4.0,3.0,1,2,3,0,3,0,0,2,2,1,,,,,,,342.54872712500037,342.54872712500037,343.5631617500003,344.2158065000003,344.4297865000008,344.4297865000008,344.4297865000008,345.5300189999998,345.5300189999998,345.5300189999998,345.5300189999998,346.5493263750013,200005,203,2023-04-11_15h05.01.536,DMS_et_12-36,2022.2.4,None,
32,UNPRED,12,0.9071220353882756,1,images/picture_2.png,images/picture_1.png,0,"[11.733433509789462, -11.733433509789466]",11.733433509789462,-11.733433509789464,images/picture_2.png,1,"[-11.733433509789466, -11.733433509789462]",-11.733433509789464,-11.733433509789462,images/picture_3.png,2,"[-11.733433509789462, 11.733433509789464]",-11.733433509789462,11.733433509789464,0,1,1,0.9071220353882756,1.907122035388276,1.0928779646117244,3.0,1,1.6571220353882756,0,4.0,3.0,1,2,3,0,3,0,0,3,3,5,,,,,,,346.5493263750013,346.5493263750013,347.56326254099986,348.2158496660013,348.4300027500012,348.4300027500012,348.4300027500012,349.52964870800133,349.52964870800133,349.52964870800133,349.52964870800133,350.5292960830011,200005,203,2023-04-11_15h05.01.536,DMS_et_12-36,2022.2.4,None,
31,UNPRED,12,0.9071220353882756,1,images/picture_2.png,images/picture_1.png,0,"[11.733433509789462, -11.733433509789466]",11.733433509789462,-11.733433509789464,images/picture_2.png,1,"[-11.733433509789466, -11.733433509789462]",-11.733433509789464,-11.733433509789462,images/picture_3.png,2,"[-11.733433509789462, 11.733433509789464]",-11.733433509789462,11.733433509789464,0,1,1,0.9071220353882756,1.907122035388276,1.0928779646117244,3.0,1,1.6571220353882756,0,4.0,3.0,1,2,3,0,3,0,0,4,4,4,,,,,,,350.5292960830011,350.5292960830011,351.5295474579998,352.19650970800103,352.4297062080004,352.4297062080004,352.4297062080004,353.5297721250008,353.5297721250008,353.5297721250008,353.5297721250008,354.52930800000104,200005,203,2023-04-11_15h05.01.536,DMS_et_12-36,2022.2.4,None,
29,UNPRED,12,0.9071220353882756,0,images/picture_1.png,images/picture_1.png,0,"[11.733433509789464, 11.733433509789462]",11.733433509789464,11.733433509789462,images/picture_2.png,1,"[-11.733433509789466, -11.733433509789462]",-11.733433509789464,-11.733433509789462,images/picture_3.png,2,"[-11.733433509789462, 11.733433509789464]",-11.733433509789462,11.733433509789464,0,1,1,0.9071220353882756,1.907122035388276,1.0928779646117244,3.0,1,1.6571220353882756,0,4.0,3.0,1,2,3,0,3,0,0,5,5,2,,,,,,,354.52930800000104,354.52930800000104,355.52993937500105,356.1964710000011,356.429897375001,356.429897375001,356.429897375001,357.5299287079997,357.5299287079997,357.5299287079997,357.5299287079997,358.5293227500006,200005,203,2023-04-11_15h05.01.536,DMS_et_12-36,2022.2.4,None,
27,UNPRED,12,0.9071220353882756,0,images/picture_1.png,images/picture_1.png,0,"[11.733433509789462, -11.733433509789466]",11.733433509789462,-11.733433509789464,images/picture_2.png,1,"[-11.733433509789466, -11.733433509789462]",-11.733433509789464,-11.733433509789462,images/picture_3.png,2,"[11.733433509789464, 11.733433509789462]",11.733433509789464,11.733433509789462,0,1,1,0.9071220353882756,1.907122035388276,1.0928779646117244,3.0,1,1.6571220353882756,0,4.0,3.0,1,2,3,0,3,0,0,6,6,0,,,,,,,358.5293227500006,358.5293227500006,359.5295515830003,360.1965888750001,360.429854375001,360.429854375001,360.429854375001,361.5296070830009,361.5296070830009,361.5296070830009,361.5296070830009,362.5490331250003,200005,203,2023-04-11_15h05.01.536,DMS_et_12-36,2022.2.4,None,
33,UNPRED,12,0.9071220353882756,2,images/picture_3.png,images/picture_1.png,0,"[11.733433509789462, -11.733433509789466]",11.733433509789462,-11.733433509789464,images/picture_2.png,1,"[11.733433509789464, 11.733433509789462]",11.733433509789464,11.733433509789462,images/picture_3.png,2,"[-11.733433509789462, 11.733433509789464]",-11.733433509789462,11.733433509789464,0,1,1,0.9071220353882756,1.907122035388276,1.0928779646117244,3.0,1,1.6571220353882756,0,4.0,3.0,1,2,3,0,3,0,0,7,7,6,,,,,,,362.5490331250003,362.5490331250003,363.563228250001,364.2158416660004,364.42974400000094,364.42974400000094,364.42974400000094,365.53009554100026,365.53009554100026,365.53009554100026,365.53009554100026,366.54866679100087,200005,203,2023-04-11_15h05.01.536,DMS_et_12-36,2022.2.4,None,
34,UNPRED,12,0.9071220353882756,2,images/picture_3.png,images/picture_1.png,0,"[-11.733433509789462, 11.733433509789464]",-11.733433509789462,11.733433509789464,images/picture_2.png,1,"[11.733433509789464, 11.733433509789462]",11.733433509789464,11.733433509789462,images/picture_3.png,2,"[11.733433509789462, -11.733433509789466]",11.733433509789462,-11.733433509789464,0,1,1,0.9071220353882756,1.907122035388276,1.0928779646117244,3.0,1,1.6571220353882756,0,4.0,3.0,1,2,3,0,3,0,0,8,8,7,,,,,,,366.54866679100087,366.54866679100087,367.56325766600094,368.2156970410015,368.4299206659998,368.4299206659998,368.4299206659998,369.5295341250003,369.5295341250003,369.5295341250003,369.5295341250003,370.5817975830014,200005,203,2023-04-11_15h05.01.536,DMS_et_12-36,2022.2.4,None,
,,,,,,,,,,,,,,,,,,,,,,,,,,,,,,,,,,,3,0,3,0,,,,,,,,,370.5817975830014,382.6162980000008,,,,,,,,,,,,,200005,203,2023-04-11_15h05.01.536,DMS_et_12-36,2022.2.4,None,
38,PRED,12,0.9071220353882756,1,images/picture_2.png,images/picture_1.png,0,"[-11.733433509789462, 11.733433509789464]",-11.733433509789462,11.733433509789464,images/picture_2.png,1,"[11.733433509789462, -11.733433509789466]",11.733433509789462,-11.733433509789464,images/picture_3.png,2,"[-11.733433509789466, -11.733433509789462]",-11.733433509789464,-11.733433509789462,0,1,1,0.9071220353882756,1.907122035388276,1.0928779646117244,3.0,1,1.6571220353882756,0,4.0,3.0,1,2,4,0,4,0,0,0,0,2,,,,,,,382.6162980000008,382.6162980000008,383.629747166,384.28239729100096,384.5157431250009,384.5157431250009,384.5157431250009,385.615900666,385.615900666,385.615900666,385.615900666,386.6292896249997,200005,203,2023-04-11_15h05.01.536,DMS_et_12-36,2022.2.4,None,
39,PRED,12,0.9071220353882756,1,images/picture_2.png,images/picture_1.png,0,"[-11.733433509789462, 11.733433509789464]",-11.733433509789462,11.733433509789464,images/picture_2.png,1,"[11.733433509789462, -11.733433509789466]",11.733433509789462,-11.733433509789464,images/picture_3.png,2,"[11.733433509789464, 11.733433509789462]",11.733433509789464,11.733433509789462,0,1,1,0.9071220353882756,1.907122035388276,1.0928779646117244,3.0,1,1.6571220353882756,0,4.0,3.0,1,2,4,0,4,0,0,1,1,3,,,,,,,386.6292896249997,386.6292896249997,387.62994470800004,388.29644033300065,388.52993612499995,388.52993612499995,388.52993612499995,389.62966383300045,389.62966383300045,389.62966383300045,389.62966383300045,390.629654458,200005,203,2023-04-11_15h05.01.536,DMS_et_12-36,2022.2.4,None,
44,PRED,12,0.9071220353882756,1,images/picture_2.png,images/picture_1.png,0,"[-11.733433509789466, -11.733433509789462]",-11.733433509789464,-11.733433509789462,images/picture_2.png,1,"[11.733433509789464, 11.733433509789462]",11.733433509789464,11.733433509789462,images/picture_3.png,2,"[-11.733433509789462, 11.733433509789464]",-11.733433509789462,11.733433509789464,0,1,1,0.9071220353882756,1.907122035388276,1.0928779646117244,3.0,1,1.6571220353882756,0,4.0,3.0,1,2,4,0,4,0,0,2,2,8,,,,,,,390.629654458,390.629654458,391.6299693330002,392.29654983300134,392.52982175000034,392.52982175000034,392.52982175000034,393.62995687500006,393.62995687500006,393.62995687500006,393.62995687500006,394.62930841600064,200005,203,2023-04-11_15h05.01.536,DMS_et_12-36,2022.2.4,None,
37,PRED,12,0.9071220353882756,1,images/picture_2.png,images/picture_1.png,0,"[-11.733433509789466, -11.733433509789462]",-11.733433509789464,-11.733433509789462,images/picture_2.png,1,"[11.733433509789462, -11.733433509789466]",11.733433509789462,-11.733433509789464,images/picture_3.png,2,"[11.733433509789464, 11.733433509789462]",11.733433509789464,11.733433509789462,0,1,1,0.9071220353882756,1.907122035388276,1.0928779646117244,3.0,1,1.6571220353882756,0,4.0,3.0,1,2,4,0,4,0,0,3,3,1,,,,,,,394.62930841600064,394.62930841600064,395.6299312500014,396.2964862500012,396.5299462080002,396.5299462080002,396.5299462080002,397.62974533300076,397.62974533300076,397.62974533300076,397.62974533300076,398.6294695830002,200005,203,2023-04-11_15h05.01.536,DMS_et_12-36,2022.2.4,None,
36,PRED,12,0.9071220353882756,1,images/picture_2.png,images/picture_1.png,0,"[11.733433509789462, -11.733433509789466]",11.733433509789462,-11.733433509789464,images/picture_2.png,1,"[11.733433509789464, 11.733433509789462]",11.733433509789464,11.733433509789462,images/picture_3.png,2,"[-11.733433509789466, -11.733433509789462]",-11.733433509789464,-11.733433509789462,0,1,1,0.9071220353882756,1.907122035388276,1.0928779646117244,3.0,1,1.6571220353882756,0,4.0,3.0,1,2,4,0,4,0,0,4,4,0,,,,,,,398.6294695830002,398.6294695830002,399.6299450410006,400.29625504100113,400.5296110830004,400.5296110830004,400.5296110830004,401.629959291,401.629959291,401.629959291,401.629959291,402.6295658750005,200005,203,2023-04-11_15h05.01.536,DMS_et_12-36,2022.2.4,None,
40,PRED,12,0.9071220353882756,1,images/picture_2.png,images/picture_1.png,0,"[-11.733433509789462, 11.733433509789464]",-11.733433509789462,11.733433509789464,images/picture_2.png,1,"[11.733433509789462, -11.733433509789466]",11.733433509789462,-11.733433509789464,images/picture_3.png,2,"[-11.733433509789466, -11.733433509789462]",-11.733433509789464,-11.733433509789462,0,1,1,0.9071220353882756,1.907122035388276,1.0928779646117244,3.0,1,1.6571220353882756,0,4.0,3.0,1,2,4,0,4,0,0,5,5,4,,,,,,,402.6295658750005,402.6295658750005,403.62973675000103,404.2964160829997,404.52994424999997,404.52994424999997,404.52994424999997,405.62996125000063,405.62996125000063,405.62996125000063,405.62996125000063,406.62947537500077,200005,203,2023-04-11_15h05.01.536,DMS_et_12-36,2022.2.4,None,
41,PRED,12,0.9071220353882756,1,images/picture_2.png,images/picture_1.png,0,"[-11.733433509789466, -11.733433509789462]",-11.733433509789464,-11.733433509789462,images/picture_2.png,1,"[11.733433509789462, -11.733433509789466]",11.733433509789462,-11.733433509789464,images/picture_3.png,2,"[11.733433509789464, 11.733433509789462]",11.733433509789464,11.733433509789462,0,1,1,0.9071220353882756,1.907122035388276,1.0928779646117244,3.0,1,1.6571220353882756,0,4.0,3.0,1,2,4,0,4,0,0,6,6,5,,,,,,,406.62947537500077,406.62947537500077,407.62953354100136,408.2965101660011,408.5299890410006,408.5299890410006,408.5299890410006,409.6297865409997,409.6297865409997,409.6297865409997,409.6297865409997,410.62944962500114,200005,203,2023-04-11_15h05.01.536,DMS_et_12-36,2022.2.4,None,
43,PRED,12,0.9071220353882756,1,images/picture_2.png,images/picture_1.png,0,"[11.733433509789464, 11.733433509789462]",11.733433509789464,11.733433509789462,images/picture_2.png,1,"[11.733433509789462, -11.733433509789466]",11.733433509789462,-11.733433509789464,images/picture_3.png,2,"[-11.733433509789466, -11.733433509789462]",-11.733433509789464,-11.733433509789462,0,1,1,0.9071220353882756,1.907122035388276,1.0928779646117244,3.0,1,1.6571220353882756,0,4.0,3.0,1,2,4,0,4,0,0,7,7,7,,,,,,,410.62944962500114,410.62944962500114,411.6299736250003,412.2964350000002,412.52982458299994,412.52982458299994,412.52982458299994,413.6299385000002,413.6299385000002,413.6299385000002,413.6299385000002,414.62940725000044,200005,203,2023-04-11_15h05.01.536,DMS_et_12-36,2022.2.4,None,
42,PRED,12,0.9071220353882756,1,images/picture_2.png,images/picture_1.png,0,"[-11.733433509789466, -11.733433509789462]",-11.733433509789464,-11.733433509789462,images/picture_2.png,1,"[11.733433509789464, 11.733433509789462]",11.733433509789464,11.733433509789462,images/picture_3.png,2,"[-11.733433509789462, 11.733433509789464]",-11.733433509789462,11.733433509789464,0,1,1,0.9071220353882756,1.907122035388276,1.0928779646117244,3.0,1,1.6571220353882756,0,4.0,3.0,1,2,4,0,4,0,0,8,8,6,,,,,,,414.62940725000044,414.62940725000044,415.62974100000065,416.29649387500103,416.52974862500014,416.52974862500014,416.52974862500014,417.62976595800137,417.62976595800137,417.62976595800137,417.62976595800137,418.688208208001,200005,203,2023-04-11_15h05.01.536,DMS_et_12-36,2022.2.4,None,
,,,,,,,,,,,,,,,,,,,,,,,,,,,,,,,,,,,4,0,4,0,,,,,,,,,418.688208208001,430.71796195800016,,,,,,,,,,,,,200005,203,2023-04-11_15h05.01.536,DMS_et_12-36,2022.2.4,None,
51,UNPRED,12,0.9071220353882756,0,images/picture_1.png,images/picture_1.png,0,"[11.733433509789462, -11.733433509789466]",11.733433509789462,-11.733433509789464,images/picture_2.png,1,"[-11.733433509789462, 11.733433509789464]",-11.733433509789462,11.733433509789464,images/picture_3.png,2,"[11.733433509789464, 11.733433509789462]",11.733433509789464,11.733433509789462,0,1,1,0.9071220353882756,1.907122035388276,1.0928779646117244,3.0,1,1.6571220353882756,0,4.0,3.0,1,2,5,0,5,0,0,0,0,6,,,,,,,430.71796195800016,430.71796195800016,431.72956554099983,432.38289675000124,432.62975479099987,432.62975479099987,432.62975479099987,433.729953166001,433.729953166001,433.729953166001,433.7159842500005,434.7292994159998,200005,203,2023-04-11_15h05.01.536,DMS_et_12-36,2022.2.4,None,
53,UNPRED,12,0.9071220353882756,1,images/picture_2.png,images/picture_1.png,0,"[11.733433509789462, -11.733433509789466]",11.733433509789462,-11.733433509789464,images/picture_2.png,1,"[-11.733433509789462, 11.733433509789464]",-11.733433509789462,11.733433509789464,images/picture_3.png,2,"[-11.733433509789466, -11.733433509789462]",-11.733433509789464,-11.733433509789462,0,1,1,0.9071220353882756,1.907122035388276,1.0928779646117244,3.0,1,1.6571220353882756,0,4.0,3.0,1,2,5,0,5,0,0,1,1,8,,,,,,,434.7292994159998,434.7292994159998,435.72991804100093,436.39649612500034,436.6298755830012,436.6298755830012,436.6298755830012,437.72988616600014,437.72988616600014,437.72988616600014,437.72988616600014,438.7488080410003,200005,203,2023-04-11_15h05.01.536,DMS_et_12-36,2022.2.4,None,
49,UNPRED,12,0.9071220353882756,2,images/picture_3.png,images/picture_1.png,0,"[11.733433509789464, 11.733433509789462]",11.733433509789464,11.733433509789462,images/picture_2.png,1,"[-11.733433509789462, 11.733433509789464]",-11.733433509789462,11.733433509789464,images/picture_3.png,2,"[-11.733433509789466, -11.733433509789462]",-11.733433509789464,-11.733433509789462,0,1,1,0.9071220353882756,1.907122035388276,1.0928779646117244,3.0,1,1.6571220353882756,0,4.0,3.0,1,2,5,0,5,0,0,2,2,4,,,,,,,438.7488080410003,438.7488080410003,439.763195083,440.41621304100045,440.62991158300065,440.62991158300065,440.62991158300065,441.72972200000004,441.72972200000004,441.72972200000004,441.72972200000004,442.749142916,200005,203,2023-04-11_15h05.01.536,DMS_et_12-36,2022.2.4,None,
46,UNPRED,12,0.9071220353882756,2,images/picture_3.png,images/picture_1.png,0,"[11.733433509789462, -11.733433509789466]",11.733433509789462,-11.733433509789464,images/picture_2.png,1,"[-11.733433509789466, -11.733433509789462]",-11.733433509789464,-11.733433509789462,images/picture_3.png,2,"[-11.733433509789462, 11.733433509789464]",-11.733433509789462,11.733433509789464,0,1,1,0.9071220353882756,1.907122035388276,1.0928779646117244,3.0,1,1.6571220353882756,0,4.0,3.0,1,2,5,0,5,0,0,3,3,1,,,,,,,442.749142916,442.749142916,443.7633330410008,444.4164032910012,444.63001562499994,444.63001562499994,444.63001562499994,445.7297577500012,445.7297577500012,445.7297577500012,445.7297577500012,446.7308575830011,200005,203,2023-04-11_15h05.01.536,DMS_et_12-36,2022.2.4,None,
48,UNPRED,12,0.9071220353882756,1,images/picture_2.png,images/picture_1.png,0,"[11.733433509789464, 11.733433509789462]",11.733433509789464,11.733433509789462,images/picture_2.png,1,"[-11.733433509789466, -11.733433509789462]",-11.733433509789464,-11.733433509789462,images/picture_3.png,2,"[11.733433509789462, -11.733433509789466]",11.733433509789462,-11.733433509789464,0,1,1,0.9071220353882756,1.907122035388276,1.0928779646117244,3.0,1,1.6571220353882756,0,4.0,3.0,1,2,5,0,5,0,0,4,4,3,,,,,,,446.7308575830011,446.7308575830011,447.72990350000146,448.3964754580011,448.6296037500015,448.6296037500015,448.6296037500015,449.72980358300083,449.72980358300083,449.72980358300083,449.72980358300083,450.7293817910013,200005,203,2023-04-11_15h05.01.536,DMS_et_12-36,2022.2.4,None,
50,UNPRED,12,0.9071220353882756,0,images/picture_1.png,images/picture_1.png,0,"[-11.733433509789462, 11.733433509789464]",-11.733433509789462,11.733433509789464,images/picture_2.png,1,"[11.733433509789462, -11.733433509789466]",11.733433509789462,-11.733433509789464,images/picture_3.png,2,"[11.733433509789464, 11.733433509789462]",11.733433509789464,11.733433509789462,0,1,1,0.9071220353882756,1.907122035388276,1.0928779646117244,3.0,1,1.6571220353882756,0,4.0,3.0,1,2,5,0,5,0,0,5,5,5,,,,,,,450.7293817910013,450.7293817910013,451.72964941600003,452.39649166600066,452.62995412500095,452.62995412500095,452.62995412500095,453.7300480410013,453.7300480410013,453.7300480410013,453.7300480410013,454.7292424160005,200005,203,2023-04-11_15h05.01.536,DMS_et_12-36,2022.2.4,None,
47,UNPRED,12,0.9071220353882756,0,images/picture_1.png,images/picture_1.png,0,"[11.733433509789462, -11.733433509789466]",11.733433509789462,-11.733433509789464,images/picture_2.png,1,"[-11.733433509789462, 11.733433509789464]",-11.733433509789462,11.733433509789464,images/picture_3.png,2,"[-11.733433509789466, -11.733433509789462]",-11.733433509789464,-11.733433509789462,0,1,1,0.9071220353882756,1.907122035388276,1.0928779646117244,3.0,1,1.6571220353882756,0,4.0,3.0,1,2,5,0,5,0,0,6,6,2,,,,,,,454.7292424160005,454.7292424160005,455.7299314160009,456.3965579579999,456.6297596250006,456.6297596250006,456.6297596250006,457.7299132500011,457.7299132500011,457.7299132500011,457.7299132500011,458.74875625000095,200005,203,2023-04-11_15h05.01.536,DMS_et_12-36,2022.2.4,None,
45,UNPRED,12,0.9071220353882756,2,images/picture_3.png,images/picture_1.png,0,"[11.733433509789462, -11.733433509789466]",11.733433509789462,-11.733433509789464,images/picture_2.png,1,"[-11.733433509789466, -11.733433509789462]",-11.733433509789464,-11.733433509789462,images/picture_3.png,2,"[11.733433509789464, 11.733433509789462]",11.733433509789464,11.733433509789462,0,1,1,0.9071220353882756,1.907122035388276,1.0928779646117244,3.0,1,1.6571220353882756,0,4.0,3.0,1,2,5,0,5,0,0,7,7,0,,,,,,,458.74875625000095,458.74875625000095,459.7631520410014,460.41614141600076,460.62997141600135,460.62997141600135,460.62997141600135,461.72961662499984,461.72961662499984,461.72961662499984,461.72961662499984,462.7299759160014,200005,203,2023-04-11_15h05.01.536,DMS_et_12-36,2022.2.4,None,
52,UNPRED,12,0.9071220353882756,0,images/picture_1.png,images/picture_1.png,0,"[11.733433509789464, 11.733433509789462]",11.733433509789464,11.733433509789462,images/picture_2.png,1,"[-11.733433509789462, 11.733433509789464]",-11.733433509789462,11.733433509789464,images/picture_3.png,2,"[-11.733433509789466, -11.733433509789462]",-11.733433509789464,-11.733433509789462,0,1,1,0.9071220353882756,1.907122035388276,1.0928779646117244,3.0,1,1.6571220353882756,0,4.0,3.0,1,2,5,0,5,0,0,8,8,7,,,,,,,462.7299759160014,462.7299759160014,463.7299361250007,464.3964302080003,464.6298473750012,464.6298473750012,464.6298473750012,465.73001445800037,465.73001445800037,465.73001445800037,465.73001445800037,466.8464675000014,200005,203,2023-04-11_15h05.01.536,DMS_et_12-36,2022.2.4,None,
,,,,,,,,,,,,,,,,,,,,,,,,,,,,,,,,,,,5,0,5,0,,,,,,,,,466.8464675000014,478.87338358300076,,,,,,,,,,,,,200005,203,2023-04-11_15h05.01.536,DMS_et_12-36,2022.2.4,None,
62,PRED,12,0.9071220353882756,2,images/picture_3.png,images/picture_1.png,0,"[-11.733433509789462, 11.733433509789464]",-11.733433509789462,11.733433509789464,images/picture_2.png,1,"[11.733433509789464, 11.733433509789462]",11.733433509789464,11.733433509789462,images/picture_3.png,2,"[11.733433509789462, -11.733433509789466]",11.733433509789462,-11.733433509789464,0,1,1,0.9071220353882756,1.907122035388276,1.0928779646117244,3.0,1,1.6571220353882756,0,4.0,3.0,1,2,6,0,6,0,0,0,0,8,,,,,,,478.87338358300076,478.87338358300076,479.88276454100014,480.5300236660005,480.7632183750011,480.7632183750011,480.7632183750011,481.8632886659998,481.8632886659998,481.8632886659998,481.8632886659998,482.8639025829998,200005,203,2023-04-11_15h05.01.536,DMS_et_12-36,2022.2.4,None,
58,PRED,12,0.9071220353882756,2,images/picture_3.png,images/picture_1.png,0,"[11.733433509789462, -11.733433509789466]",11.733433509789462,-11.733433509789464,images/picture_2.png,1,"[11.733433509789464, 11.733433509789462]",11.733433509789464,11.733433509789462,images/picture_3.png,2,"[-11.733433509789462, 11.733433509789464]",-11.733433509789462,11.733433509789464,0,1,1,0.9071220353882756,1.907122035388276,1.0928779646117244,3.0,1,1.6571220353882756,0,4.0,3.0,1,2,6,0,6,0,0,1,1,4,,,,,,,482.8639025829998,482.8639025829998,483.8632721660015,484.5297402080014,484.76324195800044,484.76324195800044,484.76324195800044,485.8634405410012,485.8634405410012,485.8634405410012,485.8634405410012,486.8822326660011,200005,203,2023-04-11_15h05.01.536,DMS_et_12-36,2022.2.4,None,
59,PRED,12,0.9071220353882756,2,images/picture_3.png,images/picture_1.png,0,"[-11.733433509789466, -11.733433509789462]",-11.733433509789464,-11.733433509789462,images/picture_2.png,1,"[11.733433509789464, 11.733433509789462]",11.733433509789464,11.733433509789462,images/picture_3.png,2,"[-11.733433509789462, 11.733433509789464]",-11.733433509789462,11.733433509789464,0,1,1,0.9071220353882756,1.907122035388276,1.0928779646117244,3.0,1,1.6571220353882756,0,4.0,3.0,1,2,6,0,6,0,0,2,2,5,,,,,,,486.8822326660011,486.8822326660011,487.8965252910002,488.5494511659999,488.7633383749999,488.7633383749999,488.7633383749999,489.86297841600026,489.86297841600026,489.86297841600026,489.86297841600026,490.8827018330012,200005,203,2023-04-11_15h05.01.536,DMS_et_12-36,2022.2.4,None,
61,PRED,12,0.9071220353882756,2,images/picture_3.png,images/picture_1.png,0,"[11.733433509789464, 11.733433509789462]",11.733433509789464,11.733433509789462,images/picture_2.png,1,"[-11.733433509789462, 11.733433509789464]",-11.733433509789462,11.733433509789464,images/picture_3.png,2,"[11.733433509789462, -11.733433509789466]",11.733433509789462,-11.733433509789464,0,1,1,0.9071220353882756,1.907122035388276,1.0928779646117244,3.0,1,1.6571220353882756,0,4.0,3.0,1,2,6,0,6,0,0,3,3,7,,,,,,,490.8827018330012,490.8827018330012,491.8965214159998,492.5482327080008,492.7630019160006,492.7630019160006,492.7630019160006,493.86324158299976,493.86324158299976,493.86324158299976,493.86324158299976,494.8823141660014,200005,203,2023-04-11_15h05.01.536,DMS_et_12-36,2022.2.4,None,
55,PRED,12,0.9071220353882756,2,images/picture_3.png,images/picture_1.png,0,"[11.733433509789462, -11.733433509789466]",11.733433509789462,-11.733433509789464,images/picture_2.png,1,"[-11.733433509789462, 11.733433509789464]",-11.733433509789462,11.733433509789464,images/picture_3.png,2,"[11.733433509789464, 11.733433509789462]",11.733433509789464,11.733433509789462,0,1,1,0.9071220353882756,1.907122035388276,1.0928779646117244,3.0,1,1.6571220353882756,0,4.0,3.0,1,2,6,0,6,0,0,4,4,1,,,,,,,494.8823141660014,494.8823141660014,495.89650875000007,496.54912074999993,496.76323245800086,496.76323245800086,496.76323245800086,497.8633559160007,497.8633559160007,497.8633559160007,497.8633559160007,498.8820862499997,200005,203,2023-04-11_15h05.01.536,DMS_et_12-36,2022.2.4,None,
56,PRED,12,0.9071220353882756,2,images/picture_3.png,images/picture_1.png,0,"[11.733433509789464, 11.733433509789462]",11.733433509789464,11.733433509789462,images/picture_2.png,1,"[11.733433509789462, -11.733433509789466]",11.733433509789462,-11.733433509789464,images/picture_3.png,2,"[-11.733433509789462, 11.733433509789464]",-11.733433509789462,11.733433509789464,0,1,1,0.9071220353882756,1.907122035388276,1.0928779646117244,3.0,1,1.6571220353882756,0,4.0,3.0,1,2,6,0,6,0,0,5,5,2,,,,,,,498.8820862499997,498.8820862499997,499.89649854100026,500.5491752910002,500.76322145800077,500.76322145800077,500.76322145800077,501.86322729099993,501.86322729099993,501.86322729099993,501.86322729099993,502.86359062500014,200005,203,2023-04-11_15h05.01.536,DMS_et_12-36,2022.2.4,None,
54,PRED,12,0.9071220353882756,2,images/picture_3.png,images/picture_1.png,0,"[-11.733433509789462, 11.733433509789464]",-11.733433509789462,11.733433509789464,images/picture_2.png,1,"[11.733433509789464, 11.733433509789462]",11.733433509789464,11.733433509789462,images/picture_3.png,2,"[-11.733433509789466, -11.733433509789462]",-11.733433509789464,-11.733433509789462,0,1,1,0.9071220353882756,1.907122035388276,1.0928779646117244,3.0,1,1.6571220353882756,0,4.0,3.0,1,2,6,0,6,0,0,6,6,0,,,,,,,502.86359062500014,502.86359062500014,503.86294545800047,504.52975074999995,504.76323545800005,504.76323545800005,504.76323545800005,505.8632395000004,505.8632395000004,505.8632395000004,505.8632395000004,506.88244462500006,200005,203,2023-04-11_15h05.01.536,DMS_et_12-36,2022.2.4,None,
57,PRED,12,0.9071220353882756,2,images/picture_3.png,images/picture_1.png,0,"[-11.733433509789466, -11.733433509789462]",-11.733433509789464,-11.733433509789462,images/picture_2.png,1,"[11.733433509789464, 11.733433509789462]",11.733433509789464,11.733433509789462,images/picture_3.png,2,"[11.733433509789462, -11.733433509789466]",11.733433509789462,-11.733433509789464,0,1,1,0.9071220353882756,1.907122035388276,1.0928779646117244,3.0,1,1.6571220353882756,0,4.0,3.0,1,2,6,0,6,0,0,7,7,3,,,,,,,506.88244462500006,506.88244462500006,507.8964962500013,508.54914079100126,508.76333175000036,508.76333175000036,508.76333175000036,509.86297608300083,509.86297608300083,509.86297608300083,509.86297608300083,510.88259441599985,200005,203,2023-04-11_15h05.01.536,DMS_et_12-36,2022.2.4,None,
60,PRED,12,0.9071220353882756,2,images/picture_3.png,images/picture_1.png,0,"[11.733433509789464, 11.733433509789462]",11.733433509789464,11.733433509789462,images/picture_2.png,1,"[-11.733433509789462, 11.733433509789464]",-11.733433509789462,11.733433509789464,images/picture_3.png,2,"[-11.733433509789466, -11.733433509789462]",-11.733433509789464,-11.733433509789462,0,1,1,0.9071220353882756,1.907122035388276,1.0928779646117244,3.0,1,1.6571220353882756,0,4.0,3.0,1,2,6,0,6,0,0,8,8,6,,,,,,,510.88259441599985,510.88259441599985,511.89652758300144,512.5490340000015,512.7631677910013,512.7631677910013,512.7631677910013,513.862935000001,513.862935000001,513.862935000001,513.862935000001,514.9404054580009,200005,203,2023-04-11_15h05.01.536,DMS_et_12-36,2022.2.4,None,
,,,,,,,,,,,,,,,,,,,,,,,,,,,,,,,,,,,6,0,6,0,,,,,,,,,514.9404054580009,526.9741906250001,,,,,,,,,,,,,200005,203,2023-04-11_15h05.01.536,DMS_et_12-36,2022.2.4,None,
69,UNPRED,12,0.9071220353882756,2,images/picture_3.png,images/picture_1.png,0,"[-11.733433509789466, -11.733433509789462]",-11.733433509789464,-11.733433509789462,images/picture_2.png,1,"[-11.733433509789462, 11.733433509789464]",-11.733433509789462,11.733433509789464,images/picture_3.png,2,"[11.733433509789464, 11.733433509789462]",11.733433509789464,11.733433509789462,0,1,1,0.9071220353882756,1.907122035388276,1.0928779646117244,3.0,1,1.6571220353882756,0,4.0,3.0,1,2,7,0,7,0,0,0,0,6,,,,,,,526.9741906250001,526.9741906250001,527.9827462909998,528.6297654999998,528.8631905000002,528.8631905000002,528.8631905000002,529.9631556250006,529.9631556250006,529.9631556250006,529.9631556250006,530.963312291,200005,203,2023-04-11_15h05.01.536,DMS_et_12-36,2022.2.4,None,
68,UNPRED,12,0.9071220353882756,1,images/picture_2.png,images/picture_1.png,0,"[-11.733433509789466, -11.733433509789462]",-11.733433509789464,-11.733433509789462,images/picture_2.png,1,"[11.733433509789462, -11.733433509789466]",11.733433509789462,-11.733433509789464,images/picture_3.png,2,"[-11.733433509789462, 11.733433509789464]",-11.733433509789462,11.733433509789464,0,1,1,0.9071220353882756,1.907122035388276,1.0928779646117244,3.0,1,1.6571220353882756,0,4.0,3.0,1,2,7,0,7,0,0,1,1,5,,,,,,,530.963312291,530.963312291,531.9631875000014,532.6299155409997,532.8632390410003,532.8632390410003,532.8632390410003,533.9628962080005,533.9628962080005,533.9628962080005,533.9628962080005,534.9816600000013,200005,203,2023-04-11_15h05.01.536,DMS_et_12-36,2022.2.4,None,
64,UNPRED,12,0.9071220353882756,2,images/picture_3.png,images/picture_1.png,0,"[11.733433509789464, 11.733433509789462]",11.733433509789464,11.733433509789462,images/picture_2.png,1,"[-11.733433509789466, -11.733433509789462]",-11.733433509789464,-11.733433509789462,images/picture_3.png,2,"[11.733433509789462, -11.733433509789466]",11.733433509789462,-11.733433509789464,0,1,1,0.9071220353882756,1.907122035388276,1.0928779646117244,3.0,1,1.6571220353882756,0,4.0,3.0,1,2,7,0,7,0,0,2,2,1,,,,,,,534.9816600000013,534.9816600000013,535.9965111250003,536.649556583001,536.8633444580009,536.8633444580009,536.8633444580009,537.9631724999999,537.9631724999999,537.9631724999999,537.9631724999999,538.9629312910001,200005,203,2023-04-11_15h05.01.536,DMS_et_12-36,2022.2.4,None,
71,UNPRED,12,0.9071220353882756,1,images/picture_2.png,images/picture_1.png,0,"[11.733433509789462, -11.733433509789466]",11.733433509789462,-11.733433509789464,images/picture_2.png,1,"[-11.733433509789466, -11.733433509789462]",-11.733433509789464,-11.733433509789462,images/picture_3.png,2,"[-11.733433509789462, 11.733433509789464]",-11.733433509789462,11.733433509789464,0,1,1,0.9071220353882756,1.907122035388276,1.0928779646117244,3.0,1,1.6571220353882756,0,4.0,3.0,1,2,7,0,7,0,0,3,3,8,,,,,,,538.9629312910001,538.9629312910001,539.9632701660012,540.6297630830013,540.8631857500004,540.8631857500004,540.8631857500004,541.9632147909997,541.9632147909997,541.9632147909997,541.9632147909997,542.9826758750005,200005,203,2023-04-11_15h05.01.536,DMS_et_12-36,2022.2.4,None,
70,UNPRED,12,0.9071220353882756,2,images/picture_3.png,images/picture_1.png,0,"[11.733433509789464, 11.733433509789462]",11.733433509789464,11.733433509789462,images/picture_2.png,1,"[11.733433509789462, -11.733433509789466]",11.733433509789462,-11.733433509789464,images/picture_3.png,2,"[-11.733433509789462, 11.733433509789464]",-11.733433509789462,11.733433509789464,0,1,1,0.9071220353882756,1.907122035388276,1.0928779646117244,3.0,1,1.6571220353882756,0,4.0,3.0,1,2,7,0,7,0,0,4,4,7,,,,,,,542.9826758750005,542.9826758750005,543.9962131660013,544.6483876660004,544.8632236250014,544.8632236250014,544.8632236250014,545.9632120410006,545.9632120410006,545.9632120410006,545.9632120410006,546.9630084580003,200005,203,2023-04-11_15h05.01.536,DMS_et_12-36,2022.2.4,None,
66,UNPRED,12,0.9071220353882756,1,images/picture_2.png,images/picture_1.png,0,"[11.733433509789464, 11.733433509789462]",11.733433509789464,11.733433509789462,images/picture_2.png,1,"[-11.733433509789466, -11.733433509789462]",-11.733433509789464,-11.733433509789462,images/picture_3.png,2,"[11.733433509789462, -11.733433509789466]",11.733433509789462,-11.733433509789464,0,1,1,0.9071220353882756,1.907122035388276,1.0928779646117244,3.0,1,1.6571220353882756,0,4.0,3.0,1,2,7,0,7,0,0,5,5,3,,,,,,,546.9630084580003,546.9630084580003,547.963217333001,548.629928583001,548.8631740830006,548.8631740830006,548.8631740830006,549.9631933750006,549.9631933750006,549.9631933750006,549.9631933750006,550.9627670000009,200005,203,2023-04-11_15h05.01.536,DMS_et_12-36,2022.2.4,None,
67,UNPRED,12,0.9071220353882756,0,images/picture_1.png,images/picture_1.png,0,"[11.733433509789462, -11.733433509789466]",11.733433509789462,-11.733433509789464,images/picture_2.png,1,"[-11.733433509789462, 11.733433509789464]",-11.733433509789462,11.733433509789464,images/picture_3.png,2,"[-11.733433509789466, -11.733433509789462]",-11.733433509789464,-11.733433509789462,0,1,1,0.9071220353882756,1.907122035388276,1.0928779646117244,3.0,1,1.6571220353882756,0,4.0,3.0,1,2,7,0,7,0,0,6,6,4,,,,,,,550.9627670000009,550.9627670000009,551.963159166,552.6299382910001,552.8630832500003,552.8630832500003,552.8630832500003,553.9628790830011,553.9628790830011,553.9628790830011,553.9628790830011,554.9819146660011,200005,203,2023-04-11_15h05.01.536,DMS_et_12-36,2022.2.4,None,
65,UNPRED,12,0.9071220353882756,2,images/picture_3.png,images/picture_1.png,0,"[11.733433509789462, -11.733433509789466]",11.733433509789462,-11.733433509789464,images/picture_2.png,1,"[-11.733433509789466, -11.733433509789462]",-11.733433509789464,-11.733433509789462,images/picture_3.png,2,"[-11.733433509789462, 11.733433509789464]",-11.733433509789462,11.733433509789464,0,1,1,0.9071220353882756,1.907122035388276,1.0928779646117244,3.0,1,1.6571220353882756,0,4.0,3.0,1,2,7,0,7,0,0,7,7,2,,,,,,,554.9819146660011,554.9819146660011,555.9965125409999,556.6492635000013,556.8632403330012,556.8632403330012,556.8632403330012,557.9632142910013,557.9632142910013,557.9632142910013,557.9632142910013,558.9630036660001,200005,203,2023-04-11_15h05.01.536,DMS_et_12-36,2022.2.4,None,
63,UNPRED,12,0.9071220353882756,0,images/picture_1.png,images/picture_1.png,0,"[11.733433509789462, -11.733433509789466]",11.733433509789462,-11.733433509789464,images/picture_2.png,1,"[11.733433509789464, 11.733433509789462]",11.733433509789464,11.733433509789462,images/picture_3.png,2,"[-11.733433509789462, 11.733433509789464]",-11.733433509789462,11.733433509789464,0,1,1,0.9071220353882756,1.907122035388276,1.0928779646117244,3.0,1,1.6571220353882756,0,4.0,3.0,1,2,7,0,7,0,0,8,8,0,,,,,,,558.9630036660001,558.9630036660001,559.9631880409997,560.6298537910006,560.8630442909998,560.8630442909998,560.8630442909998,561.963199875001,561.963199875001,561.963199875001,561.963199875001,563.0506012910009,200005,203,2023-04-11_15h05.01.536,DMS_et_12-36,2022.2.4,None,
,,,,,,,,,,,,,,,,,,,,,,,,,,,,,,,,,,,7,0,7,0,,,,,,,,,563.0506012910009,575.0824736659997,,,,,,,,,,,,,200005,203,2023-04-11_15h05.01.536,DMS_et_12-36,2022.2.4,None,
73,PRED,12,0.9071220353882756,1,images/picture_2.png,images/picture_1.png,0,"[11.733433509789462, -11.733433509789466]",11.733433509789462,-11.733433509789464,images/picture_2.png,1,"[-11.733433509789462, 11.733433509789464]",-11.733433509789462,11.733433509789464,images/picture_3.png,2,"[11.733433509789464, 11.733433509789462]",11.733433509789464,11.733433509789462,0,1,1,0.9071220353882756,1.907122035388276,1.0928779646117244,3.0,1,1.6571220353882756,0,4.0,3.0,1,2,8,0,8,0,0,0,0,1,,,,,,,575.0824736659997,575.0824736659997,576.0965557079999,576.7491058329997,576.9824678330006,576.9824678330006,576.9824678330006,578.083417666001,578.083417666001,578.083417666001,578.0632476250012,579.0627453329998,200005,203,2023-04-11_15h05.01.536,DMS_et_12-36,2022.2.4,None,
78,PRED,12,0.9071220353882756,1,images/picture_2.png,images/picture_1.png,0,"[11.733433509789464, 11.733433509789462]",11.733433509789464,11.733433509789462,images/picture_2.png,1,"[11.733433509789462, -11.733433509789466]",11.733433509789462,-11.733433509789464,images/picture_3.png,2,"[-11.733433509789466, -11.733433509789462]",-11.733433509789464,-11.733433509789462,0,1,1,0.9071220353882756,1.907122035388276,1.0928779646117244,3.0,1,1.6571220353882756,0,4.0,3.0,1,2,8,0,8,0,0,1,1,6,,,,,,,579.0627453329998,579.0627453329998,580.0632010000008,580.7299044160009,580.9632450000008,580.9632450000008,580.9632450000008,582.0633124160013,582.0633124160013,582.0633124160013,582.0633124160013,583.0626901659998,200005,203,2023-04-11_15h05.01.536,DMS_et_12-36,2022.2.4,None,
79,PRED,12,0.9071220353882756,1,images/picture_2.png,images/picture_1.png,0,"[-11.733433509789462, 11.733433509789464]",-11.733433509789462,11.733433509789464,images/picture_2.png,1,"[11.733433509789464, 11.733433509789462]",11.733433509789464,11.733433509789462,images/picture_3.png,2,"[11.733433509789462, -11.733433509789466]",11.733433509789462,-11.733433509789464,0,1,1,0.9071220353882756,1.907122035388276,1.0928779646117244,3.0,1,1.6571220353882756,0,4.0,3.0,1,2,8,0,8,0,0,2,2,7,,,,,,,583.0626901659998,583.0626901659998,584.0632247909998,584.7296445829998,584.9628507910002,584.9628507910002,584.9628507910002,586.0632634579997,586.0632634579997,586.0632634579997,586.0632634579997,587.062823708,200005,203,2023-04-11_15h05.01.536,DMS_et_12-36,2022.2.4,None,
80,PRED,12,0.9071220353882756,1,images/picture_2.png,images/picture_1.png,0,"[11.733433509789462, -11.733433509789466]",11.733433509789462,-11.733433509789464,images/picture_2.png,1,"[-11.733433509789462, 11.733433509789464]",-11.733433509789462,11.733433509789464,images/picture_3.png,2,"[11.733433509789464, 11.733433509789462]",11.733433509789464,11.733433509789462,0,1,1,0.9071220353882756,1.907122035388276,1.0928779646117244,3.0,1,1.6571220353882756,0,4.0,3.0,1,2,8,0,8,0,0,3,3,8,,,,,,,587.062823708,587.062823708,588.0631864160005,588.7298721660009,588.9632452080004,588.9632452080004,588.9632452080004,590.0631821660008,590.0631821660008,590.0631821660008,590.0631821660008,591.0628518330013,200005,203,2023-04-11_15h05.01.536,DMS_et_12-36,2022.2.4,None,
74,PRED,12,0.9071220353882756,1,images/picture_2.png,images/picture_1.png,0,"[11.733433509789464, 11.733433509789462]",11.733433509789464,11.733433509789462,images/picture_2.png,1,"[-11.733433509789466, -11.733433509789462]",-11.733433509789464,-11.733433509789462,images/picture_3.png,2,"[-11.733433509789462, 11.733433509789464]",-11.733433509789462,11.733433509789464,0,1,1,0.9071220353882756,1.907122035388276,1.0928779646117244,3.0,1,1.6571220353882756,0,4.0,3.0,1,2,8,0,8,0,0,4,4,2,,,,,,,591.0628518330013,591.0628518330013,592.063042916001,592.7301979580006,592.963143291001,592.963143291001,592.963143291001,594.063190416,594.063190416,594.063190416,594.063190416,595.0629005830015,200005,203,2023-04-11_15h05.01.536,DMS_et_12-36,2022.2.4,None,
76,PRED,12,0.9071220353882756,1,images/picture_2.png,images/picture_1.png,0,"[-11.733433509789462, 11.733433509789464]",-11.733433509789462,11.733433509789464,images/picture_2.png,1,"[-11.733433509789466, -11.733433509789462]",-11.733433509789464,-11.733433509789462,images/picture_3.png,2,"[11.733433509789462, -11.733433509789466]",11.733433509789462,-11.733433509789464,0,1,1,0.9071220353882756,1.907122035388276,1.0928779646117244,3.0,1,1.6571220353882756,0,4.0,3.0,1,2,8,0,8,0,0,5,5,4,,,,,,,595.0629005830015,595.0629005830015,596.0631442499998,596.7298664580012,596.9631642080003,596.9631642080003,596.9631642080003,598.0631725410003,598.0631725410003,598.0631725410003,598.0631725410003,599.0627828750003,200005,203,2023-04-11_15h05.01.536,DMS_et_12-36,2022.2.4,None,
72,PRED,12,0.9071220353882756,1,images/picture_2.png,images/picture_1.png,0,"[-11.733433509789466, -11.733433509789462]",-11.733433509789464,-11.733433509789462,images/picture_2.png,1,"[11.733433509789462, -11.733433509789466]",11.733433509789462,-11.733433509789464,images/picture_3.png,2,"[11.733433509789464, 11.733433509789462]",11.733433509789464,11.733433509789462,0,1,1,0.9071220353882756,1.907122035388276,1.0928779646117244,3.0,1,1.6571220353882756,0,4.0,3.0,1,2,8,0,8,0,0,6,6,0,,,,,,,599.0627828750003,599.0627828750003,600.0631535829998,600.7299213330007,600.9632476660008,600.9632476660008,600.9632476660008,602.0632323750015,602.0632323750015,602.0632323750015,602.0632323750015,603.0626225410015,200005,203,2023-04-11_15h05.01.536,DMS_et_12-36,2022.2.4,None,
75,PRED,12,0.9071220353882756,1,images/picture_2.png,images/picture_1.png,0,"[11.733433509789462, -11.733433509789466]",11.733433509789462,-11.733433509789464,images/picture_2.png,1,"[-11.733433509789462, 11.733433509789464]",-11.733433509789462,11.733433509789464,images/picture_3.png,2,"[-11.733433509789466, -11.733433509789462]",-11.733433509789464,-11.733433509789462,0,1,1,0.9071220353882756,1.907122035388276,1.0928779646117244,3.0,1,1.6571220353882756,0,4.0,3.0,1,2,8,0,8,0,0,7,7,3,,,,,,,603.0626225410015,603.0626225410015,604.0632194160007,604.7298945830007,604.9632011660015,604.9632011660015,604.9632011660015,606.0629330829997,606.0629330829997,606.0629330829997,606.0629330829997,607.0626217500012,200005,203,2023-04-11_15h05.01.536,DMS_et_12-36,2022.2.4,None,
77,PRED,12,0.9071220353882756,1,images/picture_2.png,images/picture_1.png,0,"[11.733433509789462, -11.733433509789466]",11.733433509789462,-11.733433509789464,images/picture_2.png,1,"[-11.733433509789466, -11.733433509789462]",-11.733433509789464,-11.733433509789462,images/picture_3.png,2,"[11.733433509789464, 11.733433509789462]",11.733433509789464,11.733433509789462,0,1,1,0.9071220353882756,1.907122035388276,1.0928779646117244,3.0,1,1.6571220353882756,0,4.0,3.0,1,2,8,0,8,0,0,8,8,5,,,,,,,607.0626217500012,607.0626217500012,608.0631878330005,608.7297613749997,608.9633318329998,608.9633318329998,608.9633318329998,610.0631943330009,610.0631943330009,610.0631943330009,610.0631943330009,611.1568886250006,200005,203,2023-04-11_15h05.01.536,DMS_et_12-36,2022.2.4,None,
,,,,,,,,,,,,,,,,,,,,,,,,,,,,,,,,,,,8,0,8,0,,,,,,,,,611.1568886250006,623.1881527500009,,,,,,,,,,,,,200005,203,2023-04-11_15h05.01.536,DMS_et_12-36,2022.2.4,None,
85,UNPRED,12,0.9071220353882756,1,images/picture_2.png,images/picture_1.png,0,"[11.733433509789464, 11.733433509789462]",11.733433509789464,11.733433509789462,images/picture_2.png,1,"[-11.733433509789462, 11.733433509789464]",-11.733433509789462,11.733433509789464,images/picture_3.png,2,"[-11.733433509789466, -11.733433509789462]",-11.733433509789464,-11.733433509789462,0,1,1,0.9071220353882756,1.907122035388276,1.0928779646117244,3.0,1,1.6571220353882756,0,4.0,3.0,1,2,9,0,9,0,0,0,0,4,,,,,,,623.1881527500009,623.1881527500009,624.1965421250006,624.8535737910006,625.0964542080001,625.0964542080001,625.0964542080001,626.1962618329999,626.1962618329999,626.1962618329999,626.1816465000011,627.1961031660012,200005,203,2023-04-11_15h05.01.536,DMS_et_12-36,2022.2.4,None,
88,UNPRED,12,0.9071220353882756,0,images/picture_1.png,images/picture_1.png,0,"[11.733433509789462, -11.733433509789466]",11.733433509789462,-11.733433509789464,images/picture_2.png,1,"[-11.733433509789462, 11.733433509789464]",-11.733433509789462,11.733433509789464,images/picture_3.png,2,"[-11.733433509789466, -11.733433509789462]",-11.733433509789464,-11.733433509789462,0,1,1,0.9071220353882756,1.907122035388276,1.0928779646117244,3.0,1,1.6571220353882756,0,4.0,3.0,1,2,9,0,9,0,0,1,1,7,,,,,,,627.1961031660012,627.1961031660012,628.1964917080004,628.8632307500011,629.096482125,629.096482125,629.096482125,630.1964804159998,630.1964804159998,630.1964804159998,630.1964804159998,631.2150999580008,200005,203,2023-04-11_15h05.01.536,DMS_et_12-36,2022.2.4,None,
82,UNPRED,12,0.9071220353882756,2,images/picture_3.png,images/picture_1.png,0,"[11.733433509789462, -11.733433509789466]",11.733433509789462,-11.733433509789464,images/picture_2.png,1,"[11.733433509789464, 11.733433509789462]",11.733433509789464,11.733433509789462,images/picture_3.png,2,"[-11.733433509789462, 11.733433509789464]",-11.733433509789462,11.733433509789464,0,1,1,0.9071220353882756,1.907122035388276,1.0928779646117244,3.0,1,1.6571220353882756,0,4.0,3.0,1,2,9,0,9,0,0,2,2,1,,,,,,,631.2150999580008,631.2150999580008,632.229738125001,632.8823672910003,633.0965670410005,633.0965670410005,633.0965670410005,634.1965187910009,634.1965187910009,634.1965187910009,634.1965187910009,635.1963052910014,200005,203,2023-04-11_15h05.01.536,DMS_et_12-36,2022.2.4,None,
89,UNPRED,12,0.9071220353882756,1,images/picture_2.png,images/picture_1.png,0,"[11.733433509789462, -11.733433509789466]",11.733433509789462,-11.733433509789464,images/picture_2.png,1,"[-11.733433509789466, -11.733433509789462]",-11.733433509789464,-11.733433509789462,images/picture_3.png,2,"[-11.733433509789462, 11.733433509789464]",-11.733433509789462,11.733433509789464,0,1,1,0.9071220353882756,1.907122035388276,1.0928779646117244,3.0,1,1.6571220353882756,0,4.0,3.0,1,2,9,0,9,0,0,3,3,8,,,,,,,635.1963052910014,635.1963052910014,636.1963158750004,636.8629466660004,637.0963195410004,637.0963195410004,637.0963195410004,638.1965305410013,638.1965305410013,638.1965305410013,638.1965305410013,639.1959260000003,200005,203,2023-04-11_15h05.01.536,DMS_et_12-36,2022.2.4,None,
84,UNPRED,12,0.9071220353882756,1,images/picture_2.png,images/picture_1.png,0,"[-11.733433509789466, -11.733433509789462]",-11.733433509789464,-11.733433509789462,images/picture_2.png,1,"[-11.733433509789462, 11.733433509789464]",-11.733433509789462,11.733433509789464,images/picture_3.png,2,"[11.733433509789462, -11.733433509789466]",11.733433509789462,-11.733433509789464,0,1,1,0.9071220353882756,1.907122035388276,1.0928779646117244,3.0,1,1.6571220353882756,0,4.0,3.0,1,2,9,0,9,0,0,4,4,3,,,,,,,639.1959260000003,639.1959260000003,640.1965021249998,640.8632130410006,641.0964592500004,641.0964592500004,641.0964592500004,642.1964937499997,642.1964937499997,642.1964937499997,642.1964937499997,643.1960556660015,200005,203,2023-04-11_15h05.01.536,DMS_et_12-36,2022.2.4,None,
87,UNPRED,12,0.9071220353882756,1,images/picture_2.png,images/picture_1.png,0,"[11.733433509789462, -11.733433509789466]",11.733433509789462,-11.733433509789464,images/picture_2.png,1,"[-11.733433509789466, -11.733433509789462]",-11.733433509789464,-11.733433509789462,images/picture_3.png,2,"[-11.733433509789462, 11.733433509789464]",-11.733433509789462,11.733433509789464,0,1,1,0.9071220353882756,1.907122035388276,1.0928779646117244,3.0,1,1.6571220353882756,0,4.0,3.0,1,2,9,0,9,0,0,5,5,6,,,,,,,643.1960556660015,643.1960556660015,644.1964703330013,644.8632318750006,645.0964891250005,645.0964891250005,645.0964891250005,646.1963887910006,646.1963887910006,646.1963887910006,646.1963887910006,647.2154350000001,200005,203,2023-04-11_15h05.01.536,DMS_et_12-36,2022.2.4,None,
83,UNPRED,12,0.9071220353882756,2,images/picture_3.png,images/picture_1.png,0,"[11.733433509789462, -11.733433509789466]",11.733433509789462,-11.733433509789464,images/picture_2.png,1,"[-11.733433509789462, 11.733433509789464]",-11.733433509789462,11.733433509789464,images/picture_3.png,2,"[11.733433509789464, 11.733433509789462]",11.733433509789464,11.733433509789462,0,1,1,0.9071220353882756,1.907122035388276,1.0928779646117244,3.0,1,1.6571220353882756,0,4.0,3.0,1,2,9,0,9,0,0,6,6,2,,,,,,,647.2154350000001,647.2154350000001,648.229936916001,648.8825341660013,649.0964847080013,649.0964847080013,649.0964847080013,650.1965033329998,650.1965033329998,650.1965033329998,650.1965033329998,651.215975041001,200005,203,2023-04-11_15h05.01.536,DMS_et_12-36,2022.2.4,None,
81,UNPRED,12,0.9071220353882756,2,images/picture_3.png,images/picture_1.png,0,"[11.733433509789462, -11.733433509789466]",11.733433509789462,-11.733433509789464,images/picture_2.png,1,"[11.733433509789464, 11.733433509789462]",11.733433509789464,11.733433509789462,images/picture_3.png,2,"[-11.733433509789466, -11.733433509789462]",-11.733433509789464,-11.733433509789462,0,1,1,0.9071220353882756,1.907122035388276,1.0928779646117244,3.0,1,1.6571220353882756,0,4.0,3.0,1,2,9,0,9,0,0,7,7,0,,,,,,,651.215975041001,651.215975041001,652.2297466250002,652.8825214160006,653.0963270000011,653.0963270000011,653.0963270000011,654.196694833001,654.196694833001,654.196694833001,654.196694833001,655.1965596250011,200005,203,2023-04-11_15h05.01.536,DMS_et_12-36,2022.2.4,None,
86,UNPRED,12,0.9071220353882756,1,images/picture_2.png,images/picture_1.png,0,"[-11.733433509789462, 11.733433509789464]",-11.733433509789462,11.733433509789464,images/picture_2.png,1,"[-11.733433509789466, -11.733433509789462]",-11.733433509789464,-11.733433509789462,images/picture_3.png,2,"[11.733433509789462, -11.733433509789466]",11.733433509789462,-11.733433509789464,0,1,1,0.9071220353882756,1.907122035388276,1.0928779646117244,3.0,1,1.6571220353882756,0,4.0,3.0,1,2,9,0,9,0,0,8,8,5,,,,,,,655.1965596250011,655.1965596250011,656.1965050830004,656.8628585410006,657.0964774160002,657.0964774160002,657.0964774160002,658.1965354160002,658.1965354160002,658.1965354160002,658.1965354160002,659.2967428330012,200005,203,2023-04-11_15h05.01.536,DMS_et_12-36,2022.2.4,None,
,,,,,,,,,,,,,,,,,,,,,,,,,,,,,,,,,,,9,0,9,0,,,,,,,,,659.2967428330012,671.3305906660007,,,,,,,,,,,,,200005,203,2023-04-11_15h05.01.536,DMS_et_12-36,2022.2.4,None,
95,PRED,12,0.9071220353882756,2,images/picture_3.png,images/picture_1.png,0,"[11.733433509789462, -11.733433509789466]",11.733433509789462,-11.733433509789464,images/picture_2.png,1,"[-11.733433509789466, -11.733433509789462]",-11.733433509789464,-11.733433509789462,images/picture_3.png,2,"[11.733433509789464, 11.733433509789462]",11.733433509789464,11.733433509789462,0,1,1,0.9071220353882756,1.907122035388276,1.0928779646117244,3.0,1,1.6571220353882756,0,4.0,3.0,1,2,10,0,10,0,0,0,0,5,,,,,,,671.3305906660007,671.3305906660007,672.3294855410004,672.9967551660011,673.2297098750005,673.2297098750005,673.2297098750005,674.3300195000011,674.3300195000011,674.3300195000011,674.3157902080002,675.3485527080011,200005,203,2023-04-11_15h05.01.536,DMS_et_12-36,2022.2.4,None,
97,PRED,12,0.9071220353882756,2,images/picture_3.png,images/picture_1.png,0,"[11.733433509789462, -11.733433509789466]",11.733433509789462,-11.733433509789464,images/picture_2.png,1,"[11.733433509789464, 11.733433509789462]",11.733433509789464,11.733433509789462,images/picture_3.png,2,"[-11.733433509789466, -11.733433509789462]",-11.733433509789464,-11.733433509789462,0,1,1,0.9071220353882756,1.907122035388276,1.0928779646117244,3.0,1,1.6571220353882756,0,4.0,3.0,1,2,10,0,10,0,0,1,1,7,,,,,,,675.3485527080011,675.3485527080011,676.3632053330002,677.0152470410012,677.229523,677.229523,677.229523,678.3299144580014,678.3299144580014,678.3299144580014,678.3299144580014,679.3486564160012,200005,203,2023-04-11_15h05.01.536,DMS_et_12-36,2022.2.4,None,
90,PRED,12,0.9071220353882756,2,images/picture_3.png,images/picture_1.png,0,"[11.733433509789462, -11.733433509789466]",11.733433509789462,-11.733433509789464,images/picture_2.png,1,"[-11.733433509789466, -11.733433509789462]",-11.733433509789464,-11.733433509789462,images/picture_3.png,2,"[11.733433509789464, 11.733433509789462]",11.733433509789464,11.733433509789462,0,1,1,0.9071220353882756,1.907122035388276,1.0928779646117244,3.0,1,1.6571220353882756,0,4.0,3.0,1,2,10,0,10,0,0,2,2,0,,,,,,,679.3486564160012,679.3486564160012,680.3632411250001,681.0160869160009,681.2299011659998,681.2299011659998,681.2299011659998,682.329745250001,682.329745250001,682.329745250001,682.329745250001,683.3488101660005,200005,203,2023-04-11_15h05.01.536,DMS_et_12-36,2022.2.4,None,
94,PRED,12,0.9071220353882756,2,images/picture_3.png,images/picture_1.png,0,"[-11.733433509789466, -11.733433509789462]",-11.733433509789464,-11.733433509789462,images/picture_2.png,1,"[11.733433509789462, -11.733433509789466]",11.733433509789462,-11.733433509789464,images/picture_3.png,2,"[11.733433509789464, 11.733433509789462]",11.733433509789464,11.733433509789462,0,1,1,0.9071220353882756,1.907122035388276,1.0928779646117244,3.0,1,1.6571220353882756,0,4.0,3.0,1,2,10,0,10,0,0,3,3,4,,,,,,,683.3488101660005,683.3488101660005,684.363192416,685.0157483750008,685.2297766660013,685.2297766660013,685.2297766660013,686.3299677080013,686.3299677080013,686.3299677080013,686.3299677080013,687.3299490410009,200005,203,2023-04-11_15h05.01.536,DMS_et_12-36,2022.2.4,None,
98,PRED,12,0.9071220353882756,2,images/picture_3.png,images/picture_1.png,0,"[-11.733433509789466, -11.733433509789462]",-11.733433509789464,-11.733433509789462,images/picture_2.png,1,"[-11.733433509789462, 11.733433509789464]",-11.733433509789462,11.733433509789464,images/picture_3.png,2,"[11.733433509789462, -11.733433509789466]",11.733433509789462,-11.733433509789464,0,1,1,0.9071220353882756,1.907122035388276,1.0928779646117244,3.0,1,1.6571220353882756,0,4.0,3.0,1,2,10,0,10,0,0,4,4,8,,,,,,,687.3299490410009,687.3299490410009,688.3296018330002,688.9965235,689.2299462500014,689.2299462500014,689.2299462500014,690.3297992910011,690.3297992910011,690.3297992910011,690.3297992910011,691.3485647500002,200005,203,2023-04-11_15h05.01.536,DMS_et_12-36,2022.2.4,None,
91,PRED,12,0.9071220353882756,2,images/picture_3.png,images/picture_1.png,0,"[11.733433509789462, -11.733433509789466]",11.733433509789462,-11.733433509789464,images/picture_2.png,1,"[-11.733433509789462, 11.733433509789464]",-11.733433509789462,11.733433509789464,images/picture_3.png,2,"[11.733433509789464, 11.733433509789462]",11.733433509789464,11.733433509789462,0,1,1,0.9071220353882756,1.907122035388276,1.0928779646117244,3.0,1,1.6571220353882756,0,4.0,3.0,1,2,10,0,10,0,0,5,5,1,,,,,,,691.3485647500002,691.3485647500002,692.3632855830001,693.0157851250005,693.229894166001,693.229894166001,693.229894166001,694.3297282080002,694.3297282080002,694.3297282080002,694.3297282080002,695.3485183749999,200005,203,2023-04-11_15h05.01.536,DMS_et_12-36,2022.2.4,None,
92,PRED,12,0.9071220353882756,2,images/picture_3.png,images/picture_1.png,0,"[11.733433509789464, 11.733433509789462]",11.733433509789464,11.733433509789462,images/picture_2.png,1,"[11.733433509789462, -11.733433509789466]",11.733433509789462,-11.733433509789464,images/picture_3.png,2,"[-11.733433509789466, -11.733433509789462]",-11.733433509789464,-11.733433509789462,0,1,1,0.9071220353882756,1.907122035388276,1.0928779646117244,3.0,1,1.6571220353882756,0,4.0,3.0,1,2,10,0,10,0,0,6,6,2,,,,,,,695.3485183749999,695.3485183749999,696.3631987500012,697.0158352910003,697.2299752910003,697.2299752910003,697.2299752910003,698.3296681660013,698.3296681660013,698.3296681660013,698.3296681660013,699.3485760000003,200005,203,2023-04-11_15h05.01.536,DMS_et_12-36,2022.2.4,None,
96,PRED,12,0.9071220353882756,2,images/picture_3.png,images/picture_1.png,0,"[11.733433509789464, 11.733433509789462]",11.733433509789464,11.733433509789462,images/picture_2.png,1,"[-11.733433509789466, -11.733433509789462]",-11.733433509789464,-11.733433509789462,images/picture_3.png,2,"[-11.733433509789462, 11.733433509789464]",-11.733433509789462,11.733433509789464,0,1,1,0.9071220353882756,1.907122035388276,1.0928779646117244,3.0,1,1.6571220353882756,0,4.0,3.0,1,2,10,0,10,0,0,7,7,6,,,,,,,699.3485760000003,699.3485760000003,700.3632111250008,701.0157868750011,701.2298345830004,701.2298345830004,701.2298345830004,702.3299473330007,702.3299473330007,702.3299473330007,702.3299473330007,703.348983541,200005,203,2023-04-11_15h05.01.536,DMS_et_12-36,2022.2.4,None,
93,PRED,12,0.9071220353882756,2,images/picture_3.png,images/picture_1.png,0,"[-11.733433509789466, -11.733433509789462]",-11.733433509789464,-11.733433509789462,images/picture_2.png,1,"[11.733433509789464, 11.733433509789462]",11.733433509789464,11.733433509789462,images/picture_3.png,2,"[-11.733433509789462, 11.733433509789464]",-11.733433509789462,11.733433509789464,0,1,1,0.9071220353882756,1.907122035388276,1.0928779646117244,3.0,1,1.6571220353882756,0,4.0,3.0,1,2,10,0,10,0,0,8,8,3,,,,,,,703.348983541,703.348983541,704.363150000001,705.0158323750002,705.229942416001,705.229942416001,705.229942416001,706.3299460409999,706.3299460409999,706.3299460409999,706.3299460409999,707.4404896249998,200005,203,2023-04-11_15h05.01.536,DMS_et_12-36,2022.2.4,None,
,,,,,,,,,,,,,,,,,,,,,,,,,,,,,,,,,,,10,0,10,0,,,,,,,,,707.4404896249998,719.4704193329999,,,,,,,,,,,,,200005,203,2023-04-11_15h05.01.536,DMS_et_12-36,2022.2.4,None,
102,UNPRED,12,0.9071220353882756,0,images/picture_1.png,images/picture_1.png,0,"[-11.733433509789466, -11.733433509789462]",-11.733433509789464,-11.733433509789462,images/picture_2.png,1,"[-11.733433509789462, 11.733433509789464]",-11.733433509789462,11.733433509789464,images/picture_3.png,2,"[11.733433509789464, 11.733433509789462]",11.733433509789464,11.733433509789462,0,1,1,0.9071220353882756,1.907122035388276,1.0928779646117244,3.0,1,1.6571220353882756,0,4.0,3.0,1,2,11,0,11,0,0,0,0,3,,,,,,,719.4704193329999,719.4704193329999,720.4825878749998,721.1298486659998,721.3822330000003,721.3822330000003,721.3822330000003,722.4830391659998,722.4830391659998,722.4830391659998,722.4632186250001,723.4626473330009,200005,203,2023-04-11_15h05.01.536,DMS_et_12-36,2022.2.4,None,
103,UNPRED,12,0.9071220353882756,0,images/picture_1.png,images/picture_1.png,0,"[11.733433509789462, -11.733433509789466]",11.733433509789462,-11.733433509789464,images/picture_2.png,1,"[11.733433509789464, 11.733433509789462]",11.733433509789464,11.733433509789462,images/picture_3.png,2,"[-11.733433509789462, 11.733433509789464]",-11.733433509789462,11.733433509789464,0,1,1,0.9071220353882756,1.907122035388276,1.0928779646117244,3.0,1,1.6571220353882756,0,4.0,3.0,1,2,11,0,11,0,0,1,1,4,,,,,,,723.4626473330009,723.4626473330009,724.4633542910015,725.1299397080002,725.3633118750004,725.3633118750004,725.3633118750004,726.4632104580014,726.4632104580014,726.4632104580014,726.4632104580014,727.4820413329999,200005,203,2023-04-11_15h05.01.536,DMS_et_12-36,2022.2.4,None,
99,UNPRED,12,0.9071220353882756,2,images/picture_3.png,images/picture_1.png,0,"[-11.733433509789462, 11.733433509789464]",-11.733433509789462,11.733433509789464,images/picture_2.png,1,"[-11.733433509789466, -11.733433509789462]",-11.733433509789464,-11.733433509789462,images/picture_3.png,2,"[11.733433509789462, -11.733433509789466]",11.733433509789462,-11.733433509789464,0,1,1,0.9071220353882756,1.907122035388276,1.0928779646117244,3.0,1,1.6571220353882756,0,4.0,3.0,1,2,11,0,11,0,0,2,2,0,,,,,,,727.4820413329999,727.4820413329999,728.4962422500012,729.1484673750001,729.3630686249999,729.3630686249999,729.3630686249999,730.4632890829998,730.4632890829998,730.4632890829998,730.4632890829998,731.481855416001,200005,203,2023-04-11_15h05.01.536,DMS_et_12-36,2022.2.4,None,
101,UNPRED,12,0.9071220353882756,2,images/picture_3.png,images/picture_1.png,0,"[11.733433509789464, 11.733433509789462]",11.733433509789464,11.733433509789462,images/picture_2.png,1,"[11.733433509789462, -11.733433509789466]",11.733433509789462,-11.733433509789464,images/picture_3.png,2,"[-11.733433509789462, 11.733433509789464]",-11.733433509789462,11.733433509789464,0,1,1,0.9071220353882756,1.907122035388276,1.0928779646117244,3.0,1,1.6571220353882756,0,4.0,3.0,1,2,11,0,11,0,0,3,3,2,,,,,,,731.481855416001,731.481855416001,732.4965043330012,733.1497069160014,733.363256916,733.363256916,733.363256916,734.4631867910011,734.4631867910011,734.4631867910011,734.4631867910011,735.4637927500007,200005,203,2023-04-11_15h05.01.536,DMS_et_12-36,2022.2.4,None,
105,UNPRED,12,0.9071220353882756,1,images/picture_2.png,images/picture_1.png,0,"[11.733433509789464, 11.733433509789462]",11.733433509789464,11.733433509789462,images/picture_2.png,1,"[11.733433509789462, -11.733433509789466]",11.733433509789462,-11.733433509789464,images/picture_3.png,2,"[-11.733433509789466, -11.733433509789462]",-11.733433509789464,-11.733433509789462,0,1,1,0.9071220353882756,1.907122035388276,1.0928779646117244,3.0,1,1.6571220353882756,0,4.0,3.0,1,2,11,0,11,0,0,4,4,6,,,,,,,735.4637927500007,735.4637927500007,736.4632621250003,737.1300295000001,737.3632137910008,737.3632137910008,737.3632137910008,738.4628627080001,738.4628627080001,738.4628627080001,738.4628627080001,739.4628465000005,200005,203,2023-04-11_15h05.01.536,DMS_et_12-36,2022.2.4,None,
107,UNPRED,12,0.9071220353882756,0,images/picture_1.png,images/picture_1.png,0,"[-11.733433509789462, 11.733433509789464]",-11.733433509789462,11.733433509789464,images/picture_2.png,1,"[11.733433509789462, -11.733433509789466]",11.733433509789462,-11.733433509789464,images/picture_3.png,2,"[-11.733433509789466, -11.733433509789462]",-11.733433509789464,-11.733433509789462,0,1,1,0.9071220353882756,1.907122035388276,1.0928779646117244,3.0,1,1.6571220353882756,0,4.0,3.0,1,2,11,0,11,0,0,5,5,8,,,,,,,739.4628465000005,739.4628465000005,740.4632171660014,741.1297627500007,741.3631963750013,741.3631963750013,741.3631963750013,742.463356708,742.463356708,742.463356708,742.463356708,743.4632020410008,200005,203,2023-04-11_15h05.01.536,DMS_et_12-36,2022.2.4,None,
106,UNPRED,12,0.9071220353882756,1,images/picture_2.png,images/picture_1.png,0,"[-11.733433509789466, -11.733433509789462]",-11.733433509789464,-11.733433509789462,images/picture_2.png,1,"[11.733433509789462, -11.733433509789466]",11.733433509789462,-11.733433509789464,images/picture_3.png,2,"[11.733433509789464, 11.733433509789462]",11.733433509789464,11.733433509789462,0,1,1,0.9071220353882756,1.907122035388276,1.0928779646117244,3.0,1,1.6571220353882756,0,4.0,3.0,1,2,11,0,11,0,0,6,6,7,,,,,,,743.4632020410008,743.4632020410008,744.4631945000001,745.1299761250011,745.363234208,745.363234208,745.363234208,746.4631599580007,746.4631599580007,746.4631599580007,746.4631599580007,747.4627559159999,200005,203,2023-04-11_15h05.01.536,DMS_et_12-36,2022.2.4,None,
100,UNPRED,12,0.9071220353882756,1,images/picture_2.png,images/picture_1.png,0,"[11.733433509789462, -11.733433509789466]",11.733433509789462,-11.733433509789464,images/picture_2.png,1,"[11.733433509789464, 11.733433509789462]",11.733433509789464,11.733433509789462,images/picture_3.png,2,"[-11.733433509789466, -11.733433509789462]",-11.733433509789464,-11.733433509789462,0,1,1,0.9071220353882756,1.907122035388276,1.0928779646117244,3.0,1,1.6571220353882756,0,4.0,3.0,1,2,11,0,11,0,0,7,7,1,,,,,,,747.4627559159999,747.4627559159999,748.4631998330005,749.1295153749998,749.362900125001,749.362900125001,749.362900125001,750.4631920000011,750.4631920000011,750.4631920000011,750.4631920000011,751.4627157499999,200005,203,2023-04-11_15h05.01.536,DMS_et_12-36,2022.2.4,None,
104,UNPRED,12,0.9071220353882756,0,images/picture_1.png,images/picture_1.png,0,"[11.733433509789464, 11.733433509789462]",11.733433509789464,11.733433509789462,images/picture_2.png,1,"[-11.733433509789462, 11.733433509789464]",-11.733433509789462,11.733433509789464,images/picture_3.png,2,"[11.733433509789462, -11.733433509789466]",11.733433509789462,-11.733433509789464,0,1,1,0.9071220353882756,1.907122035388276,1.0928779646117244,3.0,1,1.6571220353882756,0,4.0,3.0,1,2,11,0,11,0,0,8,8,5,,,,,,,751.4627157499999,751.4627157499999,752.4631844579999,753.1299190000009,753.3633262500007,753.3633262500007,753.3633262500007,754.4632287910008,754.4632287910008,754.4632287910008,754.4632287910008,755.632957916001,200005,203,2023-04-11_15h05.01.536,DMS_et_12-36,2022.2.4,None,
,,,,,,,,,,,,,,,,,,,,,,,,,,,,,,,,,,,11,0,11,0,,,,,,,,,755.632957916001,767.7806101660008,,,,,,,,,,,,,200005,203,2023-04-11_15h05.01.536,DMS_et_12-36,2022.2.4,None,
,,,,,,,,,,,,,,,,,,,,,,,,,,,,,,,,,,,,,,,,,,,,,,,767.7806101660008,780.3066954580008,,,,,,,,,,,,,,,,,,,
