trial_count,blockType,blockNum,delay_time,stimImage_i,stimImage,responseImage1,responseImage1_i,responseImage1_pos,responseImage1_X,responseImage1_Y,responseImage2,responseImage2_i,responseImage2_pos,responseImage2_X,responseImage2_Y,responseImage3,responseImage3_i,responseImage3_pos,responseImage3_X,responseImage3_Y,cue_onset,cue_dur,delay_onset,delay_dur,resp_onset,resp_dur,rest_onset,rest_dur,circle_dur,circle_onset,total_dur,cross_onset,cross_dur,delay_resp_period,blocks.thisRepN,blocks.thisTrialN,blocks.thisN,blocks.thisIndex,trials.thisRepN,trials.thisTrialN,trials.thisN,trials.thisIndex,key_resp.started,text.started,key_resp.keys,key_resp.rt,text_2.started,text_2.stopped,sample.started,Delay.started,sample.stopped,Delay.stopped,Response_1.started,Response_2.started,Response_3.started,Response_1.stopped,Response_2.stopped,Response_3.stopped,polygon.started,polygon.stopped,participant,session,date,expName,psychopyVersion,frameRate,
,,,,,,,,,,,,,,,,,,,,,,,,,,,,,,,,,,,,,,,,,,,38.355744708999964,38.355744708999964,t,75.189507166,,,,,,,,,,,,,,,200007,003,2023-04-11_09h09.34.809,DMS_et_12-36,2022.2.4,None,
8,PRED,12,0.5336795570022574,0,images/picture_1.png,images/picture_1.png,0,"[-11.733433509789466, -11.733433509789462]",-11.733433509789464,-11.733433509789462,images/picture_2.png,1,"[11.733433509789464, 11.733433509789462]",11.733433509789464,11.733433509789462,images/picture_3.png,2,"[-11.733433509789462, 11.733433509789464]",-11.733433509789462,11.733433509789464,0,1,1,0.5336795570022574,1.5336795570022574,1.4663204429977426,3.0,1,1.2836795570022574,0,4.0,3.0,1,2,0,0,0,0,0,0,0,8,,,,,114.062989625,126.08875429199998,126.08875429199998,126.08875429199998,127.10292437499993,127.36989437499994,127.60306987499996,127.60306987499996,127.60306987499996,129.06983895899998,129.06983895899998,129.06983895899998,129.06983895899998,130.06923674999996,200007,003,2023-04-11_09h09.34.809,DMS_et_12-36,2022.2.4,None,
0,PRED,12,0.5336795570022574,0,images/picture_1.png,images/picture_1.png,0,"[-11.733433509789466, -11.733433509789462]",-11.733433509789464,-11.733433509789462,images/picture_2.png,1,"[11.733433509789462, -11.733433509789466]",11.733433509789462,-11.733433509789464,images/picture_3.png,2,"[-11.733433509789462, 11.733433509789464]",-11.733433509789462,11.733433509789464,0,1,1,0.5336795570022574,1.5336795570022574,1.4663204429977426,3.0,1,1.2836795570022574,0,4.0,3.0,1,2,0,0,0,0,0,1,1,0,,,,,,,130.06923674999996,130.06923674999996,131.06987537499992,131.355568209,131.603158667,131.603158667,131.603158667,133.06983483399995,133.06983483399995,133.06983483399995,133.06983483399995,134.06959704199994,200007,003,2023-04-11_09h09.34.809,DMS_et_12-36,2022.2.4,None,
4,PRED,12,0.5336795570022574,0,images/picture_1.png,images/picture_1.png,0,"[11.733433509789462, -11.733433509789466]",11.733433509789462,-11.733433509789464,images/picture_2.png,1,"[-11.733433509789466, -11.733433509789462]",-11.733433509789464,-11.733433509789462,images/picture_3.png,2,"[-11.733433509789462, 11.733433509789464]",-11.733433509789462,11.733433509789464,0,1,1,0.5336795570022574,1.5336795570022574,1.4663204429977426,3.0,1,1.2836795570022574,0,4.0,3.0,1,2,0,0,0,0,0,2,2,4,,,,,,,134.06959704199994,134.06959704199994,135.06985370899997,135.35637433399995,135.60312249999993,135.60312249999993,135.60312249999993,137.06958124999994,137.06958124999994,137.06958124999994,137.06958124999994,138.069635125,200007,003,2023-04-11_09h09.34.809,DMS_et_12-36,2022.2.4,None,
7,PRED,12,0.5336795570022574,0,images/picture_1.png,images/picture_1.png,0,"[-11.733433509789466, -11.733433509789462]",-11.733433509789464,-11.733433509789462,images/picture_2.png,1,"[11.733433509789462, -11.733433509789466]",11.733433509789462,-11.733433509789464,images/picture_3.png,2,"[-11.733433509789462, 11.733433509789464]",-11.733433509789462,11.733433509789464,0,1,1,0.5336795570022574,1.5336795570022574,1.4663204429977426,3.0,1,1.2836795570022574,0,4.0,3.0,1,2,0,0,0,0,0,3,3,7,,,,,,,138.069635125,138.069635125,139.06989524999995,139.35585487499998,139.60311337500002,139.60311337500002,139.60311337500002,141.06989520899992,141.06989520899992,141.06989520899992,141.06989520899992,142.069295,200007,003,2023-04-11_09h09.34.809,DMS_et_12-36,2022.2.4,None,
6,PRED,12,0.5336795570022574,0,images/picture_1.png,images/picture_1.png,0,"[11.733433509789464, 11.733433509789462]",11.733433509789464,11.733433509789462,images/picture_2.png,1,"[11.733433509789462, -11.733433509789466]",11.733433509789462,-11.733433509789464,images/picture_3.png,2,"[-11.733433509789466, -11.733433509789462]",-11.733433509789464,-11.733433509789462,0,1,1,0.5336795570022574,1.5336795570022574,1.4663204429977426,3.0,1,1.2836795570022574,0,4.0,3.0,1,2,0,0,0,0,0,4,4,6,,,,,,,142.069295,142.069295,143.06979849999993,143.35571808399993,143.603103959,143.603103959,143.603103959,145.06988454199995,145.06988454199995,145.06988454199995,145.06988454199995,146.06953933399996,200007,003,2023-04-11_09h09.34.809,DMS_et_12-36,2022.2.4,None,
5,PRED,12,0.5336795570022574,0,images/picture_1.png,images/picture_1.png,0,"[11.733433509789464, 11.733433509789462]",11.733433509789464,11.733433509789462,images/picture_2.png,1,"[-11.733433509789462, 11.733433509789464]",-11.733433509789462,11.733433509789464,images/picture_3.png,2,"[-11.733433509789466, -11.733433509789462]",-11.733433509789464,-11.733433509789462,0,1,1,0.5336795570022574,1.5336795570022574,1.4663204429977426,3.0,1,1.2836795570022574,0,4.0,3.0,1,2,0,0,0,0,0,5,5,5,,,,,,,146.06953933399996,146.06953933399996,147.06955216699998,147.35510587499994,147.60287499999993,147.60287499999993,147.60287499999993,149.069919917,149.069919917,149.069919917,149.069919917,150.06942566700002,200007,003,2023-04-11_09h09.34.809,DMS_et_12-36,2022.2.4,None,
2,PRED,12,0.5336795570022574,0,images/picture_1.png,images/picture_1.png,0,"[-11.733433509789462, 11.733433509789464]",-11.733433509789462,11.733433509789464,images/picture_2.png,1,"[-11.733433509789466, -11.733433509789462]",-11.733433509789464,-11.733433509789462,images/picture_3.png,2,"[11.733433509789462, -11.733433509789466]",11.733433509789462,-11.733433509789464,0,1,1,0.5336795570022574,1.5336795570022574,1.4663204429977426,3.0,1,1.2836795570022574,0,4.0,3.0,1,2,0,0,0,0,0,6,6,2,,,,,,,150.06942566700002,150.06942566700002,151.069876959,151.35567658399998,151.603271125,151.603271125,151.603271125,153.06986374999997,153.06986374999997,153.06986374999997,153.06986374999997,154.06964437499994,200007,003,2023-04-11_09h09.34.809,DMS_et_12-36,2022.2.4,None,
3,PRED,12,0.5336795570022574,0,images/picture_1.png,images/picture_1.png,0,"[11.733433509789462, -11.733433509789466]",11.733433509789462,-11.733433509789464,images/picture_2.png,1,"[11.733433509789464, 11.733433509789462]",11.733433509789464,11.733433509789462,images/picture_3.png,2,"[-11.733433509789466, -11.733433509789462]",-11.733433509789464,-11.733433509789462,0,1,1,0.5336795570022574,1.5336795570022574,1.4663204429977426,3.0,1,1.2836795570022574,0,4.0,3.0,1,2,0,0,0,0,0,7,7,3,,,,,,,154.06964437499994,154.06964437499994,155.06991274999996,155.3556824169999,155.60315874999992,155.60315874999992,155.60315874999992,157.06952149999995,157.06952149999995,157.06952149999995,157.06952149999995,158.06962520899992,200007,003,2023-04-11_09h09.34.809,DMS_et_12-36,2022.2.4,None,
1,PRED,12,0.5336795570022574,0,images/picture_1.png,images/picture_1.png,0,"[-11.733433509789462, 11.733433509789464]",-11.733433509789462,11.733433509789464,images/picture_2.png,1,"[11.733433509789462, -11.733433509789466]",11.733433509789462,-11.733433509789464,images/picture_3.png,2,"[-11.733433509789466, -11.733433509789462]",-11.733433509789464,-11.733433509789462,0,1,1,0.5336795570022574,1.5336795570022574,1.4663204429977426,3.0,1,1.2836795570022574,0,4.0,3.0,1,2,0,0,0,0,0,8,8,1,,,,,,,158.06962520899992,158.06962520899992,159.07006408400002,159.355664917,159.60330933399996,159.60330933399996,159.60330933399996,161.06988070900002,161.06988070900002,161.06988070900002,161.06988070900002,162.088986459,200007,003,2023-04-11_09h09.34.809,DMS_et_12-36,2022.2.4,None,
,,,,,,,,,,,,,,,,,,,,,,,,,,,,,,,,,,,0,0,0,0,,,,,,,,,162.088986459,174.12780033399997,,,,,,,,,,,,,200007,003,2023-04-11_09h09.34.809,DMS_et_12-36,2022.2.4,None,
15,UNPRED,12,0.5336795570022574,2,images/picture_3.png,images/picture_1.png,0,"[-11.733433509789462, 11.733433509789464]",-11.733433509789462,11.733433509789464,images/picture_2.png,1,"[11.733433509789462, -11.733433509789466]",11.733433509789462,-11.733433509789464,images/picture_3.png,2,"[-11.733433509789466, -11.733433509789462]",-11.733433509789464,-11.733433509789462,0,1,1,0.5336795570022574,1.5336795570022574,1.4663204429977426,3.0,1,1.2836795570022574,0,4.0,3.0,1,2,1,0,1,0,0,0,0,6,,,,,,,174.12780033399997,174.12780033399997,175.136514875,175.422550667,175.65576287499994,175.65576287499994,175.65576287499994,177.13653916700002,177.13653916700002,177.13653916700002,177.12240170899997,178.13627033399996,200007,003,2023-04-11_09h09.34.809,DMS_et_12-36,2022.2.4,None,
16,UNPRED,12,0.5336795570022574,0,images/picture_1.png,images/picture_1.png,0,"[-11.733433509789462, 11.733433509789464]",-11.733433509789462,11.733433509789464,images/picture_2.png,1,"[11.733433509789462, -11.733433509789466]",11.733433509789462,-11.733433509789464,images/picture_3.png,2,"[11.733433509789464, 11.733433509789462]",11.733433509789464,11.733433509789462,0,1,1,0.5336795570022574,1.5336795570022574,1.4663204429977426,3.0,1,1.2836795570022574,0,4.0,3.0,1,2,1,0,1,0,0,1,1,7,,,,,,,178.13627033399996,178.13627033399996,179.136598167,179.422323625,179.66985420899994,179.66985420899994,179.66985420899994,181.13658695899994,181.13658695899994,181.13658695899994,181.13658695899994,182.13598374999992,200007,003,2023-04-11_09h09.34.809,DMS_et_12-36,2022.2.4,None,
17,UNPRED,12,0.5336795570022574,0,images/picture_1.png,images/picture_1.png,0,"[11.733433509789462, -11.733433509789466]",11.733433509789462,-11.733433509789464,images/picture_2.png,1,"[-11.733433509789462, 11.733433509789464]",-11.733433509789462,11.733433509789464,images/picture_3.png,2,"[11.733433509789464, 11.733433509789462]",11.733433509789464,11.733433509789462,0,1,1,0.5336795570022574,1.5336795570022574,1.4663204429977426,3.0,1,1.2836795570022574,0,4.0,3.0,1,2,1,0,1,0,0,2,2,8,,,,,,,182.13598374999992,182.13598374999992,183.13657629199997,183.422374,183.669846334,183.669846334,183.669846334,185.13655645899996,185.13655645899996,185.13655645899996,185.13655645899996,186.13594420899994,200007,003,2023-04-11_09h09.34.809,DMS_et_12-36,2022.2.4,None,
9,UNPRED,12,0.5336795570022574,0,images/picture_1.png,images/picture_1.png,0,"[-11.733433509789462, 11.733433509789464]",-11.733433509789462,11.733433509789464,images/picture_2.png,1,"[11.733433509789462, -11.733433509789466]",11.733433509789462,-11.733433509789464,images/picture_3.png,2,"[11.733433509789464, 11.733433509789462]",11.733433509789464,11.733433509789462,0,1,1,0.5336795570022574,1.5336795570022574,1.4663204429977426,3.0,1,1.2836795570022574,0,4.0,3.0,1,2,1,0,1,0,0,3,3,0,,,,,,,186.13594420899994,186.13594420899994,187.13659399999995,187.42229129199995,187.66974299999993,187.66974299999993,187.66974299999993,189.13659866699993,189.13659866699993,189.13659866699993,189.13659866699993,190.13637325000002,200007,003,2023-04-11_09h09.34.809,DMS_et_12-36,2022.2.4,None,
12,UNPRED,12,0.5336795570022574,0,images/picture_1.png,images/picture_1.png,0,"[11.733433509789462, -11.733433509789466]",11.733433509789462,-11.733433509789464,images/picture_2.png,1,"[-11.733433509789462, 11.733433509789464]",-11.733433509789462,11.733433509789464,images/picture_3.png,2,"[11.733433509789464, 11.733433509789462]",11.733433509789464,11.733433509789462,0,1,1,0.5336795570022574,1.5336795570022574,1.4663204429977426,3.0,1,1.2836795570022574,0,4.0,3.0,1,2,1,0,1,0,0,4,4,3,,,,,,,190.13637325000002,190.13637325000002,191.13658387499993,191.422540917,191.669874542,191.669874542,191.669874542,193.13660033399992,193.13660033399992,193.13660033399992,193.13660033399992,194.15502183399997,200007,003,2023-04-11_09h09.34.809,DMS_et_12-36,2022.2.4,None,
13,UNPRED,12,0.5336795570022574,2,images/picture_3.png,images/picture_1.png,0,"[-11.733433509789462, 11.733433509789464]",-11.733433509789462,11.733433509789464,images/picture_2.png,1,"[11.733433509789464, 11.733433509789462]",11.733433509789464,11.733433509789462,images/picture_3.png,2,"[-11.733433509789466, -11.733433509789462]",-11.733433509789464,-11.733433509789462,0,1,1,0.5336795570022574,1.5336795570022574,1.4663204429977426,3.0,1,1.2836795570022574,0,4.0,3.0,1,2,1,0,1,0,0,5,5,4,,,,,,,194.15502183399997,194.15502183399997,195.169892,195.436556375,195.66984845899992,195.66984845899992,195.66984845899992,197.136595167,197.136595167,197.136595167,197.136595167,198.137136875,200007,003,2023-04-11_09h09.34.809,DMS_et_12-36,2022.2.4,None,
14,UNPRED,12,0.5336795570022574,2,images/picture_3.png,images/picture_1.png,0,"[11.733433509789464, 11.733433509789462]",11.733433509789464,11.733433509789462,images/picture_2.png,1,"[11.733433509789462, -11.733433509789466]",11.733433509789462,-11.733433509789464,images/picture_3.png,2,"[-11.733433509789462, 11.733433509789464]",-11.733433509789462,11.733433509789464,0,1,1,0.5336795570022574,1.5336795570022574,1.4663204429977426,3.0,1,1.2836795570022574,0,4.0,3.0,1,2,1,0,1,0,0,6,6,5,,,,,,,198.137136875,198.137136875,199.136418584,199.42232437500002,199.67001170899994,199.67001170899994,199.67001170899994,201.136580375,201.136580375,201.136580375,201.136580375,202.15515312499997,200007,003,2023-04-11_09h09.34.809,DMS_et_12-36,2022.2.4,None,
11,UNPRED,12,0.5336795570022574,2,images/picture_3.png,images/picture_1.png,0,"[11.733433509789464, 11.733433509789462]",11.733433509789464,11.733433509789462,images/picture_2.png,1,"[-11.733433509789462, 11.733433509789464]",-11.733433509789462,11.733433509789464,images/picture_3.png,2,"[-11.733433509789466, -11.733433509789462]",-11.733433509789464,-11.733433509789462,0,1,1,0.5336795570022574,1.5336795570022574,1.4663204429977426,3.0,1,1.2836795570022574,0,4.0,3.0,1,2,1,0,1,0,0,7,7,2,,,,,,,202.15515312499997,202.15515312499997,203.16987829200002,203.436562709,203.66993412499994,203.66993412499994,203.66993412499994,205.1366375,205.1366375,205.1366375,205.1366375,206.13645566699995,200007,003,2023-04-11_09h09.34.809,DMS_et_12-36,2022.2.4,None,
10,UNPRED,12,0.5336795570022574,1,images/picture_2.png,images/picture_1.png,0,"[-11.733433509789466, -11.733433509789462]",-11.733433509789464,-11.733433509789462,images/picture_2.png,1,"[-11.733433509789462, 11.733433509789464]",-11.733433509789462,11.733433509789464,images/picture_3.png,2,"[11.733433509789462, -11.733433509789466]",11.733433509789462,-11.733433509789464,0,1,1,0.5336795570022574,1.5336795570022574,1.4663204429977426,3.0,1,1.2836795570022574,0,4.0,3.0,1,2,1,0,1,0,0,8,8,1,,,,,,,206.13645566699995,206.13645566699995,207.13662395899996,207.42215804199998,207.67010412499997,207.67010412499997,207.67010412499997,209.13634583399994,209.13634583399994,209.13634583399994,209.13634583399994,210.16830912499995,200007,003,2023-04-11_09h09.34.809,DMS_et_12-36,2022.2.4,None,
,,,,,,,,,,,,,,,,,,,,,,,,,,,,,,,,,,,1,0,1,0,,,,,,,,,210.16830912499995,222.18959774999996,,,,,,,,,,,,,200007,003,2023-04-11_09h09.34.809,DMS_et_12-36,2022.2.4,None,
21,PRED,12,0.5336795570022574,0,images/picture_1.png,images/picture_1.png,0,"[-11.733433509789466, -11.733433509789462]",-11.733433509789464,-11.733433509789462,images/picture_2.png,1,"[-11.733433509789462, 11.733433509789464]",-11.733433509789462,11.733433509789464,images/picture_3.png,2,"[11.733433509789462, -11.733433509789466]",11.733433509789462,-11.733433509789464,0,1,1,0.5336795570022574,1.5336795570022574,1.4663204429977426,3.0,1,1.2836795570022574,0,4.0,3.0,1,2,2,0,2,0,0,0,0,3,,,,,,,222.18959774999996,222.18959774999996,223.20340366699998,223.47012237499996,223.72254687499992,223.72254687499992,223.72254687499992,225.20332774999997,225.20332774999997,225.20332774999997,225.18915029200002,226.202925584,200007,003,2023-04-11_09h09.34.809,DMS_et_12-36,2022.2.4,None,
20,PRED,12,0.5336795570022574,0,images/picture_1.png,images/picture_1.png,0,"[11.733433509789462, -11.733433509789466]",11.733433509789462,-11.733433509789464,images/picture_2.png,1,"[-11.733433509789466, -11.733433509789462]",-11.733433509789464,-11.733433509789462,images/picture_3.png,2,"[-11.733433509789462, 11.733433509789464]",-11.733433509789462,11.733433509789464,0,1,1,0.5336795570022574,1.5336795570022574,1.4663204429977426,3.0,1,1.2836795570022574,0,4.0,3.0,1,2,2,0,2,0,0,1,1,2,,,,,,,226.202925584,226.202925584,227.20334554199997,227.4888891669999,227.736624292,227.736624292,227.736624292,229.203100125,229.203100125,229.203100125,229.203100125,230.2028725,200007,003,2023-04-11_09h09.34.809,DMS_et_12-36,2022.2.4,None,
19,PRED,12,0.5336795570022574,0,images/picture_1.png,images/picture_1.png,0,"[11.733433509789462, -11.733433509789466]",11.733433509789462,-11.733433509789464,images/picture_2.png,1,"[11.733433509789464, 11.733433509789462]",11.733433509789464,11.733433509789462,images/picture_3.png,2,"[-11.733433509789466, -11.733433509789462]",-11.733433509789464,-11.733433509789462,0,1,1,0.5336795570022574,1.5336795570022574,1.4663204429977426,3.0,1,1.2836795570022574,0,4.0,3.0,1,2,2,0,2,0,0,2,2,1,,,,,,,230.2028725,230.2028725,231.20327224999994,231.4892532089999,231.73657474999993,231.73657474999993,231.73657474999993,233.20330675000002,233.20330675000002,233.20330675000002,233.20330675000002,234.20304283400003,200007,003,2023-04-11_09h09.34.809,DMS_et_12-36,2022.2.4,None,
24,PRED,12,0.5336795570022574,0,images/picture_1.png,images/picture_1.png,0,"[11.733433509789462, -11.733433509789466]",11.733433509789462,-11.733433509789464,images/picture_2.png,1,"[-11.733433509789466, -11.733433509789462]",-11.733433509789464,-11.733433509789462,images/picture_3.png,2,"[11.733433509789464, 11.733433509789462]",11.733433509789464,11.733433509789462,0,1,1,0.5336795570022574,1.5336795570022574,1.4663204429977426,3.0,1,1.2836795570022574,0,4.0,3.0,1,2,2,0,2,0,0,3,3,6,,,,,,,234.20304283400003,234.20304283400003,235.20342437500005,235.48925395899994,235.73659533400007,235.73659533400007,235.73659533400007,237.20335195899986,237.20335195899986,237.20335195899986,237.20335195899986,238.20304791699994,200007,003,2023-04-11_09h09.34.809,DMS_et_12-36,2022.2.4,None,
23,PRED,12,0.5336795570022574,0,images/picture_1.png,images/picture_1.png,0,"[-11.733433509789462, 11.733433509789464]",-11.733433509789462,11.733433509789464,images/picture_2.png,1,"[11.733433509789462, -11.733433509789466]",11.733433509789462,-11.733433509789464,images/picture_3.png,2,"[11.733433509789464, 11.733433509789462]",11.733433509789464,11.733433509789462,0,1,1,0.5336795570022574,1.5336795570022574,1.4663204429977426,3.0,1,1.2836795570022574,0,4.0,3.0,1,2,2,0,2,0,0,4,4,5,,,,,,,238.20304791699994,238.20304791699994,239.203047459,239.488374334,239.73644545900004,239.73644545900004,239.73644545900004,241.20332341699998,241.20332341699998,241.20332341699998,241.20332341699998,242.2027711249999,200007,003,2023-04-11_09h09.34.809,DMS_et_12-36,2022.2.4,None,
18,PRED,12,0.5336795570022574,0,images/picture_1.png,images/picture_1.png,0,"[11.733433509789464, 11.733433509789462]",11.733433509789464,11.733433509789462,images/picture_2.png,1,"[11.733433509789462, -11.733433509789466]",11.733433509789462,-11.733433509789464,images/picture_3.png,2,"[-11.733433509789462, 11.733433509789464]",-11.733433509789462,11.733433509789464,0,1,1,0.5336795570022574,1.5336795570022574,1.4663204429977426,3.0,1,1.2836795570022574,0,4.0,3.0,1,2,2,0,2,0,0,5,5,0,,,,,,,242.2027711249999,242.2027711249999,243.20330629199987,243.489443584,243.73664845899987,243.73664845899987,243.73664845899987,245.20331766700008,245.20331766700008,245.20331766700008,245.20331766700008,246.20305162500006,200007,003,2023-04-11_09h09.34.809,DMS_et_12-36,2022.2.4,None,
25,PRED,12,0.5336795570022574,0,images/picture_1.png,images/picture_1.png,0,"[-11.733433509789466, -11.733433509789462]",-11.733433509789464,-11.733433509789462,images/picture_2.png,1,"[11.733433509789464, 11.733433509789462]",11.733433509789464,11.733433509789462,images/picture_3.png,2,"[11.733433509789462, -11.733433509789466]",11.733433509789462,-11.733433509789464,0,1,1,0.5336795570022574,1.5336795570022574,1.4663204429977426,3.0,1,1.2836795570022574,0,4.0,3.0,1,2,2,0,2,0,0,6,6,7,,,,,,,246.20305162500006,246.20305162500006,247.20330029199988,247.489900917,247.73672145900002,247.73672145900002,247.73672145900002,249.20308383400004,249.20308383400004,249.20308383400004,249.20308383400004,250.203085084,200007,003,2023-04-11_09h09.34.809,DMS_et_12-36,2022.2.4,None,
26,PRED,12,0.5336795570022574,0,images/picture_1.png,images/picture_1.png,0,"[11.733433509789464, 11.733433509789462]",11.733433509789464,11.733433509789462,images/picture_2.png,1,"[-11.733433509789462, 11.733433509789464]",-11.733433509789462,11.733433509789464,images/picture_3.png,2,"[11.733433509789462, -11.733433509789466]",11.733433509789462,-11.733433509789464,0,1,1,0.5336795570022574,1.5336795570022574,1.4663204429977426,3.0,1,1.2836795570022574,0,4.0,3.0,1,2,2,0,2,0,0,7,7,8,,,,,,,250.203085084,250.203085084,251.20333445900008,251.48957445899998,251.73659604199986,251.73659604199986,251.73659604199986,253.20331466699997,253.20331466699997,253.20331466699997,253.20331466699997,254.20276008400003,200007,003,2023-04-11_09h09.34.809,DMS_et_12-36,2022.2.4,None,
22,PRED,12,0.5336795570022574,0,images/picture_1.png,images/picture_1.png,0,"[11.733433509789464, 11.733433509789462]",11.733433509789464,11.733433509789462,images/picture_2.png,1,"[11.733433509789462, -11.733433509789466]",11.733433509789462,-11.733433509789464,images/picture_3.png,2,"[-11.733433509789466, -11.733433509789462]",-11.733433509789464,-11.733433509789462,0,1,1,0.5336795570022574,1.5336795570022574,1.4663204429977426,3.0,1,1.2836795570022574,0,4.0,3.0,1,2,2,0,2,0,0,8,8,4,,,,,,,254.20276008400003,254.20276008400003,255.20332133399995,255.489812292,255.736615917,255.736615917,255.736615917,257.203333542,257.203333542,257.203333542,257.203333542,258.24805445899995,200007,003,2023-04-11_09h09.34.809,DMS_et_12-36,2022.2.4,None,
,,,,,,,,,,,,,,,,,,,,,,,,,,,,,,,,,,,2,0,2,0,,,,,,,,,258.24805445899995,270.26664645900007,,,,,,,,,,,,,200007,003,2023-04-11_09h09.34.809,DMS_et_12-36,2022.2.4,None,
32,UNPRED,12,0.5336795570022574,2,images/picture_3.png,images/picture_1.png,0,"[11.733433509789464, 11.733433509789462]",11.733433509789464,11.733433509789462,images/picture_2.png,1,"[-11.733433509789462, 11.733433509789464]",-11.733433509789462,11.733433509789464,images/picture_3.png,2,"[11.733433509789462, -11.733433509789466]",11.733433509789462,-11.733433509789464,0,1,1,0.5336795570022574,1.5336795570022574,1.4663204429977426,3.0,1,1.2836795570022574,0,4.0,3.0,1,2,3,0,3,0,0,0,0,5,,,,,,,270.26664645900007,270.26664645900007,271.270088459,271.55603070899986,271.7892801249999,271.7892801249999,271.7892801249999,273.270097834,273.270097834,273.270097834,273.25606079199986,274.28866104199994,200007,003,2023-04-11_09h09.34.809,DMS_et_12-36,2022.2.4,None,
30,UNPRED,12,0.5336795570022574,2,images/picture_3.png,images/picture_1.png,0,"[-11.733433509789462, 11.733433509789464]",-11.733433509789462,11.733433509789464,images/picture_2.png,1,"[11.733433509789462, -11.733433509789466]",11.733433509789462,-11.733433509789464,images/picture_3.png,2,"[11.733433509789464, 11.733433509789462]",11.733433509789464,11.733433509789462,0,1,1,0.5336795570022574,1.5336795570022574,1.4663204429977426,3.0,1,1.2836795570022574,0,4.0,3.0,1,2,3,0,3,0,0,1,1,3,,,,,,,274.28866104199994,274.28866104199994,275.30338162500004,275.5699908339999,275.80330225,275.80330225,275.80330225,277.270048709,277.270048709,277.270048709,277.270048709,278.27025408399993,200007,003,2023-04-11_09h09.34.809,DMS_et_12-36,2022.2.4,None,
34,UNPRED,12,0.5336795570022574,1,images/picture_2.png,images/picture_1.png,0,"[11.733433509789464, 11.733433509789462]",11.733433509789464,11.733433509789462,images/picture_2.png,1,"[-11.733433509789462, 11.733433509789464]",-11.733433509789462,11.733433509789464,images/picture_3.png,2,"[-11.733433509789466, -11.733433509789462]",-11.733433509789464,-11.733433509789462,0,1,1,0.5336795570022574,1.5336795570022574,1.4663204429977426,3.0,1,1.2836795570022574,0,4.0,3.0,1,2,3,0,3,0,0,2,2,7,,,,,,,278.27025408399993,278.27025408399993,279.27006904200005,279.5559394169999,279.8033375419999,279.8033375419999,279.8033375419999,281.27008291699997,281.27008291699997,281.27008291699997,281.27008291699997,282.26945716700004,200007,003,2023-04-11_09h09.34.809,DMS_et_12-36,2022.2.4,None,
28,UNPRED,12,0.5336795570022574,0,images/picture_1.png,images/picture_1.png,0,"[-11.733433509789466, -11.733433509789462]",-11.733433509789464,-11.733433509789462,images/picture_2.png,1,"[11.733433509789464, 11.733433509789462]",11.733433509789464,11.733433509789462,images/picture_3.png,2,"[11.733433509789462, -11.733433509789466]",11.733433509789462,-11.733433509789464,0,1,1,0.5336795570022574,1.5336795570022574,1.4663204429977426,3.0,1,1.2836795570022574,0,4.0,3.0,1,2,3,0,3,0,0,3,3,1,,,,,,,282.26945716700004,282.26945716700004,283.270010459,283.55629020899994,283.8033394170001,283.8033394170001,283.8033394170001,285.270079625,285.270079625,285.270079625,285.270079625,286.269603417,200007,003,2023-04-11_09h09.34.809,DMS_et_12-36,2022.2.4,None,
29,UNPRED,12,0.5336795570022574,1,images/picture_2.png,images/picture_1.png,0,"[-11.733433509789462, 11.733433509789464]",-11.733433509789462,11.733433509789464,images/picture_2.png,1,"[11.733433509789464, 11.733433509789462]",11.733433509789464,11.733433509789462,images/picture_3.png,2,"[11.733433509789462, -11.733433509789466]",11.733433509789462,-11.733433509789464,0,1,1,0.5336795570022574,1.5336795570022574,1.4663204429977426,3.0,1,1.2836795570022574,0,4.0,3.0,1,2,3,0,3,0,0,4,4,2,,,,,,,286.269603417,286.269603417,287.27005908399985,287.5556493339999,287.8034195839999,287.8034195839999,287.8034195839999,289.2700639169999,289.2700639169999,289.2700639169999,289.2700639169999,290.26977620900004,200007,003,2023-04-11_09h09.34.809,DMS_et_12-36,2022.2.4,None,
31,UNPRED,12,0.5336795570022574,0,images/picture_1.png,images/picture_1.png,0,"[-11.733433509789462, 11.733433509789464]",-11.733433509789462,11.733433509789464,images/picture_2.png,1,"[11.733433509789462, -11.733433509789466]",11.733433509789462,-11.733433509789464,images/picture_3.png,2,"[11.733433509789464, 11.733433509789462]",11.733433509789464,11.733433509789462,0,1,1,0.5336795570022574,1.5336795570022574,1.4663204429977426,3.0,1,1.2836795570022574,0,4.0,3.0,1,2,3,0,3,0,0,5,5,4,,,,,,,290.26977620900004,290.26977620900004,291.269945292,291.55582874999993,291.803519792,291.803519792,291.803519792,293.270067542,293.270067542,293.270067542,293.270067542,294.2697485,200007,003,2023-04-11_09h09.34.809,DMS_et_12-36,2022.2.4,None,
35,UNPRED,12,0.5336795570022574,0,images/picture_1.png,images/picture_1.png,0,"[11.733433509789462, -11.733433509789466]",11.733433509789462,-11.733433509789464,images/picture_2.png,1,"[-11.733433509789466, -11.733433509789462]",-11.733433509789464,-11.733433509789462,images/picture_3.png,2,"[-11.733433509789462, 11.733433509789464]",-11.733433509789462,11.733433509789464,0,1,1,0.5336795570022574,1.5336795570022574,1.4663204429977426,3.0,1,1.2836795570022574,0,4.0,3.0,1,2,3,0,3,0,0,6,6,8,,,,,,,294.2697485,294.2697485,295.27008575,295.555501834,295.8033240839999,295.8033240839999,295.8033240839999,297.27013558400006,297.27013558400006,297.27013558400006,297.27013558400006,298.269211875,200007,003,2023-04-11_09h09.34.809,DMS_et_12-36,2022.2.4,None,
27,UNPRED,12,0.5336795570022574,1,images/picture_2.png,images/picture_1.png,0,"[11.733433509789464, 11.733433509789462]",11.733433509789464,11.733433509789462,images/picture_2.png,1,"[-11.733433509789462, 11.733433509789464]",-11.733433509789462,11.733433509789464,images/picture_3.png,2,"[11.733433509789462, -11.733433509789466]",11.733433509789462,-11.733433509789464,0,1,1,0.5336795570022574,1.5336795570022574,1.4663204429977426,3.0,1,1.2836795570022574,0,4.0,3.0,1,2,3,0,3,0,0,7,7,0,,,,,,,298.269211875,298.269211875,299.27007637500003,299.555824209,299.80332575,299.80332575,299.80332575,301.2698629999999,301.2698629999999,301.2698629999999,301.2698629999999,302.28859087500007,200007,003,2023-04-11_09h09.34.809,DMS_et_12-36,2022.2.4,None,
33,UNPRED,12,0.5336795570022574,2,images/picture_3.png,images/picture_1.png,0,"[11.733433509789462, -11.733433509789466]",11.733433509789462,-11.733433509789464,images/picture_2.png,1,"[11.733433509789464, 11.733433509789462]",11.733433509789464,11.733433509789462,images/picture_3.png,2,"[-11.733433509789462, 11.733433509789464]",-11.733433509789462,11.733433509789464,0,1,1,0.5336795570022574,1.5336795570022574,1.4663204429977426,3.0,1,1.2836795570022574,0,4.0,3.0,1,2,3,0,3,0,0,8,8,6,,,,,,,302.28859087500007,302.28859087500007,303.30332125000007,303.57010849999995,303.8033300000001,303.8033300000001,303.8033300000001,305.270086417,305.270086417,305.270086417,305.270086417,306.32085370900006,200007,003,2023-04-11_09h09.34.809,DMS_et_12-36,2022.2.4,None,
,,,,,,,,,,,,,,,,,,,,,,,,,,,,,,,,,,,3,0,3,0,,,,,,,,,306.32085370900006,318.34395279199987,,,,,,,,,,,,,200007,003,2023-04-11_09h09.34.809,DMS_et_12-36,2022.2.4,None,
44,PRED,12,0.5336795570022574,2,images/picture_3.png,images/picture_1.png,0,"[-11.733433509789462, 11.733433509789464]",-11.733433509789462,11.733433509789464,images/picture_2.png,1,"[-11.733433509789466, -11.733433509789462]",-11.733433509789464,-11.733433509789462,images/picture_3.png,2,"[11.733433509789464, 11.733433509789462]",11.733433509789464,11.733433509789462,0,1,1,0.5336795570022574,1.5336795570022574,1.4663204429977426,3.0,1,1.2836795570022574,0,4.0,3.0,1,2,4,0,4,0,0,0,0,8,,,,,,,318.34395279199987,318.34395279199987,319.356438209,319.63683612500006,319.87008758399986,319.87008758399986,319.87008758399986,321.3364573339999,321.3364573339999,321.3364573339999,321.3364573339999,322.356085042,200007,003,2023-04-11_09h09.34.809,DMS_et_12-36,2022.2.4,None,
37,PRED,12,0.5336795570022574,2,images/picture_3.png,images/picture_1.png,0,"[-11.733433509789462, 11.733433509789464]",-11.733433509789462,11.733433509789464,images/picture_2.png,1,"[11.733433509789462, -11.733433509789466]",11.733433509789462,-11.733433509789464,images/picture_3.png,2,"[-11.733433509789466, -11.733433509789462]",-11.733433509789464,-11.733433509789462,0,1,1,0.5336795570022574,1.5336795570022574,1.4663204429977426,3.0,1,1.2836795570022574,0,4.0,3.0,1,2,4,0,4,0,0,1,1,1,,,,,,,322.356085042,322.356085042,323.370062375,323.63691612499986,323.87007012499987,323.87007012499987,323.87007012499987,325.3367898339999,325.3367898339999,325.3367898339999,325.3367898339999,326.355890209,200007,003,2023-04-11_09h09.34.809,DMS_et_12-36,2022.2.4,None,
38,PRED,12,0.5336795570022574,2,images/picture_3.png,images/picture_1.png,0,"[-11.733433509789466, -11.733433509789462]",-11.733433509789464,-11.733433509789462,images/picture_2.png,1,"[11.733433509789464, 11.733433509789462]",11.733433509789464,11.733433509789462,images/picture_3.png,2,"[-11.733433509789462, 11.733433509789464]",-11.733433509789462,11.733433509789464,0,1,1,0.5336795570022574,1.5336795570022574,1.4663204429977426,3.0,1,1.2836795570022574,0,4.0,3.0,1,2,4,0,4,0,0,2,2,2,,,,,,,326.355890209,326.355890209,327.3701058749999,327.6366099169999,327.87004816699994,327.87004816699994,327.87004816699994,329.336772625,329.336772625,329.336772625,329.336772625,330.3552222919999,200007,003,2023-04-11_09h09.34.809,DMS_et_12-36,2022.2.4,None,
40,PRED,12,0.5336795570022574,2,images/picture_3.png,images/picture_1.png,0,"[-11.733433509789466, -11.733433509789462]",-11.733433509789464,-11.733433509789462,images/picture_2.png,1,"[11.733433509789462, -11.733433509789466]",11.733433509789462,-11.733433509789464,images/picture_3.png,2,"[11.733433509789464, 11.733433509789462]",11.733433509789464,11.733433509789462,0,1,1,0.5336795570022574,1.5336795570022574,1.4663204429977426,3.0,1,1.2836795570022574,0,4.0,3.0,1,2,4,0,4,0,0,3,3,4,,,,,,,330.3552222919999,330.3552222919999,331.36966025000004,331.636455209,331.86995654200007,331.86995654200007,331.86995654200007,333.33677895900007,333.33677895900007,333.33677895900007,333.33677895900007,334.35573691699994,200007,003,2023-04-11_09h09.34.809,DMS_et_12-36,2022.2.4,None,
36,PRED,12,0.5336795570022574,2,images/picture_3.png,images/picture_1.png,0,"[-11.733433509789462, 11.733433509789464]",-11.733433509789462,11.733433509789464,images/picture_2.png,1,"[11.733433509789464, 11.733433509789462]",11.733433509789464,11.733433509789462,images/picture_3.png,2,"[-11.733433509789466, -11.733433509789462]",-11.733433509789464,-11.733433509789462,0,1,1,0.5336795570022574,1.5336795570022574,1.4663204429977426,3.0,1,1.2836795570022574,0,4.0,3.0,1,2,4,0,4,0,0,4,4,0,,,,,,,334.35573691699994,334.35573691699994,335.370149125,335.63680391700007,335.87002804199994,335.87002804199994,335.87002804199994,337.33695391699996,337.33695391699996,337.33695391699996,337.33695391699996,338.35598854199986,200007,003,2023-04-11_09h09.34.809,DMS_et_12-36,2022.2.4,None,
39,PRED,12,0.5336795570022574,2,images/picture_3.png,images/picture_1.png,0,"[-11.733433509789462, 11.733433509789464]",-11.733433509789462,11.733433509789464,images/picture_2.png,1,"[11.733433509789464, 11.733433509789462]",11.733433509789464,11.733433509789462,images/picture_3.png,2,"[11.733433509789462, -11.733433509789466]",11.733433509789462,-11.733433509789464,0,1,1,0.5336795570022574,1.5336795570022574,1.4663204429977426,3.0,1,1.2836795570022574,0,4.0,3.0,1,2,4,0,4,0,0,5,5,3,,,,,,,338.35598854199986,338.35598854199986,339.3701004169999,339.636853417,339.87006608399986,339.87006608399986,339.87006608399986,341.3368188339999,341.3368188339999,341.3368188339999,341.3368188339999,342.33660287500004,200007,003,2023-04-11_09h09.34.809,DMS_et_12-36,2022.2.4,None,
43,PRED,12,0.5336795570022574,2,images/picture_3.png,images/picture_1.png,0,"[11.733433509789462, -11.733433509789466]",11.733433509789462,-11.733433509789464,images/picture_2.png,1,"[11.733433509789464, 11.733433509789462]",11.733433509789464,11.733433509789462,images/picture_3.png,2,"[-11.733433509789462, 11.733433509789464]",-11.733433509789462,11.733433509789464,0,1,1,0.5336795570022574,1.5336795570022574,1.4663204429977426,3.0,1,1.2836795570022574,0,4.0,3.0,1,2,4,0,4,0,0,6,6,7,,,,,,,342.33660287500004,342.33660287500004,343.33677687500006,343.62283683399994,343.870112167,343.870112167,343.870112167,345.33680425,345.33680425,345.33680425,345.33680425,346.35620937500005,200007,003,2023-04-11_09h09.34.809,DMS_et_12-36,2022.2.4,None,
42,PRED,12,0.5336795570022574,2,images/picture_3.png,images/picture_1.png,0,"[-11.733433509789466, -11.733433509789462]",-11.733433509789464,-11.733433509789462,images/picture_2.png,1,"[11.733433509789462, -11.733433509789466]",11.733433509789462,-11.733433509789464,images/picture_3.png,2,"[11.733433509789464, 11.733433509789462]",11.733433509789464,11.733433509789462,0,1,1,0.5336795570022574,1.5336795570022574,1.4663204429977426,3.0,1,1.2836795570022574,0,4.0,3.0,1,2,4,0,4,0,0,7,7,6,,,,,,,346.35620937500005,346.35620937500005,347.370215584,347.63692574999993,347.870083334,347.870083334,347.870083334,349.3367930840001,349.3367930840001,349.3367930840001,349.3367930840001,350.35527354199996,200007,003,2023-04-11_09h09.34.809,DMS_et_12-36,2022.2.4,None,
41,PRED,12,0.5336795570022574,2,images/picture_3.png,images/picture_1.png,0,"[-11.733433509789466, -11.733433509789462]",-11.733433509789464,-11.733433509789462,images/picture_2.png,1,"[-11.733433509789462, 11.733433509789464]",-11.733433509789462,11.733433509789464,images/picture_3.png,2,"[11.733433509789464, 11.733433509789462]",11.733433509789464,11.733433509789462,0,1,1,0.5336795570022574,1.5336795570022574,1.4663204429977426,3.0,1,1.2836795570022574,0,4.0,3.0,1,2,4,0,4,0,0,8,8,5,,,,,,,350.35527354199996,350.35527354199996,351.370069792,351.63683020899987,351.86998133400004,351.86998133400004,351.86998133400004,353.3368516249999,353.3368516249999,353.3368516249999,353.3368516249999,354.3933209589999,200007,003,2023-04-11_09h09.34.809,DMS_et_12-36,2022.2.4,None,
,,,,,,,,,,,,,,,,,,,,,,,,,,,,,,,,,,,4,0,4,0,,,,,,,,,354.3933209589999,366.4227991669999,,,,,,,,,,,,,200007,003,2023-04-11_09h09.34.809,DMS_et_12-36,2022.2.4,None,
46,UNPRED,12,0.5336795570022574,0,images/picture_1.png,images/picture_1.png,0,"[11.733433509789462, -11.733433509789466]",11.733433509789462,-11.733433509789464,images/picture_2.png,1,"[-11.733433509789462, 11.733433509789464]",-11.733433509789462,11.733433509789464,images/picture_3.png,2,"[-11.733433509789466, -11.733433509789462]",-11.733433509789464,-11.733433509789462,0,1,1,0.5336795570022574,1.5336795570022574,1.4663204429977426,3.0,1,1.2836795570022574,0,4.0,3.0,1,2,5,0,5,0,0,0,0,1,,,,,,,366.4227991669999,366.4227991669999,367.437067167,367.7038113749999,367.95598866700004,367.95598866700004,367.95598866700004,369.436860875,369.436860875,369.436860875,369.4225817089999,370.455819334,200007,003,2023-04-11_09h09.34.809,DMS_et_12-36,2022.2.4,None,
52,UNPRED,12,0.5336795570022574,2,images/picture_3.png,images/picture_1.png,0,"[11.733433509789464, 11.733433509789462]",11.733433509789464,11.733433509789462,images/picture_2.png,1,"[-11.733433509789466, -11.733433509789462]",-11.733433509789464,-11.733433509789462,images/picture_3.png,2,"[-11.733433509789462, 11.733433509789464]",-11.733433509789462,11.733433509789464,0,1,1,0.5336795570022574,1.5336795570022574,1.4663204429977426,3.0,1,1.2836795570022574,0,4.0,3.0,1,2,5,0,5,0,0,1,1,7,,,,,,,370.455819334,370.455819334,371.4703289999999,371.73708225000007,371.9704371669999,371.9704371669999,371.9704371669999,373.43671441699996,373.43671441699996,373.43671441699996,373.43671441699996,374.45621312499986,200007,003,2023-04-11_09h09.34.809,DMS_et_12-36,2022.2.4,None,
48,UNPRED,12,0.5336795570022574,2,images/picture_3.png,images/picture_1.png,0,"[-11.733433509789462, 11.733433509789464]",-11.733433509789462,11.733433509789464,images/picture_2.png,1,"[11.733433509789462, -11.733433509789466]",11.733433509789462,-11.733433509789464,images/picture_3.png,2,"[11.733433509789464, 11.733433509789462]",11.733433509789464,11.733433509789462,0,1,1,0.5336795570022574,1.5336795570022574,1.4663204429977426,3.0,1,1.2836795570022574,0,4.0,3.0,1,2,5,0,5,0,0,2,2,3,,,,,,,374.45621312499986,374.45621312499986,375.4702941249999,375.73704941699987,375.9705398749999,375.9705398749999,375.9705398749999,377.4370506669999,377.4370506669999,377.4370506669999,377.4370506669999,378.45566495900005,200007,003,2023-04-11_09h09.34.809,DMS_et_12-36,2022.2.4,None,
53,UNPRED,12,0.5336795570022574,2,images/picture_3.png,images/picture_1.png,0,"[-11.733433509789462, 11.733433509789464]",-11.733433509789462,11.733433509789464,images/picture_2.png,1,"[11.733433509789464, 11.733433509789462]",11.733433509789464,11.733433509789462,images/picture_3.png,2,"[-11.733433509789466, -11.733433509789462]",-11.733433509789464,-11.733433509789462,0,1,1,0.5336795570022574,1.5336795570022574,1.4663204429977426,3.0,1,1.2836795570022574,0,4.0,3.0,1,2,5,0,5,0,0,3,3,8,,,,,,,378.45566495900005,378.45566495900005,379.470379667,379.73703158399996,379.9703727919999,379.9703727919999,379.9703727919999,381.4368512089999,381.4368512089999,381.4368512089999,381.4368512089999,382.4556275419999,200007,003,2023-04-11_09h09.34.809,DMS_et_12-36,2022.2.4,None,
47,UNPRED,12,0.5336795570022574,2,images/picture_3.png,images/picture_1.png,0,"[11.733433509789462, -11.733433509789466]",11.733433509789462,-11.733433509789464,images/picture_2.png,1,"[-11.733433509789466, -11.733433509789462]",-11.733433509789464,-11.733433509789462,images/picture_3.png,2,"[-11.733433509789462, 11.733433509789464]",-11.733433509789462,11.733433509789464,0,1,1,0.5336795570022574,1.5336795570022574,1.4663204429977426,3.0,1,1.2836795570022574,0,4.0,3.0,1,2,5,0,5,0,0,4,4,2,,,,,,,382.4556275419999,382.4556275419999,383.47022845899994,383.736604459,383.9703747499999,383.9703747499999,383.9703747499999,385.4368680839999,385.4368680839999,385.4368680839999,385.4368680839999,386.43748100000005,200007,003,2023-04-11_09h09.34.809,DMS_et_12-36,2022.2.4,None,
50,UNPRED,12,0.5336795570022574,1,images/picture_2.png,images/picture_1.png,0,"[11.733433509789462, -11.733433509789466]",11.733433509789462,-11.733433509789464,images/picture_2.png,1,"[-11.733433509789462, 11.733433509789464]",-11.733433509789462,11.733433509789464,images/picture_3.png,2,"[11.733433509789464, 11.733433509789462]",11.733433509789464,11.733433509789462,0,1,1,0.5336795570022574,1.5336795570022574,1.4663204429977426,3.0,1,1.2836795570022574,0,4.0,3.0,1,2,5,0,5,0,0,5,5,5,,,,,,,386.43748100000005,386.43748100000005,387.43678824999995,387.72310000000004,387.9700624999999,387.9700624999999,387.9700624999999,389.4368450420001,389.4368450420001,389.4368450420001,389.4368450420001,390.43666979199986,200007,003,2023-04-11_09h09.34.809,DMS_et_12-36,2022.2.4,None,
49,UNPRED,12,0.5336795570022574,1,images/picture_2.png,images/picture_1.png,0,"[-11.733433509789466, -11.733433509789462]",-11.733433509789464,-11.733433509789462,images/picture_2.png,1,"[-11.733433509789462, 11.733433509789464]",-11.733433509789462,11.733433509789464,images/picture_3.png,2,"[11.733433509789462, -11.733433509789466]",11.733433509789462,-11.733433509789464,0,1,1,0.5336795570022574,1.5336795570022574,1.4663204429977426,3.0,1,1.2836795570022574,0,4.0,3.0,1,2,5,0,5,0,0,6,6,4,,,,,,,390.43666979199986,390.43666979199986,391.436894542,391.72275962499987,391.9700577919999,391.9700577919999,391.9700577919999,393.436454542,393.436454542,393.436454542,393.436454542,394.4363724589999,200007,003,2023-04-11_09h09.34.809,DMS_et_12-36,2022.2.4,None,
45,UNPRED,12,0.5336795570022574,1,images/picture_2.png,images/picture_1.png,0,"[11.733433509789464, 11.733433509789462]",11.733433509789464,11.733433509789462,images/picture_2.png,1,"[-11.733433509789462, 11.733433509789464]",-11.733433509789462,11.733433509789464,images/picture_3.png,2,"[-11.733433509789466, -11.733433509789462]",-11.733433509789464,-11.733433509789462,0,1,1,0.5336795570022574,1.5336795570022574,1.4663204429977426,3.0,1,1.2836795570022574,0,4.0,3.0,1,2,5,0,5,0,0,7,7,0,,,,,,,394.4363724589999,394.4363724589999,395.436849459,395.722731167,395.97025862499993,395.97025862499993,395.97025862499993,397.4369056249999,397.4369056249999,397.4369056249999,397.4369056249999,398.43634795900005,200007,003,2023-04-11_09h09.34.809,DMS_et_12-36,2022.2.4,None,
51,UNPRED,12,0.5336795570022574,1,images/picture_2.png,images/picture_1.png,0,"[11.733433509789464, 11.733433509789462]",11.733433509789464,11.733433509789462,images/picture_2.png,1,"[-11.733433509789462, 11.733433509789464]",-11.733433509789462,11.733433509789464,images/picture_3.png,2,"[11.733433509789462, -11.733433509789466]",11.733433509789462,-11.733433509789464,0,1,1,0.5336795570022574,1.5336795570022574,1.4663204429977426,3.0,1,1.2836795570022574,0,4.0,3.0,1,2,5,0,5,0,0,8,8,6,,,,,,,398.43634795900005,398.43634795900005,399.4368445839999,399.72266624999986,399.97011566699996,399.97011566699996,399.97011566699996,401.43684158400004,401.43684158400004,401.43684158400004,401.43684158400004,402.55519612499995,200007,003,2023-04-11_09h09.34.809,DMS_et_12-36,2022.2.4,None,
,,,,,,,,,,,,,,,,,,,,,,,,,,,,,,,,,,,5,0,5,0,,,,,,,,,402.55519612499995,414.597944792,,,,,,,,,,,,,200007,003,2023-04-11_09h09.34.809,DMS_et_12-36,2022.2.4,None,
57,PRED,12,0.5336795570022574,1,images/picture_2.png,images/picture_1.png,0,"[11.733433509789462, -11.733433509789466]",11.733433509789462,-11.733433509789464,images/picture_2.png,1,"[11.733433509789464, 11.733433509789462]",11.733433509789464,11.733433509789462,images/picture_3.png,2,"[-11.733433509789462, 11.733433509789464]",-11.733433509789462,11.733433509789464,0,1,1,0.5336795570022574,1.5336795570022574,1.4663204429977426,3.0,1,1.2836795570022574,0,4.0,3.0,1,2,6,0,6,0,0,0,0,3,,,,,,,414.597944792,414.597944792,415.60349366699995,415.88948612499996,416.13680899999997,416.13680899999997,416.13680899999997,417.60354904200005,417.60354904200005,417.60354904200005,417.60354904200005,418.60246129199993,200007,003,2023-04-11_09h09.34.809,DMS_et_12-36,2022.2.4,None,
55,PRED,12,0.5336795570022574,1,images/picture_2.png,images/picture_1.png,0,"[11.733433509789462, -11.733433509789466]",11.733433509789462,-11.733433509789464,images/picture_2.png,1,"[11.733433509789464, 11.733433509789462]",11.733433509789464,11.733433509789462,images/picture_3.png,2,"[-11.733433509789462, 11.733433509789464]",-11.733433509789462,11.733433509789464,0,1,1,0.5336795570022574,1.5336795570022574,1.4663204429977426,3.0,1,1.2836795570022574,0,4.0,3.0,1,2,6,0,6,0,0,1,1,1,,,,,,,418.60246129199993,418.60246129199993,419.60359166699993,419.88948183399987,420.13680687499993,420.13680687499993,420.13680687499993,421.603532042,421.603532042,421.603532042,421.603532042,422.60293216699995,200007,003,2023-04-11_09h09.34.809,DMS_et_12-36,2022.2.4,None,
62,PRED,12,0.5336795570022574,1,images/picture_2.png,images/picture_1.png,0,"[-11.733433509789466, -11.733433509789462]",-11.733433509789464,-11.733433509789462,images/picture_2.png,1,"[11.733433509789464, 11.733433509789462]",11.733433509789464,11.733433509789462,images/picture_3.png,2,"[11.733433509789462, -11.733433509789466]",11.733433509789462,-11.733433509789464,0,1,1,0.5336795570022574,1.5336795570022574,1.4663204429977426,3.0,1,1.2836795570022574,0,4.0,3.0,1,2,6,0,6,0,0,2,2,8,,,,,,,422.60293216699995,422.60293216699995,423.60363783399987,423.88883216700003,424.136533084,424.136533084,424.136533084,425.6037130839999,425.6037130839999,425.6037130839999,425.6037130839999,426.60296400000004,200007,003,2023-04-11_09h09.34.809,DMS_et_12-36,2022.2.4,None,
59,PRED,12,0.5336795570022574,1,images/picture_2.png,images/picture_1.png,0,"[11.733433509789462, -11.733433509789466]",11.733433509789462,-11.733433509789464,images/picture_2.png,1,"[11.733433509789464, 11.733433509789462]",11.733433509789464,11.733433509789462,images/picture_3.png,2,"[-11.733433509789462, 11.733433509789464]",-11.733433509789462,11.733433509789464,0,1,1,0.5336795570022574,1.5336795570022574,1.4663204429977426,3.0,1,1.2836795570022574,0,4.0,3.0,1,2,6,0,6,0,0,3,3,5,,,,,,,426.60296400000004,426.60296400000004,427.603540834,427.889614584,428.1368719999999,428.1368719999999,428.1368719999999,429.60359979199995,429.60359979199995,429.60359979199995,429.60359979199995,430.60298412500003,200007,003,2023-04-11_09h09.34.809,DMS_et_12-36,2022.2.4,None,
61,PRED,12,0.5336795570022574,1,images/picture_2.png,images/picture_1.png,0,"[11.733433509789464, 11.733433509789462]",11.733433509789464,11.733433509789462,images/picture_2.png,1,"[-11.733433509789466, -11.733433509789462]",-11.733433509789464,-11.733433509789462,images/picture_3.png,2,"[11.733433509789462, -11.733433509789466]",11.733433509789462,-11.733433509789464,0,1,1,0.5336795570022574,1.5336795570022574,1.4663204429977426,3.0,1,1.2836795570022574,0,4.0,3.0,1,2,6,0,6,0,0,4,4,7,,,,,,,430.60298412500003,430.60298412500003,431.60354512499987,431.8893247499999,432.13685562500007,432.13685562500007,432.13685562500007,433.6035558340001,433.6035558340001,433.6035558340001,433.6035558340001,434.603125667,200007,003,2023-04-11_09h09.34.809,DMS_et_12-36,2022.2.4,None,
56,PRED,12,0.5336795570022574,1,images/picture_2.png,images/picture_1.png,0,"[-11.733433509789462, 11.733433509789464]",-11.733433509789462,11.733433509789464,images/picture_2.png,1,"[11.733433509789462, -11.733433509789466]",11.733433509789462,-11.733433509789464,images/picture_3.png,2,"[-11.733433509789466, -11.733433509789462]",-11.733433509789464,-11.733433509789462,0,1,1,0.5336795570022574,1.5336795570022574,1.4663204429977426,3.0,1,1.2836795570022574,0,4.0,3.0,1,2,6,0,6,0,0,5,5,2,,,,,,,434.603125667,434.603125667,435.60356616699994,435.889922167,436.136844667,436.136844667,436.136844667,437.60363075,437.60363075,437.60363075,437.60363075,438.6029286249999,200007,003,2023-04-11_09h09.34.809,DMS_et_12-36,2022.2.4,None,
60,PRED,12,0.5336795570022574,1,images/picture_2.png,images/picture_1.png,0,"[11.733433509789462, -11.733433509789466]",11.733433509789462,-11.733433509789464,images/picture_2.png,1,"[-11.733433509789462, 11.733433509789464]",-11.733433509789462,11.733433509789464,images/picture_3.png,2,"[-11.733433509789466, -11.733433509789462]",-11.733433509789464,-11.733433509789462,0,1,1,0.5336795570022574,1.5336795570022574,1.4663204429977426,3.0,1,1.2836795570022574,0,4.0,3.0,1,2,6,0,6,0,0,6,6,6,,,,,,,438.6029286249999,438.6029286249999,439.60367458400003,439.88923354199994,440.136829875,440.136829875,440.136829875,441.60362908399986,441.60362908399986,441.60362908399986,441.60362908399986,442.603032334,200007,003,2023-04-11_09h09.34.809,DMS_et_12-36,2022.2.4,None,
54,PRED,12,0.5336795570022574,1,images/picture_2.png,images/picture_1.png,0,"[-11.733433509789466, -11.733433509789462]",-11.733433509789464,-11.733433509789462,images/picture_2.png,1,"[11.733433509789462, -11.733433509789466]",11.733433509789462,-11.733433509789464,images/picture_3.png,2,"[-11.733433509789462, 11.733433509789464]",-11.733433509789462,11.733433509789464,0,1,1,0.5336795570022574,1.5336795570022574,1.4663204429977426,3.0,1,1.2836795570022574,0,4.0,3.0,1,2,6,0,6,0,0,7,7,0,,,,,,,442.603032334,442.603032334,443.6037091669999,443.88928154200005,444.1365716249999,444.1365716249999,444.1365716249999,445.60361454199995,445.60361454199995,445.60361454199995,445.60361454199995,446.6029412500001,200007,003,2023-04-11_09h09.34.809,DMS_et_12-36,2022.2.4,None,
58,PRED,12,0.5336795570022574,1,images/picture_2.png,images/picture_1.png,0,"[-11.733433509789466, -11.733433509789462]",-11.733433509789464,-11.733433509789462,images/picture_2.png,1,"[11.733433509789464, 11.733433509789462]",11.733433509789464,11.733433509789462,images/picture_3.png,2,"[11.733433509789462, -11.733433509789466]",11.733433509789462,-11.733433509789464,0,1,1,0.5336795570022574,1.5336795570022574,1.4663204429977426,3.0,1,1.2836795570022574,0,4.0,3.0,1,2,6,0,6,0,0,8,8,4,,,,,,,446.6029412500001,446.6029412500001,447.6035922919999,447.88957112499986,448.13702287500007,448.13702287500007,448.13702287500007,449.60396245899994,449.60396245899994,449.60396245899994,449.60396245899994,450.680857209,200007,003,2023-04-11_09h09.34.809,DMS_et_12-36,2022.2.4,None,
,,,,,,,,,,,,,,,,,,,,,,,,,,,,,,,,,,,6,0,6,0,,,,,,,,,450.680857209,462.70568991699986,,,,,,,,,,,,,200007,003,2023-04-11_09h09.34.809,DMS_et_12-36,2022.2.4,None,
70,UNPRED,12,0.5336795570022574,1,images/picture_2.png,images/picture_1.png,0,"[-11.733433509789462, 11.733433509789464]",-11.733433509789462,11.733433509789464,images/picture_2.png,1,"[11.733433509789462, -11.733433509789466]",11.733433509789462,-11.733433509789464,images/picture_3.png,2,"[-11.733433509789466, -11.733433509789462]",-11.733433509789464,-11.733433509789462,0,1,1,0.5336795570022574,1.5336795570022574,1.4663204429977426,3.0,1,1.2836795570022574,0,4.0,3.0,1,2,7,0,7,0,0,0,0,7,,,,,,,462.70568991699986,462.70568991699986,463.703549209,464.00368108400005,464.2370213339999,464.2370213339999,464.2370213339999,465.703424834,465.703424834,465.703424834,465.703424834,466.7033245839999,200007,003,2023-04-11_09h09.34.809,DMS_et_12-36,2022.2.4,None,
71,UNPRED,12,0.5336795570022574,1,images/picture_2.png,images/picture_1.png,0,"[-11.733433509789466, -11.733433509789462]",-11.733433509789464,-11.733433509789462,images/picture_2.png,1,"[11.733433509789464, 11.733433509789462]",11.733433509789464,11.733433509789462,images/picture_3.png,2,"[11.733433509789462, -11.733433509789466]",11.733433509789462,-11.733433509789464,0,1,1,0.5336795570022574,1.5336795570022574,1.4663204429977426,3.0,1,1.2836795570022574,0,4.0,3.0,1,2,7,0,7,0,0,1,1,8,,,,,,,466.7033245839999,466.7033245839999,467.70363199999986,467.98961841699986,468.236852417,468.236852417,468.236852417,469.70364604200006,469.70364604200006,469.70364604200006,469.70364604200006,470.722153584,200007,003,2023-04-11_09h09.34.809,DMS_et_12-36,2022.2.4,None,
68,UNPRED,12,0.5336795570022574,2,images/picture_3.png,images/picture_1.png,0,"[-11.733433509789466, -11.733433509789462]",-11.733433509789464,-11.733433509789462,images/picture_2.png,1,"[11.733433509789462, -11.733433509789466]",11.733433509789462,-11.733433509789464,images/picture_3.png,2,"[-11.733433509789462, 11.733433509789464]",-11.733433509789462,11.733433509789464,0,1,1,0.5336795570022574,1.5336795570022574,1.4663204429977426,3.0,1,1.2836795570022574,0,4.0,3.0,1,2,7,0,7,0,0,2,2,5,,,,,,,470.722153584,470.722153584,471.73688325,472.00359516700007,472.23707783399993,472.23707783399993,472.23707783399993,473.70361108400004,473.70361108400004,473.70361108400004,473.70361108400004,474.70377266699995,200007,003,2023-04-11_09h09.34.809,DMS_et_12-36,2022.2.4,None,
63,UNPRED,12,0.5336795570022574,1,images/picture_2.png,images/picture_1.png,0,"[-11.733433509789466, -11.733433509789462]",-11.733433509789464,-11.733433509789462,images/picture_2.png,1,"[11.733433509789462, -11.733433509789466]",11.733433509789462,-11.733433509789464,images/picture_3.png,2,"[-11.733433509789462, 11.733433509789464]",-11.733433509789462,11.733433509789464,0,1,1,0.5336795570022574,1.5336795570022574,1.4663204429977426,3.0,1,1.2836795570022574,0,4.0,3.0,1,2,7,0,7,0,0,3,3,0,,,,,,,474.70377266699995,474.70377266699995,475.7034058339999,475.988921042,476.23687129200005,476.23687129200005,476.23687129200005,477.7035777919999,477.7035777919999,477.7035777919999,477.7035777919999,478.722344875,200007,003,2023-04-11_09h09.34.809,DMS_et_12-36,2022.2.4,None,
65,UNPRED,12,0.5336795570022574,2,images/picture_3.png,images/picture_1.png,0,"[11.733433509789462, -11.733433509789466]",11.733433509789462,-11.733433509789464,images/picture_2.png,1,"[11.733433509789464, 11.733433509789462]",11.733433509789464,11.733433509789462,images/picture_3.png,2,"[-11.733433509789462, 11.733433509789464]",-11.733433509789462,11.733433509789464,0,1,1,0.5336795570022574,1.5336795570022574,1.4663204429977426,3.0,1,1.2836795570022574,0,4.0,3.0,1,2,7,0,7,0,0,4,4,2,,,,,,,478.722344875,478.722344875,479.7371004999999,480.0035751669999,480.236861,480.236861,480.236861,481.7036422089999,481.7036422089999,481.7036422089999,481.7036422089999,482.70301845899996,200007,003,2023-04-11_09h09.34.809,DMS_et_12-36,2022.2.4,None,
66,UNPRED,12,0.5336795570022574,1,images/picture_2.png,images/picture_1.png,0,"[-11.733433509789462, 11.733433509789464]",-11.733433509789462,11.733433509789464,images/picture_2.png,1,"[11.733433509789462, -11.733433509789466]",11.733433509789462,-11.733433509789464,images/picture_3.png,2,"[-11.733433509789466, -11.733433509789462]",-11.733433509789464,-11.733433509789462,0,1,1,0.5336795570022574,1.5336795570022574,1.4663204429977426,3.0,1,1.2836795570022574,0,4.0,3.0,1,2,7,0,7,0,0,5,5,3,,,,,,,482.70301845899996,482.70301845899996,483.703661292,483.989678584,484.237053792,484.237053792,484.237053792,485.70357054199997,485.70357054199997,485.70357054199997,485.70357054199997,486.703077709,200007,003,2023-04-11_09h09.34.809,DMS_et_12-36,2022.2.4,None,
67,UNPRED,12,0.5336795570022574,1,images/picture_2.png,images/picture_1.png,0,"[11.733433509789462, -11.733433509789466]",11.733433509789462,-11.733433509789464,images/picture_2.png,1,"[11.733433509789464, 11.733433509789462]",11.733433509789464,11.733433509789462,images/picture_3.png,2,"[-11.733433509789466, -11.733433509789462]",-11.733433509789464,-11.733433509789462,0,1,1,0.5336795570022574,1.5336795570022574,1.4663204429977426,3.0,1,1.2836795570022574,0,4.0,3.0,1,2,7,0,7,0,0,6,6,4,,,,,,,486.703077709,486.703077709,487.703620375,487.9895418340001,488.23696366699994,488.23696366699994,488.23696366699994,489.7035952499999,489.7035952499999,489.7035952499999,489.7035952499999,490.7031257919999,200007,003,2023-04-11_09h09.34.809,DMS_et_12-36,2022.2.4,None,
69,UNPRED,12,0.5336795570022574,0,images/picture_1.png,images/picture_1.png,0,"[11.733433509789464, 11.733433509789462]",11.733433509789464,11.733433509789462,images/picture_2.png,1,"[-11.733433509789462, 11.733433509789464]",-11.733433509789462,11.733433509789464,images/picture_3.png,2,"[11.733433509789462, -11.733433509789466]",11.733433509789462,-11.733433509789464,0,1,1,0.5336795570022574,1.5336795570022574,1.4663204429977426,3.0,1,1.2836795570022574,0,4.0,3.0,1,2,7,0,7,0,0,7,7,6,,,,,,,490.7031257919999,490.7031257919999,491.70358324999995,491.989524125,492.237073917,492.237073917,492.237073917,493.7034889170001,493.7034889170001,493.7034889170001,493.7034889170001,494.70298274999993,200007,003,2023-04-11_09h09.34.809,DMS_et_12-36,2022.2.4,None,
64,UNPRED,12,0.5336795570022574,1,images/picture_2.png,images/picture_1.png,0,"[-11.733433509789462, 11.733433509789464]",-11.733433509789462,11.733433509789464,images/picture_2.png,1,"[11.733433509789464, 11.733433509789462]",11.733433509789464,11.733433509789462,images/picture_3.png,2,"[11.733433509789462, -11.733433509789466]",11.733433509789462,-11.733433509789464,0,1,1,0.5336795570022574,1.5336795570022574,1.4663204429977426,3.0,1,1.2836795570022574,0,4.0,3.0,1,2,7,0,7,0,0,8,8,1,,,,,,,494.70298274999993,494.70298274999993,495.7034031669999,495.9890624169999,496.23658083399994,496.23658083399994,496.23658083399994,497.7035435419999,497.7035435419999,497.7035435419999,497.7035435419999,498.789363709,200007,003,2023-04-11_09h09.34.809,DMS_et_12-36,2022.2.4,None,
,,,,,,,,,,,,,,,,,,,,,,,,,,,,,,,,,,,7,0,7,0,,,,,,,,,498.789363709,510.833159917,,,,,,,,,,,,,200007,003,2023-04-11_09h09.34.809,DMS_et_12-36,2022.2.4,None,
75,PRED,12,0.5336795570022574,2,images/picture_3.png,images/picture_1.png,0,"[11.733433509789462, -11.733433509789466]",11.733433509789462,-11.733433509789464,images/picture_2.png,1,"[11.733433509789464, 11.733433509789462]",11.733433509789464,11.733433509789462,images/picture_3.png,2,"[-11.733433509789462, 11.733433509789464]",-11.733433509789462,11.733433509789464,0,1,1,0.5336795570022574,1.5336795570022574,1.4663204429977426,3.0,1,1.2836795570022574,0,4.0,3.0,1,2,8,0,8,0,0,0,0,3,,,,,,,510.833159917,510.833159917,511.83707674999994,512.1232773749999,512.356099917,512.356099917,512.356099917,513.837019792,513.837019792,513.837019792,513.8228465839999,514.8556252089999,200007,003,2023-04-11_09h09.34.809,DMS_et_12-36,2022.2.4,None,
72,PRED,12,0.5336795570022574,2,images/picture_3.png,images/picture_1.png,0,"[-11.733433509789466, -11.733433509789462]",-11.733433509789464,-11.733433509789462,images/picture_2.png,1,"[11.733433509789464, 11.733433509789462]",11.733433509789464,11.733433509789462,images/picture_3.png,2,"[11.733433509789462, -11.733433509789466]",11.733433509789462,-11.733433509789464,0,1,1,0.5336795570022574,1.5336795570022574,1.4663204429977426,3.0,1,1.2836795570022574,0,4.0,3.0,1,2,8,0,8,0,0,1,1,0,,,,,,,514.8556252089999,514.8556252089999,515.8701339999999,516.136674084,516.370041792,516.370041792,516.370041792,517.8370711669999,517.8370711669999,517.8370711669999,517.8370711669999,518.8556957499999,200007,003,2023-04-11_09h09.34.809,DMS_et_12-36,2022.2.4,None,
76,PRED,12,0.5336795570022574,2,images/picture_3.png,images/picture_1.png,0,"[-11.733433509789466, -11.733433509789462]",-11.733433509789464,-11.733433509789462,images/picture_2.png,1,"[11.733433509789462, -11.733433509789466]",11.733433509789462,-11.733433509789464,images/picture_3.png,2,"[-11.733433509789462, 11.733433509789464]",-11.733433509789462,11.733433509789464,0,1,1,0.5336795570022574,1.5336795570022574,1.4663204429977426,3.0,1,1.2836795570022574,0,4.0,3.0,1,2,8,0,8,0,0,2,2,4,,,,,,,518.8556957499999,518.8556957499999,519.8704115419999,520.1370258339999,520.370330375,520.370330375,520.370330375,521.8368563749999,521.8368563749999,521.8368563749999,521.8368563749999,522.8555680000001,200007,003,2023-04-11_09h09.34.809,DMS_et_12-36,2022.2.4,None,
78,PRED,12,0.5336795570022574,2,images/picture_3.png,images/picture_1.png,0,"[11.733433509789462, -11.733433509789466]",11.733433509789462,-11.733433509789464,images/picture_2.png,1,"[11.733433509789464, 11.733433509789462]",11.733433509789464,11.733433509789462,images/picture_3.png,2,"[-11.733433509789462, 11.733433509789464]",-11.733433509789462,11.733433509789464,0,1,1,0.5336795570022574,1.5336795570022574,1.4663204429977426,3.0,1,1.2836795570022574,0,4.0,3.0,1,2,8,0,8,0,0,3,3,6,,,,,,,522.8555680000001,522.8555680000001,523.8702064589999,524.13687275,524.3703387090001,524.3703387090001,524.3703387090001,525.837023917,525.837023917,525.837023917,525.837023917,526.8373747090001,200007,003,2023-04-11_09h09.34.809,DMS_et_12-36,2022.2.4,None,
79,PRED,12,0.5336795570022574,2,images/picture_3.png,images/picture_1.png,0,"[-11.733433509789462, 11.733433509789464]",-11.733433509789462,11.733433509789464,images/picture_2.png,1,"[11.733433509789464, 11.733433509789462]",11.733433509789464,11.733433509789462,images/picture_3.png,2,"[-11.733433509789466, -11.733433509789462]",-11.733433509789464,-11.733433509789462,0,1,1,0.5336795570022574,1.5336795570022574,1.4663204429977426,3.0,1,1.2836795570022574,0,4.0,3.0,1,2,8,0,8,0,0,4,4,7,,,,,,,526.8373747090001,526.8373747090001,527.836874084,528.122860459,528.370409584,528.370409584,528.370409584,529.837316792,529.837316792,529.837316792,529.837316792,530.8556275,200007,003,2023-04-11_09h09.34.809,DMS_et_12-36,2022.2.4,None,
77,PRED,12,0.5336795570022574,2,images/picture_3.png,images/picture_1.png,0,"[-11.733433509789462, 11.733433509789464]",-11.733433509789462,11.733433509789464,images/picture_2.png,1,"[11.733433509789462, -11.733433509789466]",11.733433509789462,-11.733433509789464,images/picture_3.png,2,"[-11.733433509789466, -11.733433509789462]",-11.733433509789464,-11.733433509789462,0,1,1,0.5336795570022574,1.5336795570022574,1.4663204429977426,3.0,1,1.2836795570022574,0,4.0,3.0,1,2,8,0,8,0,0,5,5,5,,,,,,,530.8556275,530.8556275,531.870392084,532.137079209,532.3703629170001,532.3703629170001,532.3703629170001,533.837070792,533.837070792,533.837070792,533.837070792,534.855919875,200007,003,2023-04-11_09h09.34.809,DMS_et_12-36,2022.2.4,None,
74,PRED,12,0.5336795570022574,2,images/picture_3.png,images/picture_1.png,0,"[-11.733433509789466, -11.733433509789462]",-11.733433509789464,-11.733433509789462,images/picture_2.png,1,"[11.733433509789462, -11.733433509789466]",11.733433509789462,-11.733433509789464,images/picture_3.png,2,"[-11.733433509789462, 11.733433509789464]",-11.733433509789462,11.733433509789464,0,1,1,0.5336795570022574,1.5336795570022574,1.4663204429977426,3.0,1,1.2836795570022574,0,4.0,3.0,1,2,8,0,8,0,0,6,6,2,,,,,,,534.855919875,534.855919875,535.8703462919999,536.137072959,536.3704677089999,536.3704677089999,536.3704677089999,537.8371101249999,537.8371101249999,537.8371101249999,537.8371101249999,538.856314125,200007,003,2023-04-11_09h09.34.809,DMS_et_12-36,2022.2.4,None,
73,PRED,12,0.5336795570022574,2,images/picture_3.png,images/picture_1.png,0,"[-11.733433509789466, -11.733433509789462]",-11.733433509789464,-11.733433509789462,images/picture_2.png,1,"[11.733433509789462, -11.733433509789466]",11.733433509789462,-11.733433509789464,images/picture_3.png,2,"[-11.733433509789462, 11.733433509789464]",-11.733433509789462,11.733433509789464,0,1,1,0.5336795570022574,1.5336795570022574,1.4663204429977426,3.0,1,1.2836795570022574,0,4.0,3.0,1,2,8,0,8,0,0,7,7,1,,,,,,,538.856314125,538.856314125,539.8703400420001,540.1370693339999,540.370312417,540.370312417,540.370312417,541.8370806249999,541.8370806249999,541.8370806249999,541.8370806249999,542.8554968340001,200007,003,2023-04-11_09h09.34.809,DMS_et_12-36,2022.2.4,None,
80,PRED,12,0.5336795570022574,2,images/picture_3.png,images/picture_1.png,0,"[11.733433509789462, -11.733433509789466]",11.733433509789462,-11.733433509789464,images/picture_2.png,1,"[-11.733433509789462, 11.733433509789464]",-11.733433509789462,11.733433509789464,images/picture_3.png,2,"[11.733433509789464, 11.733433509789462]",11.733433509789464,11.733433509789462,0,1,1,0.5336795570022574,1.5336795570022574,1.4663204429977426,3.0,1,1.2836795570022574,0,4.0,3.0,1,2,8,0,8,0,0,8,8,8,,,,,,,542.8554968340001,542.8554968340001,543.870200959,544.137095875,544.3702724589999,544.3702724589999,544.3702724589999,545.8371398749999,545.8371398749999,545.8371398749999,545.8371398749999,546.9143358339999,200007,003,2023-04-11_09h09.34.809,DMS_et_12-36,2022.2.4,None,
,,,,,,,,,,,,,,,,,,,,,,,,,,,,,,,,,,,8,0,8,0,,,,,,,,,546.9143358339999,558.9436044589999,,,,,,,,,,,,,200007,003,2023-04-11_09h09.34.809,DMS_et_12-36,2022.2.4,None,
88,UNPRED,12,0.5336795570022574,0,images/picture_1.png,images/picture_1.png,0,"[-11.733433509789462, 11.733433509789464]",-11.733433509789462,11.733433509789464,images/picture_2.png,1,"[11.733433509789462, -11.733433509789466]",11.733433509789462,-11.733433509789464,images/picture_3.png,2,"[11.733433509789464, 11.733433509789462]",11.733433509789464,11.733433509789462,0,1,1,0.5336795570022574,1.5336795570022574,1.4663204429977426,3.0,1,1.2836795570022574,0,4.0,3.0,1,2,9,0,9,0,0,0,0,7,,,,,,,558.9436044589999,558.9436044589999,559.9565975419999,560.2370432920001,560.470536375,560.470536375,560.470536375,561.937081167,561.937081167,561.937081167,561.937081167,562.9561622919999,200007,003,2023-04-11_09h09.34.809,DMS_et_12-36,2022.2.4,None,
82,UNPRED,12,0.5336795570022574,2,images/picture_3.png,images/picture_1.png,0,"[-11.733433509789462, 11.733433509789464]",-11.733433509789462,11.733433509789464,images/picture_2.png,1,"[-11.733433509789466, -11.733433509789462]",-11.733433509789464,-11.733433509789462,images/picture_3.png,2,"[11.733433509789464, 11.733433509789462]",11.733433509789464,11.733433509789462,0,1,1,0.5336795570022574,1.5336795570022574,1.4663204429977426,3.0,1,1.2836795570022574,0,4.0,3.0,1,2,9,0,9,0,0,1,1,1,,,,,,,562.9561622919999,562.9561622919999,563.970048,564.237087542,564.4704263749999,564.4704263749999,564.4704263749999,565.937110125,565.937110125,565.937110125,565.937110125,566.937549334,200007,003,2023-04-11_09h09.34.809,DMS_et_12-36,2022.2.4,None,
83,UNPRED,12,0.5336795570022574,1,images/picture_2.png,images/picture_1.png,0,"[-11.733433509789466, -11.733433509789462]",-11.733433509789464,-11.733433509789462,images/picture_2.png,1,"[-11.733433509789462, 11.733433509789464]",-11.733433509789462,11.733433509789464,images/picture_3.png,2,"[11.733433509789462, -11.733433509789466]",11.733433509789462,-11.733433509789464,0,1,1,0.5336795570022574,1.5336795570022574,1.4663204429977426,3.0,1,1.2836795570022574,0,4.0,3.0,1,2,9,0,9,0,0,2,2,2,,,,,,,566.937549334,566.937549334,567.9367217089999,568.236919417,568.4701847499999,568.4701847499999,568.4701847499999,569.937054292,569.937054292,569.937054292,569.937054292,570.9557046250001,200007,003,2023-04-11_09h09.34.809,DMS_et_12-36,2022.2.4,None,
85,UNPRED,12,0.5336795570022574,2,images/picture_3.png,images/picture_1.png,0,"[11.733433509789464, 11.733433509789462]",11.733433509789464,11.733433509789462,images/picture_2.png,1,"[11.733433509789462, -11.733433509789466]",11.733433509789462,-11.733433509789464,images/picture_3.png,2,"[-11.733433509789466, -11.733433509789462]",-11.733433509789464,-11.733433509789462,0,1,1,0.5336795570022574,1.5336795570022574,1.4663204429977426,3.0,1,1.2836795570022574,0,4.0,3.0,1,2,9,0,9,0,0,3,3,4,,,,,,,570.9557046250001,570.9557046250001,571.9703365839999,572.237098334,572.4704264169999,572.4704264169999,572.4704264169999,573.937074625,573.937074625,573.937074625,573.937074625,574.955784875,200007,003,2023-04-11_09h09.34.809,DMS_et_12-36,2022.2.4,None,
87,UNPRED,12,0.5336795570022574,2,images/picture_3.png,images/picture_1.png,0,"[-11.733433509789466, -11.733433509789462]",-11.733433509789464,-11.733433509789462,images/picture_2.png,1,"[11.733433509789464, 11.733433509789462]",11.733433509789464,11.733433509789462,images/picture_3.png,2,"[-11.733433509789462, 11.733433509789464]",-11.733433509789462,11.733433509789464,0,1,1,0.5336795570022574,1.5336795570022574,1.4663204429977426,3.0,1,1.2836795570022574,0,4.0,3.0,1,2,9,0,9,0,0,4,4,6,,,,,,,574.955784875,574.955784875,575.9703315,576.2371322089999,576.470368209,576.470368209,576.470368209,577.936749459,577.936749459,577.936749459,577.936749459,578.9370380839999,200007,003,2023-04-11_09h09.34.809,DMS_et_12-36,2022.2.4,None,
89,UNPRED,12,0.5336795570022574,1,images/picture_2.png,images/picture_1.png,0,"[-11.733433509789462, 11.733433509789464]",-11.733433509789462,11.733433509789464,images/picture_2.png,1,"[11.733433509789464, 11.733433509789462]",11.733433509789464,11.733433509789462,images/picture_3.png,2,"[11.733433509789462, -11.733433509789466]",11.733433509789462,-11.733433509789464,0,1,1,0.5336795570022574,1.5336795570022574,1.4663204429977426,3.0,1,1.2836795570022574,0,4.0,3.0,1,2,9,0,9,0,0,5,5,8,,,,,,,578.9370380839999,578.9370380839999,579.937148292,580.2228495,580.4703759590001,580.4703759590001,580.4703759590001,581.9371015,581.9371015,581.9371015,581.9371015,582.936524417,200007,003,2023-04-11_09h09.34.809,DMS_et_12-36,2022.2.4,None,
84,UNPRED,12,0.5336795570022574,0,images/picture_1.png,images/picture_1.png,0,"[11.733433509789462, -11.733433509789466]",11.733433509789462,-11.733433509789464,images/picture_2.png,1,"[-11.733433509789462, 11.733433509789464]",-11.733433509789462,11.733433509789464,images/picture_3.png,2,"[11.733433509789464, 11.733433509789462]",11.733433509789464,11.733433509789462,0,1,1,0.5336795570022574,1.5336795570022574,1.4663204429977426,3.0,1,1.2836795570022574,0,4.0,3.0,1,2,9,0,9,0,0,6,6,3,,,,,,,582.936524417,582.936524417,583.9371206669999,584.222892417,584.4704128750001,584.4704128750001,584.4704128750001,585.937168459,585.937168459,585.937168459,585.937168459,586.9365609170001,200007,003,2023-04-11_09h09.34.809,DMS_et_12-36,2022.2.4,None,
86,UNPRED,12,0.5336795570022574,0,images/picture_1.png,images/picture_1.png,0,"[-11.733433509789466, -11.733433509789462]",-11.733433509789464,-11.733433509789462,images/picture_2.png,1,"[11.733433509789464, 11.733433509789462]",11.733433509789464,11.733433509789462,images/picture_3.png,2,"[-11.733433509789462, 11.733433509789464]",-11.733433509789462,11.733433509789464,0,1,1,0.5336795570022574,1.5336795570022574,1.4663204429977426,3.0,1,1.2836795570022574,0,4.0,3.0,1,2,9,0,9,0,0,7,7,5,,,,,,,586.9365609170001,586.9365609170001,587.9367034589999,588.2222727919999,588.4701314170001,588.4701314170001,588.4701314170001,589.9370680839999,589.9370680839999,589.9370680839999,589.9370680839999,590.935999834,200007,003,2023-04-11_09h09.34.809,DMS_et_12-36,2022.2.4,None,
81,UNPRED,12,0.5336795570022574,1,images/picture_2.png,images/picture_1.png,0,"[11.733433509789462, -11.733433509789466]",11.733433509789462,-11.733433509789464,images/picture_2.png,1,"[-11.733433509789466, -11.733433509789462]",-11.733433509789464,-11.733433509789462,images/picture_3.png,2,"[11.733433509789464, 11.733433509789462]",11.733433509789464,11.733433509789462,0,1,1,0.5336795570022574,1.5336795570022574,1.4663204429977426,3.0,1,1.2836795570022574,0,4.0,3.0,1,2,9,0,9,0,0,8,8,0,,,,,,,590.935999834,590.935999834,591.9370700839999,592.2227875,592.47039125,592.47039125,592.47039125,593.9371166669999,593.9371166669999,593.9371166669999,593.9371166669999,595.043839584,200007,003,2023-04-11_09h09.34.809,DMS_et_12-36,2022.2.4,None,
,,,,,,,,,,,,,,,,,,,,,,,,,,,,,,,,,,,9,0,9,0,,,,,,,,,595.043839584,607.0751859169999,,,,,,,,,,,,,200007,003,2023-04-11_09h09.34.809,DMS_et_12-36,2022.2.4,None,
94,PRED,12,0.5336795570022574,0,images/picture_1.png,images/picture_1.png,0,"[11.733433509789464, 11.733433509789462]",11.733433509789464,11.733433509789462,images/picture_2.png,1,"[-11.733433509789462, 11.733433509789464]",-11.733433509789462,11.733433509789464,images/picture_3.png,2,"[11.733433509789462, -11.733433509789466]",11.733433509789462,-11.733433509789464,0,1,1,0.5336795570022574,1.5336795570022574,1.4663204429977426,3.0,1,1.2836795570022574,0,4.0,3.0,1,2,10,0,10,0,0,0,0,4,,,,,,,607.0751859169999,607.0751859169999,608.0898533339999,608.3704753339999,608.603566375,608.603566375,608.603566375,610.0703207089999,610.0703207089999,610.0703207089999,610.0703207089999,611.0700317499999,200007,003,2023-04-11_09h09.34.809,DMS_et_12-36,2022.2.4,None,
97,PRED,12,0.5336795570022574,0,images/picture_1.png,images/picture_1.png,0,"[-11.733433509789462, 11.733433509789464]",-11.733433509789462,11.733433509789464,images/picture_2.png,1,"[-11.733433509789466, -11.733433509789462]",-11.733433509789464,-11.733433509789462,images/picture_3.png,2,"[11.733433509789462, -11.733433509789466]",11.733433509789462,-11.733433509789464,0,1,1,0.5336795570022574,1.5336795570022574,1.4663204429977426,3.0,1,1.2836795570022574,0,4.0,3.0,1,2,10,0,10,0,0,1,1,7,,,,,,,611.0700317499999,611.0700317499999,612.0705537089999,612.356507417,612.6037992089999,612.6037992089999,612.6037992089999,614.070535125,614.070535125,614.070535125,614.070535125,615.07016975,200007,003,2023-04-11_09h09.34.809,DMS_et_12-36,2022.2.4,None,
93,PRED,12,0.5336795570022574,0,images/picture_1.png,images/picture_1.png,0,"[-11.733433509789462, 11.733433509789464]",-11.733433509789462,11.733433509789464,images/picture_2.png,1,"[-11.733433509789466, -11.733433509789462]",-11.733433509789464,-11.733433509789462,images/picture_3.png,2,"[11.733433509789464, 11.733433509789462]",11.733433509789464,11.733433509789462,0,1,1,0.5336795570022574,1.5336795570022574,1.4663204429977426,3.0,1,1.2836795570022574,0,4.0,3.0,1,2,10,0,10,0,0,2,2,3,,,,,,,615.07016975,615.07016975,616.07035575,616.3564210839999,616.6040655,616.6040655,616.6040655,618.0705415839999,618.0705415839999,618.0705415839999,618.0705415839999,619.0701477920001,200007,003,2023-04-11_09h09.34.809,DMS_et_12-36,2022.2.4,None,
91,PRED,12,0.5336795570022574,0,images/picture_1.png,images/picture_1.png,0,"[-11.733433509789466, -11.733433509789462]",-11.733433509789464,-11.733433509789462,images/picture_2.png,1,"[11.733433509789462, -11.733433509789466]",11.733433509789462,-11.733433509789464,images/picture_3.png,2,"[-11.733433509789462, 11.733433509789464]",-11.733433509789462,11.733433509789464,0,1,1,0.5336795570022574,1.5336795570022574,1.4663204429977426,3.0,1,1.2836795570022574,0,4.0,3.0,1,2,10,0,10,0,0,3,3,1,,,,,,,619.0701477920001,619.0701477920001,620.070509709,620.3565190840001,620.6038783749999,620.6038783749999,620.6038783749999,622.070403625,622.070403625,622.070403625,622.070403625,623.070207959,200007,003,2023-04-11_09h09.34.809,DMS_et_12-36,2022.2.4,None,
98,PRED,12,0.5336795570022574,0,images/picture_1.png,images/picture_1.png,0,"[11.733433509789462, -11.733433509789466]",11.733433509789462,-11.733433509789464,images/picture_2.png,1,"[-11.733433509789466, -11.733433509789462]",-11.733433509789464,-11.733433509789462,images/picture_3.png,2,"[-11.733433509789462, 11.733433509789464]",-11.733433509789462,11.733433509789464,0,1,1,0.5336795570022574,1.5336795570022574,1.4663204429977426,3.0,1,1.2836795570022574,0,4.0,3.0,1,2,10,0,10,0,0,4,4,8,,,,,,,623.070207959,623.070207959,624.0704830419999,624.3563882919999,624.603884792,624.603884792,624.603884792,626.070731959,626.070731959,626.070731959,626.070731959,627.0699129169999,200007,003,2023-04-11_09h09.34.809,DMS_et_12-36,2022.2.4,None,
90,PRED,12,0.5336795570022574,0,images/picture_1.png,images/picture_1.png,0,"[11.733433509789462, -11.733433509789466]",11.733433509789462,-11.733433509789464,images/picture_2.png,1,"[-11.733433509789466, -11.733433509789462]",-11.733433509789464,-11.733433509789462,images/picture_3.png,2,"[-11.733433509789462, 11.733433509789464]",-11.733433509789462,11.733433509789464,0,1,1,0.5336795570022574,1.5336795570022574,1.4663204429977426,3.0,1,1.2836795570022574,0,4.0,3.0,1,2,10,0,10,0,0,5,5,0,,,,,,,627.0699129169999,627.0699129169999,628.0703701250001,628.3564829169999,628.6038130420001,628.6038130420001,628.6038130420001,630.070625959,630.070625959,630.070625959,630.070625959,631.069943584,200007,003,2023-04-11_09h09.34.809,DMS_et_12-36,2022.2.4,None,
96,PRED,12,0.5336795570022574,0,images/picture_1.png,images/picture_1.png,0,"[11.733433509789462, -11.733433509789466]",11.733433509789462,-11.733433509789464,images/picture_2.png,1,"[11.733433509789464, 11.733433509789462]",11.733433509789464,11.733433509789462,images/picture_3.png,2,"[-11.733433509789466, -11.733433509789462]",-11.733433509789464,-11.733433509789462,0,1,1,0.5336795570022574,1.5336795570022574,1.4663204429977426,3.0,1,1.2836795570022574,0,4.0,3.0,1,2,10,0,10,0,0,6,6,6,,,,,,,631.069943584,631.069943584,632.070533292,632.35643075,632.6039763339999,632.6039763339999,632.6039763339999,634.070562709,634.070562709,634.070562709,634.070562709,635.0703239589999,200007,003,2023-04-11_09h09.34.809,DMS_et_12-36,2022.2.4,None,
95,PRED,12,0.5336795570022574,0,images/picture_1.png,images/picture_1.png,0,"[-11.733433509789466, -11.733433509789462]",-11.733433509789464,-11.733433509789462,images/picture_2.png,1,"[11.733433509789464, 11.733433509789462]",11.733433509789464,11.733433509789462,images/picture_3.png,2,"[-11.733433509789462, 11.733433509789464]",-11.733433509789462,11.733433509789464,0,1,1,0.5336795570022574,1.5336795570022574,1.4663204429977426,3.0,1,1.2836795570022574,0,4.0,3.0,1,2,10,0,10,0,0,7,7,5,,,,,,,635.0703239589999,635.0703239589999,636.070432375,636.3563084589999,636.603842292,636.603842292,636.603842292,638.070538542,638.070538542,638.070538542,638.070538542,639.070201959,200007,003,2023-04-11_09h09.34.809,DMS_et_12-36,2022.2.4,None,
92,PRED,12,0.5336795570022574,0,images/picture_1.png,images/picture_1.png,0,"[11.733433509789462, -11.733433509789466]",11.733433509789462,-11.733433509789464,images/picture_2.png,1,"[-11.733433509789462, 11.733433509789464]",-11.733433509789462,11.733433509789464,images/picture_3.png,2,"[11.733433509789464, 11.733433509789462]",11.733433509789464,11.733433509789462,0,1,1,0.5336795570022574,1.5336795570022574,1.4663204429977426,3.0,1,1.2836795570022574,0,4.0,3.0,1,2,10,0,10,0,0,8,8,2,,,,,,,639.070201959,639.070201959,640.0703475419999,640.356277,640.603808,640.603808,640.603808,642.0705739169999,642.0705739169999,642.0705739169999,642.0705739169999,643.1812683750001,200007,003,2023-04-11_09h09.34.809,DMS_et_12-36,2022.2.4,None,
,,,,,,,,,,,,,,,,,,,,,,,,,,,,,,,,,,,10,0,10,0,,,,,,,,,643.1812683750001,655.218757209,,,,,,,,,,,,,200007,003,2023-04-11_09h09.34.809,DMS_et_12-36,2022.2.4,None,
99,UNPRED,12,0.5336795570022574,2,images/picture_3.png,images/picture_1.png,0,"[11.733433509789464, 11.733433509789462]",11.733433509789464,11.733433509789462,images/picture_2.png,1,"[-11.733433509789462, 11.733433509789464]",-11.733433509789462,11.733433509789464,images/picture_3.png,2,"[-11.733433509789466, -11.733433509789462]",-11.733433509789464,-11.733433509789462,0,1,1,0.5336795570022574,1.5336795570022574,1.4663204429977426,3.0,1,1.2836795570022574,0,4.0,3.0,1,2,11,0,11,0,0,0,0,0,,,,,,,655.218757209,655.218757209,656.2230511669999,656.5038229999999,656.737085375,656.737085375,656.737085375,658.204030209,658.204030209,658.204030209,658.204030209,659.202511584,200007,003,2023-04-11_09h09.34.809,DMS_et_12-36,2022.2.4,None,
106,UNPRED,12,0.5336795570022574,0,images/picture_1.png,images/picture_1.png,0,"[-11.733433509789466, -11.733433509789462]",-11.733433509789464,-11.733433509789462,images/picture_2.png,1,"[11.733433509789462, -11.733433509789466]",11.733433509789462,-11.733433509789464,images/picture_3.png,2,"[11.733433509789464, 11.733433509789462]",11.733433509789464,11.733433509789462,0,1,1,0.5336795570022574,1.5336795570022574,1.4663204429977426,3.0,1,1.2836795570022574,0,4.0,3.0,1,2,11,0,11,0,0,1,1,7,,,,,,,659.202511584,659.202511584,660.203674,660.489130417,660.736977125,660.736977125,660.736977125,662.2038651249999,662.2038651249999,662.2038651249999,662.2038651249999,663.222336084,200007,003,2023-04-11_09h09.34.809,DMS_et_12-36,2022.2.4,None,
101,UNPRED,12,0.5336795570022574,2,images/picture_3.png,images/picture_1.png,0,"[-11.733433509789462, 11.733433509789464]",-11.733433509789462,11.733433509789464,images/picture_2.png,1,"[-11.733433509789466, -11.733433509789462]",-11.733433509789464,-11.733433509789462,images/picture_3.png,2,"[11.733433509789464, 11.733433509789462]",11.733433509789464,11.733433509789462,0,1,1,0.5336795570022574,1.5336795570022574,1.4663204429977426,3.0,1,1.2836795570022574,0,4.0,3.0,1,2,11,0,11,0,0,2,2,2,,,,,,,663.222336084,663.222336084,664.2371279590001,664.5038297919999,664.73711225,664.73711225,664.73711225,666.2038705839999,666.2038705839999,666.2038705839999,666.2038705839999,667.203524959,200007,003,2023-04-11_09h09.34.809,DMS_et_12-36,2022.2.4,None,
103,UNPRED,12,0.5336795570022574,0,images/picture_1.png,images/picture_1.png,0,"[-11.733433509789466, -11.733433509789462]",-11.733433509789464,-11.733433509789462,images/picture_2.png,1,"[-11.733433509789462, 11.733433509789464]",-11.733433509789462,11.733433509789464,images/picture_3.png,2,"[11.733433509789464, 11.733433509789462]",11.733433509789464,11.733433509789462,0,1,1,0.5336795570022574,1.5336795570022574,1.4663204429977426,3.0,1,1.2836795570022574,0,4.0,3.0,1,2,11,0,11,0,0,3,3,4,,,,,,,667.203524959,667.203524959,668.203849292,668.4904989169999,668.737114917,668.737114917,668.737114917,670.2037107919999,670.2037107919999,670.2037107919999,670.2037107919999,671.203309917,200007,003,2023-04-11_09h09.34.809,DMS_et_12-36,2022.2.4,None,
104,UNPRED,12,0.5336795570022574,0,images/picture_1.png,images/picture_1.png,0,"[11.733433509789462, -11.733433509789466]",11.733433509789462,-11.733433509789464,images/picture_2.png,1,"[-11.733433509789466, -11.733433509789462]",-11.733433509789464,-11.733433509789462,images/picture_3.png,2,"[-11.733433509789462, 11.733433509789464]",-11.733433509789462,11.733433509789464,0,1,1,0.5336795570022574,1.5336795570022574,1.4663204429977426,3.0,1,1.2836795570022574,0,4.0,3.0,1,2,11,0,11,0,0,4,4,5,,,,,,,671.203309917,671.203309917,672.20388775,672.489845209,672.7372006669999,672.7372006669999,672.7372006669999,674.203860709,674.203860709,674.203860709,674.203860709,675.2229720839999,200007,003,2023-04-11_09h09.34.809,DMS_et_12-36,2022.2.4,None,
107,UNPRED,12,0.5336795570022574,2,images/picture_3.png,images/picture_1.png,0,"[11.733433509789464, 11.733433509789462]",11.733433509789464,11.733433509789462,images/picture_2.png,1,"[-11.733433509789462, 11.733433509789464]",-11.733433509789462,11.733433509789464,images/picture_3.png,2,"[11.733433509789462, -11.733433509789466]",11.733433509789462,-11.733433509789464,0,1,1,0.5336795570022574,1.5336795570022574,1.4663204429977426,3.0,1,1.2836795570022574,0,4.0,3.0,1,2,11,0,11,0,0,5,5,8,,,,,,,675.2229720839999,675.2229720839999,676.237117709,676.5038854169999,676.7371655000001,676.7371655000001,676.7371655000001,678.203894917,678.203894917,678.203894917,678.203894917,679.203243042,200007,003,2023-04-11_09h09.34.809,DMS_et_12-36,2022.2.4,None,
105,UNPRED,12,0.5336795570022574,1,images/picture_2.png,images/picture_1.png,0,"[11.733433509789462, -11.733433509789466]",11.733433509789462,-11.733433509789464,images/picture_2.png,1,"[-11.733433509789462, 11.733433509789464]",-11.733433509789462,11.733433509789464,images/picture_3.png,2,"[11.733433509789464, 11.733433509789462]",11.733433509789464,11.733433509789462,0,1,1,0.5336795570022574,1.5336795570022574,1.4663204429977426,3.0,1,1.2836795570022574,0,4.0,3.0,1,2,11,0,11,0,0,6,6,6,,,,,,,679.203243042,679.203243042,680.203636334,680.4888669169999,680.736917375,680.736917375,680.736917375,682.2038618339999,682.2038618339999,682.2038618339999,682.2038618339999,683.2231869169999,200007,003,2023-04-11_09h09.34.809,DMS_et_12-36,2022.2.4,None,
102,UNPRED,12,0.5336795570022574,2,images/picture_3.png,images/picture_1.png,0,"[-11.733433509789462, 11.733433509789464]",-11.733433509789462,11.733433509789464,images/picture_2.png,1,"[11.733433509789462, -11.733433509789466]",11.733433509789462,-11.733433509789464,images/picture_3.png,2,"[-11.733433509789466, -11.733433509789462]",-11.733433509789464,-11.733433509789462,0,1,1,0.5336795570022574,1.5336795570022574,1.4663204429977426,3.0,1,1.2836795570022574,0,4.0,3.0,1,2,11,0,11,0,0,7,7,3,,,,,,,683.2231869169999,683.2231869169999,684.2373120839999,684.5037921669999,684.737133917,684.737133917,684.737133917,686.2038968339999,686.2038968339999,686.2038968339999,686.2038968339999,687.203732375,200007,003,2023-04-11_09h09.34.809,DMS_et_12-36,2022.2.4,None,
100,UNPRED,12,0.5336795570022574,1,images/picture_2.png,images/picture_1.png,0,"[11.733433509789462, -11.733433509789466]",11.733433509789462,-11.733433509789464,images/picture_2.png,1,"[-11.733433509789462, 11.733433509789464]",-11.733433509789462,11.733433509789464,images/picture_3.png,2,"[11.733433509789464, 11.733433509789462]",11.733433509789464,11.733433509789462,0,1,1,0.5336795570022574,1.5336795570022574,1.4663204429977426,3.0,1,1.2836795570022574,0,4.0,3.0,1,2,11,0,11,0,0,8,8,1,,,,,,,687.203732375,687.203732375,688.203854167,688.4898885839999,688.7372931670001,688.7372931670001,688.7372931670001,690.203889709,690.203889709,690.203889709,690.203889709,691.363352709,200007,003,2023-04-11_09h09.34.809,DMS_et_12-36,2022.2.4,None,
,,,,,,,,,,,,,,,,,,,,,,,,,,,,,,,,,,,11,0,11,0,,,,,,,,,691.363352709,703.5009202499999,,,,,,,,,,,,,200007,003,2023-04-11_09h09.34.809,DMS_et_12-36,2022.2.4,None,
,,,,,,,,,,,,,,,,,,,,,,,,,,,,,,,,,,,,,,,,,,,,,,,703.5009202499999,716.0313198339999,,,,,,,,,,,,,,,,,,,
