trial_count,blockType,blockNum,delay_time,stimImage_i,stimImage,responseImage1,responseImage1_i,responseImage1_pos,responseImage1_X,responseImage1_Y,responseImage2,responseImage2_i,responseImage2_pos,responseImage2_X,responseImage2_Y,responseImage3,responseImage3_i,responseImage3_pos,responseImage3_X,responseImage3_Y,cue_onset,cue_dur,delay_onset,delay_dur,resp_onset,resp_dur,rest_onset,rest_dur,circle_dur,circle_onset,total_dur,cross_onset,cross_dur,delay_resp_period,blocks.thisRepN,blocks.thisTrialN,blocks.thisN,blocks.thisIndex,trials.thisRepN,trials.thisTrialN,trials.thisN,trials.thisIndex,key_resp.started,text.started,key_resp.keys,key_resp.rt,text_2.started,text_2.stopped,sample.started,Delay.started,sample.stopped,Delay.stopped,Response_1.started,Response_2.started,Response_3.started,Response_1.stopped,Response_2.stopped,Response_3.stopped,polygon.started,polygon.stopped,participant,session,date,expName,psychopyVersion,frameRate,
,,,,,,,,,,,,,,,,,,,,,,,,,,,,,,,,,,,,,,,,,,,45.19801966683008,45.19801966683008,t,56.67015058291145,,,,,,,,,,,,,,,200004,001,2023-03-31_10h36.35.643,DMS_et_12-36,2022.2.4,None,
3,PRED,12,0.557810121954844,2,images/picture_3.png,images/picture_1.png,0,"[11.733433509789462, -11.733433509789466]",11.733433509789462,-11.733433509789464,images/picture_2.png,1,"[11.733433509789464, 11.733433509789462]",11.733433509789464,11.733433509789462,images/picture_3.png,2,"[-11.733433509789466, -11.733433509789462]",-11.733433509789464,-11.733433509789462,0,1,1,0.557810121954844,1.557810121954844,1.442189878045156,3.0,1,1.307810121954844,0,4.0,3.0,1,2,0,0,0,0,0,0,0,3,,,,,102.38611858384684,114.42612191685475,114.42612191685475,114.42612191685475,115.43106654193252,115.74537216685712,115.9645136250183,115.9645136250183,115.9645136250183,117.41181708383374,117.41181708383374,117.41181708383374,117.41181708383374,118.430647125002,200004,001,2023-03-31_10h36.35.643,DMS_et_12-36,2022.2.4,None,
5,PRED,12,0.557810121954844,2,images/picture_3.png,images/picture_1.png,0,"[11.733433509789464, 11.733433509789462]",11.733433509789464,11.733433509789462,images/picture_2.png,1,"[11.733433509789462, -11.733433509789466]",11.733433509789462,-11.733433509789464,images/picture_3.png,2,"[-11.733433509789466, -11.733433509789462]",-11.733433509789464,-11.733433509789462,0,1,1,0.557810121954844,1.557810121954844,1.442189878045156,3.0,1,1.307810121954844,0,4.0,3.0,1,2,0,0,0,0,0,1,1,5,,,,,,,118.430647125002,118.430647125002,119.44538970896974,119.7455505838152,119.96417679195292,119.96417679195292,119.96417679195292,121.41190491686575,121.41190491686575,121.41190491686575,121.41190491686575,122.43138774996623,200004,001,2023-03-31_10h36.35.643,DMS_et_12-36,2022.2.4,None,
6,PRED,12,0.557810121954844,2,images/picture_3.png,images/picture_1.png,0,"[-11.733433509789466, -11.733433509789462]",-11.733433509789464,-11.733433509789462,images/picture_2.png,1,"[-11.733433509789462, 11.733433509789464]",-11.733433509789462,11.733433509789464,images/picture_3.png,2,"[11.733433509789464, 11.733433509789462]",11.733433509789464,11.733433509789462,0,1,1,0.557810121954844,1.557810121954844,1.442189878045156,3.0,1,1.307810121954844,0,4.0,3.0,1,2,0,0,0,0,0,2,2,6,,,,,,,122.43138774996623,122.43138774996623,123.44553170888685,123.74538266682066,123.96469424990937,123.96469424990937,123.96469424990937,125.41211724979803,125.41211724979803,125.41211724979803,125.41211724979803,126.43145166686736,200004,001,2023-03-31_10h36.35.643,DMS_et_12-36,2022.2.4,None,
4,PRED,12,0.557810121954844,2,images/picture_3.png,images/picture_1.png,0,"[-11.733433509789462, 11.733433509789464]",-11.733433509789462,11.733433509789464,images/picture_2.png,1,"[11.733433509789462, -11.733433509789466]",11.733433509789462,-11.733433509789464,images/picture_3.png,2,"[11.733433509789464, 11.733433509789462]",11.733433509789464,11.733433509789462,0,1,1,0.557810121954844,1.557810121954844,1.442189878045156,3.0,1,1.307810121954844,0,4.0,3.0,1,2,0,0,0,0,0,3,3,4,,,,,,,126.43145166686736,126.43145166686736,127.44521287479438,127.74534820881672,127.96397954178974,127.96397954178974,127.96397954178974,129.41212200000882,129.41212200000882,129.41212200000882,129.41212200000882,130.43101704190485,200004,001,2023-03-31_10h36.35.643,DMS_et_12-36,2022.2.4,None,
2,PRED,12,0.557810121954844,2,images/picture_3.png,images/picture_1.png,0,"[-11.733433509789462, 11.733433509789464]",-11.733433509789462,11.733433509789464,images/picture_2.png,1,"[-11.733433509789466, -11.733433509789462]",-11.733433509789464,-11.733433509789462,images/picture_3.png,2,"[11.733433509789464, 11.733433509789462]",11.733433509789464,11.733433509789462,0,1,1,0.557810121954844,1.557810121954844,1.442189878045156,3.0,1,1.307810121954844,0,4.0,3.0,1,2,0,0,0,0,0,4,4,2,,,,,,,130.43101704190485,130.43101704190485,131.44556583394296,131.74512041686103,131.963878541952,131.963878541952,131.963878541952,133.41199729195796,133.41199729195796,133.41199729195796,133.41199729195796,134.43094862485304,200004,001,2023-03-31_10h36.35.643,DMS_et_12-36,2022.2.4,None,
7,PRED,12,0.557810121954844,2,images/picture_3.png,images/picture_1.png,0,"[-11.733433509789466, -11.733433509789462]",-11.733433509789464,-11.733433509789462,images/picture_2.png,1,"[11.733433509789462, -11.733433509789466]",11.733433509789462,-11.733433509789464,images/picture_3.png,2,"[11.733433509789464, 11.733433509789462]",11.733433509789464,11.733433509789462,0,1,1,0.557810121954844,1.557810121954844,1.442189878045156,3.0,1,1.307810121954844,0,4.0,3.0,1,2,0,0,0,0,0,5,5,7,,,,,,,134.43094862485304,134.43094862485304,135.44557024980895,135.74556716694497,135.96480449987575,135.96480449987575,135.96480449987575,137.41202995879576,137.41202995879576,137.41202995879576,137.41202995879576,138.41285416693427,200004,001,2023-03-31_10h36.35.643,DMS_et_12-36,2022.2.4,None,
0,PRED,12,0.557810121954844,2,images/picture_3.png,images/picture_1.png,0,"[-11.733433509789466, -11.733433509789462]",-11.733433509789464,-11.733433509789462,images/picture_2.png,1,"[11.733433509789462, -11.733433509789466]",11.733433509789462,-11.733433509789464,images/picture_3.png,2,"[11.733433509789464, 11.733433509789462]",11.733433509789464,11.733433509789462,0,1,1,0.557810121954844,1.557810121954844,1.442189878045156,3.0,1,1.307810121954844,0,4.0,3.0,1,2,0,0,0,0,0,6,6,0,,,,,,,138.41285416693427,138.41285416693427,139.41209312481806,139.73173374985345,139.96507595898584,139.96507595898584,139.96507595898584,141.4123209589161,141.4123209589161,141.4123209589161,141.4123209589161,142.43085116683505,200004,001,2023-03-31_10h36.35.643,DMS_et_12-36,2022.2.4,None,
1,PRED,12,0.557810121954844,2,images/picture_3.png,images/picture_1.png,0,"[11.733433509789462, -11.733433509789466]",11.733433509789462,-11.733433509789464,images/picture_2.png,1,"[-11.733433509789466, -11.733433509789462]",-11.733433509789464,-11.733433509789462,images/picture_3.png,2,"[-11.733433509789462, 11.733433509789464]",-11.733433509789462,11.733433509789464,0,1,1,0.557810121954844,1.557810121954844,1.442189878045156,3.0,1,1.307810121954844,0,4.0,3.0,1,2,0,0,0,0,0,7,7,1,,,,,,,142.43085116683505,142.43085116683505,143.44556904188357,143.7456100420095,143.96417950000614,143.96417950000614,143.96417950000614,145.41197458398528,145.41197458398528,145.41197458398528,145.41197458398528,146.43078195885755,200004,001,2023-03-31_10h36.35.643,DMS_et_12-36,2022.2.4,None,
8,PRED,12,0.557810121954844,2,images/picture_3.png,images/picture_1.png,0,"[11.733433509789464, 11.733433509789462]",11.733433509789464,11.733433509789462,images/picture_2.png,1,"[11.733433509789462, -11.733433509789466]",11.733433509789462,-11.733433509789464,images/picture_3.png,2,"[-11.733433509789462, 11.733433509789464]",-11.733433509789462,11.733433509789464,0,1,1,0.557810121954844,1.557810121954844,1.442189878045156,3.0,1,1.307810121954844,0,4.0,3.0,1,2,0,0,0,0,0,8,8,8,,,,,,,146.43078195885755,146.43078195885755,147.44564433395863,147.745416583959,147.96423654188402,147.96423654188402,147.96423654188402,149.4123315839097,149.4123315839097,149.4123315839097,149.4123315839097,150.43056408385746,200004,001,2023-03-31_10h36.35.643,DMS_et_12-36,2022.2.4,None,
,,,,,,,,,,,,,,,,,,,,,,,,,,,,,,,,,,,0,0,0,0,,,,,,,,,150.43056408385746,162.46363512496464,,,,,,,,,,,,,200004,001,2023-03-31_10h36.35.643,DMS_et_12-36,2022.2.4,None,
12,UNPRED,12,0.557810121954844,0,images/picture_1.png,images/picture_1.png,0,"[11.733433509789464, 11.733433509789462]",11.733433509789464,11.733433509789462,images/picture_2.png,1,"[-11.733433509789462, 11.733433509789464]",-11.733433509789462,11.733433509789464,images/picture_3.png,2,"[-11.733433509789466, -11.733433509789462]",-11.733433509789464,-11.733433509789462,0,1,1,0.557810121954844,1.557810121954844,1.442189878045156,3.0,1,1.307810121954844,0,4.0,3.0,1,2,1,0,1,0,0,0,0,3,,,,,,,162.46363512496464,162.46363512496464,163.4786512919236,163.77928512496874,164.01192224980332,164.01192224980332,164.01192224980332,165.4648911249824,165.4648911249824,165.4648911249824,165.4648911249824,166.47904612496495,200004,001,2023-03-31_10h36.35.643,DMS_et_12-36,2022.2.4,None,
9,UNPRED,12,0.557810121954844,0,images/picture_1.png,images/picture_1.png,0,"[-11.733433509789466, -11.733433509789462]",-11.733433509789464,-11.733433509789462,images/picture_2.png,1,"[11.733433509789462, -11.733433509789466]",11.733433509789462,-11.733433509789464,images/picture_3.png,2,"[-11.733433509789462, 11.733433509789464]",-11.733433509789462,11.733433509789464,0,1,1,0.557810121954844,1.557810121954844,1.442189878045156,3.0,1,1.307810121954844,0,4.0,3.0,1,2,1,0,1,0,0,1,1,0,,,,,,,166.47904612496495,166.47904612496495,167.47908799978904,167.7986332499422,168.03210112499073,168.03210112499073,168.03210112499073,169.4787356669549,169.4787356669549,169.4787356669549,169.4787356669549,170.49845991679467,200004,001,2023-03-31_10h36.35.643,DMS_et_12-36,2022.2.4,None,
13,UNPRED,12,0.557810121954844,2,images/picture_3.png,images/picture_1.png,0,"[11.733433509789462, -11.733433509789466]",11.733433509789462,-11.733433509789464,images/picture_2.png,1,"[-11.733433509789466, -11.733433509789462]",-11.733433509789464,-11.733433509789462,images/picture_3.png,2,"[11.733433509789464, 11.733433509789462]",11.733433509789464,11.733433509789462,0,1,1,0.557810121954844,1.557810121954844,1.442189878045156,3.0,1,1.307810121954844,0,4.0,3.0,1,2,1,0,1,0,0,2,2,4,,,,,,,170.49845991679467,170.49845991679467,171.51236629183404,171.81237262487411,172.03199787484482,172.03199787484482,172.03199787484482,173.47912037489004,173.47912037489004,173.47912037489004,173.47912037489004,174.47970083379187,200004,001,2023-03-31_10h36.35.643,DMS_et_12-36,2022.2.4,None,
11,UNPRED,12,0.557810121954844,1,images/picture_2.png,images/picture_1.png,0,"[-11.733433509789466, -11.733433509789462]",-11.733433509789464,-11.733433509789462,images/picture_2.png,1,"[11.733433509789464, 11.733433509789462]",11.733433509789464,11.733433509789462,images/picture_3.png,2,"[-11.733433509789462, 11.733433509789464]",-11.733433509789462,11.733433509789464,0,1,1,0.557810121954844,1.557810121954844,1.442189878045156,3.0,1,1.307810121954844,0,4.0,3.0,1,2,1,0,1,0,0,3,3,2,,,,,,,174.47970083379187,174.47970083379187,175.47897599986754,175.79837312479503,176.03158754180185,176.03158754180185,176.03158754180185,177.47915854188614,177.47915854188614,177.47915854188614,177.47915854188614,178.49772312492132,200004,001,2023-03-31_10h36.35.643,DMS_et_12-36,2022.2.4,None,
17,UNPRED,12,0.557810121954844,2,images/picture_3.png,images/picture_1.png,0,"[11.733433509789462, -11.733433509789466]",11.733433509789462,-11.733433509789464,images/picture_2.png,1,"[11.733433509789464, 11.733433509789462]",11.733433509789464,11.733433509789462,images/picture_3.png,2,"[-11.733433509789466, -11.733433509789462]",-11.733433509789464,-11.733433509789462,0,1,1,0.557810121954844,1.557810121954844,1.442189878045156,3.0,1,1.307810121954844,0,4.0,3.0,1,2,1,0,1,0,0,4,4,8,,,,,,,178.49772312492132,178.49772312492132,179.51218137494288,179.8126018338371,180.03127874992788,180.03127874992788,180.03127874992788,181.47910333401524,181.47910333401524,181.47910333401524,181.47910333401524,182.47869920893572,200004,001,2023-03-31_10h36.35.643,DMS_et_12-36,2022.2.4,None,
10,UNPRED,12,0.557810121954844,1,images/picture_2.png,images/picture_1.png,0,"[-11.733433509789466, -11.733433509789462]",-11.733433509789464,-11.733433509789462,images/picture_2.png,1,"[-11.733433509789462, 11.733433509789464]",-11.733433509789462,11.733433509789464,images/picture_3.png,2,"[11.733433509789464, 11.733433509789462]",11.733433509789464,11.733433509789462,0,1,1,0.557810121954844,1.557810121954844,1.442189878045156,3.0,1,1.307810121954844,0,4.0,3.0,1,2,1,0,1,0,0,5,5,1,,,,,,,182.47869920893572,182.47869920893572,183.4793697919231,183.7987403338775,184.03175866696984,184.03175866696984,184.03175866696984,185.4791773748584,185.4791773748584,185.4791773748584,185.4791773748584,186.47865704190917,200004,001,2023-03-31_10h36.35.643,DMS_et_12-36,2022.2.4,None,
15,UNPRED,12,0.557810121954844,0,images/picture_1.png,images/picture_1.png,0,"[-11.733433509789462, 11.733433509789464]",-11.733433509789462,11.733433509789464,images/picture_2.png,1,"[11.733433509789464, 11.733433509789462]",11.733433509789464,11.733433509789462,images/picture_3.png,2,"[-11.733433509789466, -11.733433509789462]",-11.733433509789464,-11.733433509789462,0,1,1,0.557810121954844,1.557810121954844,1.442189878045156,3.0,1,1.307810121954844,0,4.0,3.0,1,2,1,0,1,0,0,6,6,6,,,,,,,186.47865704190917,186.47865704190917,187.47907970892265,187.7985637919046,188.03191762487404,188.03191762487404,188.03191762487404,189.4788355838973,189.4788355838973,189.4788355838973,189.4788355838973,190.47857695887797,200004,001,2023-03-31_10h36.35.643,DMS_et_12-36,2022.2.4,None,
14,UNPRED,12,0.557810121954844,1,images/picture_2.png,images/picture_1.png,0,"[11.733433509789462, -11.733433509789466]",11.733433509789462,-11.733433509789464,images/picture_2.png,1,"[-11.733433509789462, 11.733433509789464]",-11.733433509789462,11.733433509789464,images/picture_3.png,2,"[-11.733433509789466, -11.733433509789462]",-11.733433509789464,-11.733433509789462,0,1,1,0.557810121954844,1.557810121954844,1.442189878045156,3.0,1,1.307810121954844,0,4.0,3.0,1,2,1,0,1,0,0,7,7,5,,,,,,,190.47857695887797,190.47857695887797,191.47927566687576,191.79852279182523,192.0316337919794,192.0316337919794,192.0316337919794,193.47882199985906,193.47882199985906,193.47882199985906,193.47882199985906,194.49872583383694,200004,001,2023-03-31_10h36.35.643,DMS_et_12-36,2022.2.4,None,
16,UNPRED,12,0.557810121954844,2,images/picture_3.png,images/picture_1.png,0,"[-11.733433509789462, 11.733433509789464]",-11.733433509789462,11.733433509789464,images/picture_2.png,1,"[11.733433509789464, 11.733433509789462]",11.733433509789464,11.733433509789462,images/picture_3.png,2,"[11.733433509789462, -11.733433509789466]",11.733433509789462,-11.733433509789464,0,1,1,0.557810121954844,1.557810121954844,1.442189878045156,3.0,1,1.307810121954844,0,4.0,3.0,1,2,1,0,1,0,0,8,8,7,,,,,,,194.49872583383694,194.49872583383694,195.51259887497872,195.81257799989544,196.03091133385897,196.03091133385897,196.03091133385897,197.4790996669326,197.4790996669326,197.4790996669326,197.4790996669326,198.51211983384565,200004,001,2023-03-31_10h36.35.643,DMS_et_12-36,2022.2.4,None,
,,,,,,,,,,,,,,,,,,,,,,,,,,,,,,,,,,,1,0,1,0,,,,,,,,,198.51211983384565,210.5405133748427,,,,,,,,,,,,,200004,001,2023-03-31_10h36.35.643,DMS_et_12-36,2022.2.4,None,
25,PRED,12,0.557810121954844,2,images/picture_3.png,images/picture_1.png,0,"[-11.733433509789462, 11.733433509789464]",-11.733433509789462,11.733433509789464,images/picture_2.png,1,"[11.733433509789464, 11.733433509789462]",11.733433509789464,11.733433509789462,images/picture_3.png,2,"[-11.733433509789466, -11.733433509789462]",-11.733433509789464,-11.733433509789462,0,1,1,0.557810121954844,1.557810121954844,1.442189878045156,3.0,1,1.307810121954844,0,4.0,3.0,1,2,2,0,2,0,0,0,0,7,,,,,,,210.5405133748427,210.5405133748427,211.5459144168999,211.84612266696058,212.07934379181825,212.07934379181825,212.07934379181825,213.53227550000884,213.53227550000884,213.53227550000884,213.53227550000884,214.56473345891573,200004,001,2023-03-31_10h36.35.643,DMS_et_12-36,2022.2.4,None,
22,PRED,12,0.557810121954844,2,images/picture_3.png,images/picture_1.png,0,"[-11.733433509789462, 11.733433509789464]",-11.733433509789462,11.733433509789464,images/picture_2.png,1,"[11.733433509789464, 11.733433509789462]",11.733433509789464,11.733433509789462,images/picture_3.png,2,"[-11.733433509789466, -11.733433509789462]",-11.733433509789464,-11.733433509789462,0,1,1,0.557810121954844,1.557810121954844,1.442189878045156,3.0,1,1.307810121954844,0,4.0,3.0,1,2,2,0,2,0,0,1,1,4,,,,,,,214.56473345891573,214.56473345891573,215.5793471247889,215.87943649990484,216.0985919169616,216.0985919169616,216.0985919169616,217.54567795898765,217.54567795898765,217.54567795898765,217.54567795898765,218.56465079193003,200004,001,2023-03-31_10h36.35.643,DMS_et_12-36,2022.2.4,None,
23,PRED,12,0.557810121954844,2,images/picture_3.png,images/picture_1.png,0,"[11.733433509789464, 11.733433509789462]",11.733433509789464,11.733433509789462,images/picture_2.png,1,"[-11.733433509789466, -11.733433509789462]",-11.733433509789464,-11.733433509789462,images/picture_3.png,2,"[-11.733433509789462, 11.733433509789464]",-11.733433509789462,11.733433509789464,0,1,1,0.557810121954844,1.557810121954844,1.442189878045156,3.0,1,1.307810121954844,0,4.0,3.0,1,2,2,0,2,0,0,2,2,5,,,,,,,218.56465079193003,218.56465079193003,219.57885387493297,219.87880670884624,220.09779162495397,220.09779162495397,220.09779162495397,221.54591674986295,221.54591674986295,221.54591674986295,221.54591674986295,222.56462570885196,200004,001,2023-03-31_10h36.35.643,DMS_et_12-36,2022.2.4,None,
26,PRED,12,0.557810121954844,2,images/picture_3.png,images/picture_1.png,0,"[-11.733433509789462, 11.733433509789464]",-11.733433509789462,11.733433509789464,images/picture_2.png,1,"[11.733433509789464, 11.733433509789462]",11.733433509789464,11.733433509789462,images/picture_3.png,2,"[-11.733433509789466, -11.733433509789462]",-11.733433509789464,-11.733433509789462,0,1,1,0.557810121954844,1.557810121954844,1.442189878045156,3.0,1,1.307810121954844,0,4.0,3.0,1,2,2,0,2,0,0,3,3,8,,,,,,,222.56462570885196,222.56462570885196,223.5792647919152,223.87925812485628,224.09839833388105,224.09839833388105,224.09839833388105,225.5458454589825,225.5458454589825,225.5458454589825,225.5458454589825,226.56446679192595,200004,001,2023-03-31_10h36.35.643,DMS_et_12-36,2022.2.4,None,
21,PRED,12,0.557810121954844,2,images/picture_3.png,images/picture_1.png,0,"[-11.733433509789466, -11.733433509789462]",-11.733433509789464,-11.733433509789462,images/picture_2.png,1,"[-11.733433509789462, 11.733433509789464]",-11.733433509789462,11.733433509789464,images/picture_3.png,2,"[11.733433509789464, 11.733433509789462]",11.733433509789464,11.733433509789462,0,1,1,0.557810121954844,1.557810121954844,1.442189878045156,3.0,1,1.307810121954844,0,4.0,3.0,1,2,2,0,2,0,0,4,4,3,,,,,,,226.56446679192595,226.56446679192595,227.57919112499803,227.87908383389004,228.09831570880488,228.09831570880488,228.09831570880488,229.54542354191653,229.54542354191653,229.54542354191653,229.54542354191653,230.54700474999845,200004,001,2023-03-31_10h36.35.643,DMS_et_12-36,2022.2.4,None,
20,PRED,12,0.557810121954844,2,images/picture_3.png,images/picture_1.png,0,"[-11.733433509789466, -11.733433509789462]",-11.733433509789464,-11.733433509789462,images/picture_2.png,1,"[-11.733433509789462, 11.733433509789464]",-11.733433509789462,11.733433509789464,images/picture_3.png,2,"[11.733433509789462, -11.733433509789466]",11.733433509789462,-11.733433509789464,0,1,1,0.557810121954844,1.557810121954844,1.442189878045156,3.0,1,1.307810121954844,0,4.0,3.0,1,2,2,0,2,0,0,5,5,2,,,,,,,230.54700474999845,230.54700474999845,231.5458501249086,231.86503400001675,232.09845512500033,232.09845512500033,232.09845512500033,233.54549933387898,233.54549933387898,233.54549933387898,233.54549933387898,234.5647167088464,200004,001,2023-03-31_10h36.35.643,DMS_et_12-36,2022.2.4,None,
24,PRED,12,0.557810121954844,2,images/picture_3.png,images/picture_1.png,0,"[11.733433509789464, 11.733433509789462]",11.733433509789464,11.733433509789462,images/picture_2.png,1,"[11.733433509789462, -11.733433509789466]",11.733433509789462,-11.733433509789464,images/picture_3.png,2,"[-11.733433509789462, 11.733433509789464]",-11.733433509789462,11.733433509789464,0,1,1,0.557810121954844,1.557810121954844,1.442189878045156,3.0,1,1.307810121954844,0,4.0,3.0,1,2,2,0,2,0,0,6,6,6,,,,,,,234.5647167088464,234.5647167088464,235.57927720900625,235.87915683398023,236.09844654193148,236.09844654193148,236.09844654193148,237.54588162479922,237.54588162479922,237.54588162479922,237.54588162479922,238.5646502089221,200004,001,2023-03-31_10h36.35.643,DMS_et_12-36,2022.2.4,None,
18,PRED,12,0.557810121954844,2,images/picture_3.png,images/picture_1.png,0,"[-11.733433509789462, 11.733433509789464]",-11.733433509789462,11.733433509789464,images/picture_2.png,1,"[-11.733433509789466, -11.733433509789462]",-11.733433509789464,-11.733433509789462,images/picture_3.png,2,"[11.733433509789464, 11.733433509789462]",11.733433509789464,11.733433509789462,0,1,1,0.557810121954844,1.557810121954844,1.442189878045156,3.0,1,1.307810121954844,0,4.0,3.0,1,2,2,0,2,0,0,7,7,0,,,,,,,238.5646502089221,238.5646502089221,239.57919058389962,239.87908091698773,240.09776791697368,240.09776791697368,240.09776791697368,241.545795166865,241.545795166865,241.545795166865,241.545795166865,242.56449337489903,200004,001,2023-03-31_10h36.35.643,DMS_et_12-36,2022.2.4,None,
19,PRED,12,0.557810121954844,2,images/picture_3.png,images/picture_1.png,0,"[-11.733433509789462, 11.733433509789464]",-11.733433509789462,11.733433509789464,images/picture_2.png,1,"[11.733433509789462, -11.733433509789466]",11.733433509789462,-11.733433509789464,images/picture_3.png,2,"[-11.733433509789466, -11.733433509789462]",-11.733433509789464,-11.733433509789462,0,1,1,0.557810121954844,1.557810121954844,1.442189878045156,3.0,1,1.307810121954844,0,4.0,3.0,1,2,2,0,2,0,0,8,8,1,,,,,,,242.56449337489903,242.56449337489903,243.57929570879787,243.8791104168631,244.09806795883924,244.09806795883924,244.09806795883924,245.5458583747968,245.5458583747968,245.5458583747968,245.5458583747968,246.58666512486525,200004,001,2023-03-31_10h36.35.643,DMS_et_12-36,2022.2.4,None,
,,,,,,,,,,,,,,,,,,,,,,,,,,,,,,,,,,,2,0,2,0,,,,,,,,,246.58666512486525,258.6115199998021,,,,,,,,,,,,,200004,001,2023-03-31_10h36.35.643,DMS_et_12-36,2022.2.4,None,
32,UNPRED,12,0.557810121954844,1,images/picture_2.png,images/picture_1.png,0,"[11.733433509789462, -11.733433509789466]",11.733433509789462,-11.733433509789464,images/picture_2.png,1,"[11.733433509789464, 11.733433509789462]",11.733433509789464,11.733433509789462,images/picture_3.png,2,"[-11.733433509789462, 11.733433509789464]",-11.733433509789462,11.733433509789464,0,1,1,0.557810121954844,1.557810121954844,1.442189878045156,3.0,1,1.307810121954844,0,4.0,3.0,1,2,3,0,3,0,0,0,0,5,,,,,,,258.6115199998021,258.6115199998021,259.6126035419293,259.93197329179384,260.16539495880716,260.16539495880716,260.16539495880716,261.6130879588891,261.6130879588891,261.6130879588891,261.6130879588891,262.6119883339852,200004,001,2023-03-31_10h36.35.643,DMS_et_12-36,2022.2.4,None,
34,UNPRED,12,0.557810121954844,1,images/picture_2.png,images/picture_1.png,0,"[11.733433509789464, 11.733433509789462]",11.733433509789464,11.733433509789462,images/picture_2.png,1,"[-11.733433509789466, -11.733433509789462]",-11.733433509789464,-11.733433509789462,images/picture_3.png,2,"[-11.733433509789462, 11.733433509789464]",-11.733433509789462,11.733433509789464,0,1,1,0.557810121954844,1.557810121954844,1.442189878045156,3.0,1,1.307810121954844,0,4.0,3.0,1,2,3,0,3,0,0,1,1,7,,,,,,,262.6119883339852,262.6119883339852,263.61262158397585,263.93193908385,264.16528295888565,264.16528295888565,264.16528295888565,265.6126002499368,265.6126002499368,265.6126002499368,265.6126002499368,266.6123528748285,200004,001,2023-03-31_10h36.35.643,DMS_et_12-36,2022.2.4,None,
28,UNPRED,12,0.557810121954844,1,images/picture_2.png,images/picture_1.png,0,"[11.733433509789464, 11.733433509789462]",11.733433509789464,11.733433509789462,images/picture_2.png,1,"[-11.733433509789466, -11.733433509789462]",-11.733433509789464,-11.733433509789462,images/picture_3.png,2,"[11.733433509789462, -11.733433509789466]",11.733433509789462,-11.733433509789464,0,1,1,0.557810121954844,1.557810121954844,1.442189878045156,3.0,1,1.307810121954844,0,4.0,3.0,1,2,3,0,3,0,0,2,2,1,,,,,,,266.6123528748285,266.6123528748285,267.61265941685997,267.93199183396064,268.16515858401544,268.16515858401544,268.16515858401544,269.61266662483104,269.61266662483104,269.61266662483104,269.61266662483104,270.6122988339048,200004,001,2023-03-31_10h36.35.643,DMS_et_12-36,2022.2.4,None,
29,UNPRED,12,0.557810121954844,0,images/picture_1.png,images/picture_1.png,0,"[-11.733433509789462, 11.733433509789464]",-11.733433509789462,11.733433509789464,images/picture_2.png,1,"[-11.733433509789466, -11.733433509789462]",-11.733433509789464,-11.733433509789462,images/picture_3.png,2,"[11.733433509789464, 11.733433509789462]",11.733433509789464,11.733433509789462,0,1,1,0.557810121954844,1.557810121954844,1.442189878045156,3.0,1,1.307810121954844,0,4.0,3.0,1,2,3,0,3,0,0,3,3,2,,,,,,,270.6122988339048,270.6122988339048,271.61215125001036,271.9313898338005,272.16525974986143,272.16525974986143,272.16525974986143,273.61261104186997,273.61261104186997,273.61261104186997,273.61261104186997,274.61208133399487,200004,001,2023-03-31_10h36.35.643,DMS_et_12-36,2022.2.4,None,
31,UNPRED,12,0.557810121954844,0,images/picture_1.png,images/picture_1.png,0,"[-11.733433509789466, -11.733433509789462]",-11.733433509789464,-11.733433509789462,images/picture_2.png,1,"[11.733433509789462, -11.733433509789466]",11.733433509789462,-11.733433509789464,images/picture_3.png,2,"[11.733433509789464, 11.733433509789462]",11.733433509789464,11.733433509789462,0,1,1,0.557810121954844,1.557810121954844,1.442189878045156,3.0,1,1.307810121954844,0,4.0,3.0,1,2,3,0,3,0,0,4,4,4,,,,,,,274.61208133399487,274.61208133399487,275.612785291858,275.9317756248638,276.1651897919364,276.1651897919364,276.1651897919364,277.6127694589086,277.6127694589086,277.6127694589086,277.6127694589086,278.63140724995174,200004,001,2023-03-31_10h36.35.643,DMS_et_12-36,2022.2.4,None,
27,UNPRED,12,0.557810121954844,2,images/picture_3.png,images/picture_1.png,0,"[-11.733433509789466, -11.733433509789462]",-11.733433509789464,-11.733433509789462,images/picture_2.png,1,"[11.733433509789464, 11.733433509789462]",11.733433509789464,11.733433509789462,images/picture_3.png,2,"[11.733433509789462, -11.733433509789466]",11.733433509789462,-11.733433509789464,0,1,1,0.557810121954844,1.557810121954844,1.442189878045156,3.0,1,1.307810121954844,0,4.0,3.0,1,2,3,0,3,0,0,5,5,0,,,,,,,278.63140724995174,278.63140724995174,279.64602574985474,279.94606958399527,280.16559758386575,280.16559758386575,280.16559758386575,281.61243212479167,281.61243212479167,281.61243212479167,281.61243212479167,282.63210404198617,200004,001,2023-03-31_10h36.35.643,DMS_et_12-36,2022.2.4,None,
33,UNPRED,12,0.557810121954844,2,images/picture_3.png,images/picture_1.png,0,"[-11.733433509789462, 11.733433509789464]",-11.733433509789462,11.733433509789464,images/picture_2.png,1,"[11.733433509789462, -11.733433509789466]",11.733433509789462,-11.733433509789464,images/picture_3.png,2,"[-11.733433509789466, -11.733433509789462]",-11.733433509789464,-11.733433509789462,0,1,1,0.557810121954844,1.557810121954844,1.442189878045156,3.0,1,1.307810121954844,0,4.0,3.0,1,2,3,0,3,0,0,6,6,6,,,,,,,282.63210404198617,282.63210404198617,283.6460756668821,283.9461862088647,284.16548179183155,284.16548179183155,284.16548179183155,285.6126350418199,285.6126350418199,285.6126350418199,285.6126350418199,286.63145345891826,200004,001,2023-03-31_10h36.35.643,DMS_et_12-36,2022.2.4,None,
30,UNPRED,12,0.557810121954844,2,images/picture_3.png,images/picture_1.png,0,"[11.733433509789464, 11.733433509789462]",11.733433509789464,11.733433509789462,images/picture_2.png,1,"[-11.733433509789466, -11.733433509789462]",-11.733433509789464,-11.733433509789462,images/picture_3.png,2,"[-11.733433509789462, 11.733433509789464]",-11.733433509789462,11.733433509789464,0,1,1,0.557810121954844,1.557810121954844,1.442189878045156,3.0,1,1.307810121954844,0,4.0,3.0,1,2,3,0,3,0,0,7,7,3,,,,,,,286.63145345891826,286.63145345891826,287.64607191691175,287.9460936668329,288.1655322499573,288.1655322499573,288.1655322499573,289.6128062088974,289.6128062088974,289.6128062088974,289.6128062088974,290.6321012498811,200004,001,2023-03-31_10h36.35.643,DMS_et_12-36,2022.2.4,None,
35,UNPRED,12,0.557810121954844,1,images/picture_2.png,images/picture_1.png,0,"[-11.733433509789462, 11.733433509789464]",-11.733433509789462,11.733433509789464,images/picture_2.png,1,"[11.733433509789462, -11.733433509789466]",11.733433509789462,-11.733433509789464,images/picture_3.png,2,"[-11.733433509789466, -11.733433509789462]",-11.733433509789464,-11.733433509789462,0,1,1,0.557810121954844,1.557810121954844,1.442189878045156,3.0,1,1.307810121954844,0,4.0,3.0,1,2,3,0,3,0,0,8,8,8,,,,,,,290.6321012498811,290.6321012498811,291.64555441681296,291.9458402500022,292.1646147919819,292.1646147919819,292.1646147919819,293.61281945882365,293.61281945882365,293.61281945882365,293.61281945882365,294.64398487494327,200004,001,2023-03-31_10h36.35.643,DMS_et_12-36,2022.2.4,None,
,,,,,,,,,,,,,,,,,,,,,,,,,,,,,,,,,,,3,0,3,0,,,,,,,,,294.64398487494327,306.6644571668003,,,,,,,,,,,,,200004,001,2023-03-31_10h36.35.643,DMS_et_12-36,2022.2.4,None,
42,PRED,12,0.557810121954844,1,images/picture_2.png,images/picture_1.png,0,"[-11.733433509789462, 11.733433509789464]",-11.733433509789462,11.733433509789464,images/picture_2.png,1,"[11.733433509789462, -11.733433509789466]",11.733433509789462,-11.733433509789464,images/picture_3.png,2,"[11.733433509789464, 11.733433509789462]",11.733433509789464,11.733433509789462,0,1,1,0.557810121954844,1.557810121954844,1.442189878045156,3.0,1,1.307810121954844,0,4.0,3.0,1,2,4,0,4,0,0,0,0,6,,,,,,,306.6644571668003,306.6644571668003,307.679574374808,307.97953554196283,308.21279370901175,308.21279370901175,308.21279370901175,309.66552312485874,309.66552312485874,309.66552312485874,309.66552312485874,310.6792659999337,200004,001,2023-03-31_10h36.35.643,DMS_et_12-36,2022.2.4,None,
36,PRED,12,0.557810121954844,1,images/picture_2.png,images/picture_1.png,0,"[11.733433509789462, -11.733433509789466]",11.733433509789462,-11.733433509789464,images/picture_2.png,1,"[11.733433509789464, 11.733433509789462]",11.733433509789464,11.733433509789462,images/picture_3.png,2,"[-11.733433509789462, 11.733433509789464]",-11.733433509789462,11.733433509789464,0,1,1,0.557810121954844,1.557810121954844,1.442189878045156,3.0,1,1.307810121954844,0,4.0,3.0,1,2,4,0,4,0,0,1,1,0,,,,,,,310.6792659999337,310.6792659999337,311.6791898747906,311.99809920880944,312.2316614999436,312.2316614999436,312.2316614999436,313.6795474169776,313.6795474169776,313.6795474169776,313.6795474169776,314.6789377918467,200004,001,2023-03-31_10h36.35.643,DMS_et_12-36,2022.2.4,None,
38,PRED,12,0.557810121954844,1,images/picture_2.png,images/picture_1.png,0,"[-11.733433509789462, 11.733433509789464]",-11.733433509789462,11.733433509789464,images/picture_2.png,1,"[-11.733433509789466, -11.733433509789462]",-11.733433509789464,-11.733433509789462,images/picture_3.png,2,"[11.733433509789464, 11.733433509789462]",11.733433509789464,11.733433509789462,0,1,1,0.557810121954844,1.557810121954844,1.442189878045156,3.0,1,1.307810121954844,0,4.0,3.0,1,2,4,0,4,0,0,2,2,2,,,,,,,314.6789377918467,314.6789377918467,315.67983537493274,315.9986988338642,316.2320656669326,316.2320656669326,316.2320656669326,317.6797532089986,317.6797532089986,317.6797532089986,317.6797532089986,318.6788949589245,200004,001,2023-03-31_10h36.35.643,DMS_et_12-36,2022.2.4,None,
44,PRED,12,0.557810121954844,1,images/picture_2.png,images/picture_1.png,0,"[11.733433509789462, -11.733433509789466]",11.733433509789462,-11.733433509789464,images/picture_2.png,1,"[11.733433509789464, 11.733433509789462]",11.733433509789464,11.733433509789462,images/picture_3.png,2,"[-11.733433509789466, -11.733433509789462]",-11.733433509789464,-11.733433509789462,0,1,1,0.557810121954844,1.557810121954844,1.442189878045156,3.0,1,1.307810121954844,0,4.0,3.0,1,2,4,0,4,0,0,3,3,8,,,,,,,318.6788949589245,318.6788949589245,319.67956620897166,319.99875945900567,320.2320772919338,320.2320772919338,320.2320772919338,321.67959016701207,321.67959016701207,321.67959016701207,321.67959016701207,322.6792188338004,200004,001,2023-03-31_10h36.35.643,DMS_et_12-36,2022.2.4,None,
39,PRED,12,0.557810121954844,1,images/picture_2.png,images/picture_1.png,0,"[11.733433509789464, 11.733433509789462]",11.733433509789464,11.733433509789462,images/picture_2.png,1,"[-11.733433509789466, -11.733433509789462]",-11.733433509789464,-11.733433509789462,images/picture_3.png,2,"[-11.733433509789462, 11.733433509789464]",-11.733433509789462,11.733433509789464,0,1,1,0.557810121954844,1.557810121954844,1.442189878045156,3.0,1,1.307810121954844,0,4.0,3.0,1,2,4,0,4,0,0,4,4,3,,,,,,,322.6792188338004,322.6792188338004,323.67958504194394,323.99859962495975,324.23197945882566,324.23197945882566,324.23197945882566,325.6796930839773,325.6796930839773,325.6796930839773,325.6796930839773,326.6791160418652,200004,001,2023-03-31_10h36.35.643,DMS_et_12-36,2022.2.4,None,
37,PRED,12,0.557810121954844,1,images/picture_2.png,images/picture_1.png,0,"[-11.733433509789462, 11.733433509789464]",-11.733433509789462,11.733433509789464,images/picture_2.png,1,"[-11.733433509789466, -11.733433509789462]",-11.733433509789464,-11.733433509789462,images/picture_3.png,2,"[11.733433509789464, 11.733433509789462]",11.733433509789464,11.733433509789462,0,1,1,0.557810121954844,1.557810121954844,1.442189878045156,3.0,1,1.307810121954844,0,4.0,3.0,1,2,4,0,4,0,0,5,5,1,,,,,,,326.6791160418652,326.6791160418652,327.6793578749057,327.9990814588964,328.23216370888986,328.23216370888986,328.23216370888986,329.6796547919512,329.6796547919512,329.6796547919512,329.6796547919512,330.67907866695896,200004,001,2023-03-31_10h36.35.643,DMS_et_12-36,2022.2.4,None,
41,PRED,12,0.557810121954844,1,images/picture_2.png,images/picture_1.png,0,"[-11.733433509789462, 11.733433509789464]",-11.733433509789462,11.733433509789464,images/picture_2.png,1,"[-11.733433509789466, -11.733433509789462]",-11.733433509789464,-11.733433509789462,images/picture_3.png,2,"[11.733433509789462, -11.733433509789466]",11.733433509789462,-11.733433509789464,0,1,1,0.557810121954844,1.557810121954844,1.442189878045156,3.0,1,1.307810121954844,0,4.0,3.0,1,2,4,0,4,0,0,6,6,5,,,,,,,330.67907866695896,330.67907866695896,331.67958870879374,331.99889795901254,332.2313524167985,332.2313524167985,332.2313524167985,333.67956741689704,333.67956741689704,333.67956741689704,333.67956741689704,334.67904458381236,200004,001,2023-03-31_10h36.35.643,DMS_et_12-36,2022.2.4,None,
43,PRED,12,0.557810121954844,1,images/picture_2.png,images/picture_1.png,0,"[11.733433509789462, -11.733433509789466]",11.733433509789462,-11.733433509789464,images/picture_2.png,1,"[-11.733433509789466, -11.733433509789462]",-11.733433509789464,-11.733433509789462,images/picture_3.png,2,"[11.733433509789464, 11.733433509789462]",11.733433509789464,11.733433509789462,0,1,1,0.557810121954844,1.557810121954844,1.442189878045156,3.0,1,1.307810121954844,0,4.0,3.0,1,2,4,0,4,0,0,7,7,7,,,,,,,334.67904458381236,334.67904458381236,335.67966899997555,335.99909179192036,336.23229866684414,336.23229866684414,336.23229866684414,337.67957129189745,337.67957129189745,337.67957129189745,337.67957129189745,338.6790925418027,200004,001,2023-03-31_10h36.35.643,DMS_et_12-36,2022.2.4,None,
40,PRED,12,0.557810121954844,1,images/picture_2.png,images/picture_1.png,0,"[11.733433509789462, -11.733433509789466]",11.733433509789462,-11.733433509789464,images/picture_2.png,1,"[-11.733433509789466, -11.733433509789462]",-11.733433509789464,-11.733433509789462,images/picture_3.png,2,"[-11.733433509789462, 11.733433509789464]",-11.733433509789462,11.733433509789464,0,1,1,0.557810121954844,1.557810121954844,1.442189878045156,3.0,1,1.307810121954844,0,4.0,3.0,1,2,4,0,4,0,0,8,8,4,,,,,,,338.6790925418027,338.6790925418027,339.67955049988814,339.9989593338687,340.2322155418806,340.2322155418806,340.2322155418806,341.67958283401094,341.67958283401094,341.67958283401094,341.67958283401094,342.72102641686797,200004,001,2023-03-31_10h36.35.643,DMS_et_12-36,2022.2.4,None,
,,,,,,,,,,,,,,,,,,,,,,,,,,,,,,,,,,,4,0,4,0,,,,,,,,,342.72102641686797,354.75601916690357,,,,,,,,,,,,,200004,001,2023-03-31_10h36.35.643,DMS_et_12-36,2022.2.4,None,
51,UNPRED,12,0.557810121954844,2,images/picture_3.png,images/picture_1.png,0,"[-11.733433509789462, 11.733433509789464]",-11.733433509789462,11.733433509789464,images/picture_2.png,1,"[11.733433509789464, 11.733433509789462]",11.733433509789464,11.733433509789462,images/picture_3.png,2,"[11.733433509789462, -11.733433509789466]",11.733433509789462,-11.733433509789464,0,1,1,0.557810121954844,1.557810121954844,1.442189878045156,3.0,1,1.307810121954844,0,4.0,3.0,1,2,5,0,5,0,0,0,0,6,,,,,,,354.75601916690357,354.75601916690357,355.7655756250024,356.0657510838937,356.29922483395785,356.29922483395785,356.29922483395785,357.74648495879956,357.74648495879956,357.74648495879956,357.74648495879956,358.7470708338078,200004,001,2023-03-31_10h36.35.643,DMS_et_12-36,2022.2.4,None,
52,UNPRED,12,0.557810121954844,1,images/picture_2.png,images/picture_1.png,0,"[11.733433509789464, 11.733433509789462]",11.733433509789464,11.733433509789462,images/picture_2.png,1,"[-11.733433509789466, -11.733433509789462]",-11.733433509789464,-11.733433509789462,images/picture_3.png,2,"[11.733433509789462, -11.733433509789466]",11.733433509789462,-11.733433509789464,0,1,1,0.557810121954844,1.557810121954844,1.442189878045156,3.0,1,1.307810121954844,0,4.0,3.0,1,2,5,0,5,0,0,1,1,7,,,,,,,358.7470708338078,358.7470708338078,359.74592266697437,360.06464520888403,360.29828433389775,360.29828433389775,360.29828433389775,361.7463879589923,361.7463879589923,361.7463879589923,361.7463879589923,362.74535074993037,200004,001,2023-03-31_10h36.35.643,DMS_et_12-36,2022.2.4,None,
49,UNPRED,12,0.557810121954844,0,images/picture_1.png,images/picture_1.png,0,"[-11.733433509789462, 11.733433509789464]",-11.733433509789462,11.733433509789464,images/picture_2.png,1,"[-11.733433509789466, -11.733433509789462]",-11.733433509789464,-11.733433509789462,images/picture_3.png,2,"[11.733433509789464, 11.733433509789462]",11.733433509789464,11.733433509789462,0,1,1,0.557810121954844,1.557810121954844,1.442189878045156,3.0,1,1.307810121954844,0,4.0,3.0,1,2,5,0,5,0,0,2,2,4,,,,,,,362.74535074993037,362.74535074993037,363.74606920895167,364.0651809168048,364.29880620888434,364.29880620888434,364.29880620888434,365.7463841668796,365.7463841668796,365.7463841668796,365.7463841668796,366.76575516699813,200004,001,2023-03-31_10h36.35.643,DMS_et_12-36,2022.2.4,None,
46,UNPRED,12,0.557810121954844,2,images/picture_3.png,images/picture_1.png,0,"[11.733433509789464, 11.733433509789462]",11.733433509789464,11.733433509789462,images/picture_2.png,1,"[11.733433509789462, -11.733433509789466]",11.733433509789462,-11.733433509789464,images/picture_3.png,2,"[-11.733433509789462, 11.733433509789464]",-11.733433509789462,11.733433509789464,0,1,1,0.557810121954844,1.557810121954844,1.442189878045156,3.0,1,1.307810121954844,0,4.0,3.0,1,2,5,0,5,0,0,3,3,1,,,,,,,366.76575516699813,366.76575516699813,367.77961074979976,368.07987537491135,368.2989990839269,368.2989990839269,368.2989990839269,369.7463893338572,369.7463893338572,369.7463893338572,369.7463893338572,370.7462997918483,200004,001,2023-03-31_10h36.35.643,DMS_et_12-36,2022.2.4,None,
48,UNPRED,12,0.557810121954844,0,images/picture_1.png,images/picture_1.png,0,"[-11.733433509789462, 11.733433509789464]",-11.733433509789462,11.733433509789464,images/picture_2.png,1,"[-11.733433509789466, -11.733433509789462]",-11.733433509789464,-11.733433509789462,images/picture_3.png,2,"[11.733433509789464, 11.733433509789462]",11.733433509789464,11.733433509789462,0,1,1,0.557810121954844,1.557810121954844,1.442189878045156,3.0,1,1.307810121954844,0,4.0,3.0,1,2,5,0,5,0,0,4,4,3,,,,,,,370.7462997918483,370.7462997918483,371.74637199984863,372.0655717498157,372.29890004196204,372.29890004196204,372.29890004196204,373.7460507089272,373.7460507089272,373.7460507089272,373.7460507089272,374.74657274992205,200004,001,2023-03-31_10h36.35.643,DMS_et_12-36,2022.2.4,None,
50,UNPRED,12,0.557810121954844,1,images/picture_2.png,images/picture_1.png,0,"[11.733433509789462, -11.733433509789466]",11.733433509789462,-11.733433509789464,images/picture_2.png,1,"[11.733433509789464, 11.733433509789462]",11.733433509789464,11.733433509789462,images/picture_3.png,2,"[-11.733433509789466, -11.733433509789462]",-11.733433509789464,-11.733433509789462,0,1,1,0.557810121954844,1.557810121954844,1.442189878045156,3.0,1,1.307810121954844,0,4.0,3.0,1,2,5,0,5,0,0,5,5,5,,,,,,,374.74657274992205,374.74657274992205,375.74662112491205,376.0657375419978,376.29917387501337,376.29917387501337,376.29917387501337,377.7463444590103,377.7463444590103,377.7463444590103,377.7463444590103,378.76502124988474,200004,001,2023-03-31_10h36.35.643,DMS_et_12-36,2022.2.4,None,
47,UNPRED,12,0.557810121954844,2,images/picture_3.png,images/picture_1.png,0,"[-11.733433509789466, -11.733433509789462]",-11.733433509789464,-11.733433509789462,images/picture_2.png,1,"[-11.733433509789462, 11.733433509789464]",-11.733433509789462,11.733433509789464,images/picture_3.png,2,"[11.733433509789464, 11.733433509789462]",11.733433509789464,11.733433509789462,0,1,1,0.557810121954844,1.557810121954844,1.442189878045156,3.0,1,1.307810121954844,0,4.0,3.0,1,2,5,0,5,0,0,6,6,2,,,,,,,378.76502124988474,378.76502124988474,379.7797849588096,380.0799948750064,380.2990501248278,380.2990501248278,380.2990501248278,381.74637462501414,381.74637462501414,381.74637462501414,381.74637462501414,382.7650665419642,200004,001,2023-03-31_10h36.35.643,DMS_et_12-36,2022.2.4,None,
53,UNPRED,12,0.557810121954844,2,images/picture_3.png,images/picture_1.png,0,"[-11.733433509789466, -11.733433509789462]",-11.733433509789464,-11.733433509789462,images/picture_2.png,1,"[-11.733433509789462, 11.733433509789464]",-11.733433509789462,11.733433509789464,images/picture_3.png,2,"[11.733433509789462, -11.733433509789466]",11.733433509789462,-11.733433509789464,0,1,1,0.557810121954844,1.557810121954844,1.442189878045156,3.0,1,1.307810121954844,0,4.0,3.0,1,2,5,0,5,0,0,7,7,8,,,,,,,382.7650665419642,382.7650665419642,383.77943562483415,384.0795770417899,384.29830299993046,384.29830299993046,384.29830299993046,385.7463498748839,385.7463498748839,385.7463498748839,385.7463498748839,386.7465527919121,200004,001,2023-03-31_10h36.35.643,DMS_et_12-36,2022.2.4,None,
45,UNPRED,12,0.557810121954844,0,images/picture_1.png,images/picture_1.png,0,"[-11.733433509789466, -11.733433509789462]",-11.733433509789464,-11.733433509789462,images/picture_2.png,1,"[11.733433509789464, 11.733433509789462]",11.733433509789464,11.733433509789462,images/picture_3.png,2,"[11.733433509789462, -11.733433509789466]",11.733433509789462,-11.733433509789464,0,1,1,0.557810121954844,1.557810121954844,1.442189878045156,3.0,1,1.307810121954844,0,4.0,3.0,1,2,5,0,5,0,0,8,8,0,,,,,,,386.7465527919121,386.7465527919121,387.74639441701584,388.0657510419842,388.2990102500189,388.2990102500189,388.2990102500189,389.74653358384967,389.74653358384967,389.74653358384967,389.74653358384967,390.86508666700684,200004,001,2023-03-31_10h36.35.643,DMS_et_12-36,2022.2.4,None,
,,,,,,,,,,,,,,,,,,,,,,,,,,,,,,,,,,,5,0,5,0,,,,,,,,,390.86508666700684,402.9079723339528,,,,,,,,,,,,,200004,001,2023-03-31_10h36.35.643,DMS_et_12-36,2022.2.4,None,
60,PRED,12,0.557810121954844,2,images/picture_3.png,images/picture_1.png,0,"[11.733433509789464, 11.733433509789462]",11.733433509789464,11.733433509789462,images/picture_2.png,1,"[-11.733433509789462, 11.733433509789464]",-11.733433509789462,11.733433509789464,images/picture_3.png,2,"[11.733433509789462, -11.733433509789466]",11.733433509789462,-11.733433509789464,0,1,1,0.557810121954844,1.557810121954844,1.442189878045156,3.0,1,1.307810121954844,0,4.0,3.0,1,2,6,0,6,0,0,0,0,6,,,,,,,402.9079723339528,402.9079723339528,403.91321229189634,404.21292412490584,404.44603941682726,404.44603941682726,404.44603941682726,405.8994215838611,405.8994215838611,405.8994215838611,405.8994215838611,406.9320493747946,200004,001,2023-03-31_10h36.35.643,DMS_et_12-36,2022.2.4,None,
59,PRED,12,0.557810121954844,2,images/picture_3.png,images/picture_1.png,0,"[-11.733433509789462, 11.733433509789464]",-11.733433509789462,11.733433509789464,images/picture_2.png,1,"[-11.733433509789466, -11.733433509789462]",-11.733433509789464,-11.733433509789462,images/picture_3.png,2,"[11.733433509789462, -11.733433509789466]",11.733433509789462,-11.733433509789464,0,1,1,0.557810121954844,1.557810121954844,1.442189878045156,3.0,1,1.307810121954844,0,4.0,3.0,1,2,6,0,6,0,0,1,1,5,,,,,,,406.9320493747946,406.9320493747946,407.94641733379103,408.2465696670115,408.4657761249691,408.4657761249691,408.4657761249691,409.913301916793,409.913301916793,409.913301916793,409.913301916793,410.931789083872,200004,001,2023-03-31_10h36.35.643,DMS_et_12-36,2022.2.4,None,
56,PRED,12,0.557810121954844,2,images/picture_3.png,images/picture_1.png,0,"[-11.733433509789466, -11.733433509789462]",-11.733433509789464,-11.733433509789462,images/picture_2.png,1,"[-11.733433509789462, 11.733433509789464]",-11.733433509789462,11.733433509789464,images/picture_3.png,2,"[11.733433509789464, 11.733433509789462]",11.733433509789464,11.733433509789462,0,1,1,0.557810121954844,1.557810121954844,1.442189878045156,3.0,1,1.307810121954844,0,4.0,3.0,1,2,6,0,6,0,0,2,2,2,,,,,,,410.931789083872,410.931789083872,411.94677191693336,412.2465683748014,412.4657749168109,412.4657749168109,412.4657749168109,413.9130774589721,413.9130774589721,413.9130774589721,413.9130774589721,414.9134832499549,200004,001,2023-03-31_10h36.35.643,DMS_et_12-36,2022.2.4,None,
54,PRED,12,0.557810121954844,2,images/picture_3.png,images/picture_1.png,0,"[11.733433509789462, -11.733433509789466]",11.733433509789462,-11.733433509789464,images/picture_2.png,1,"[-11.733433509789462, 11.733433509789464]",-11.733433509789462,11.733433509789464,images/picture_3.png,2,"[11.733433509789464, 11.733433509789462]",11.733433509789464,11.733433509789462,0,1,1,0.557810121954844,1.557810121954844,1.442189878045156,3.0,1,1.307810121954844,0,4.0,3.0,1,2,6,0,6,0,0,3,3,0,,,,,,,414.9134832499549,414.9134832499549,415.9134102088865,416.23243845882826,416.46558095887303,416.46558095887303,416.46558095887303,417.913119208999,417.913119208999,417.913119208999,417.913119208999,418.93194429180585,200004,001,2023-03-31_10h36.35.643,DMS_et_12-36,2022.2.4,None,
55,PRED,12,0.557810121954844,2,images/picture_3.png,images/picture_1.png,0,"[-11.733433509789466, -11.733433509789462]",-11.733433509789464,-11.733433509789462,images/picture_2.png,1,"[-11.733433509789462, 11.733433509789464]",-11.733433509789462,11.733433509789464,images/picture_3.png,2,"[11.733433509789462, -11.733433509789466]",11.733433509789462,-11.733433509789464,0,1,1,0.557810121954844,1.557810121954844,1.442189878045156,3.0,1,1.307810121954844,0,4.0,3.0,1,2,6,0,6,0,0,4,4,1,,,,,,,418.93194429180585,418.93194429180585,419.94650416681543,420.2466219170019,420.4662948749028,420.4662948749028,420.4662948749028,421.91334845894016,421.91334845894016,421.91334845894016,421.91334845894016,422.93179341685027,200004,001,2023-03-31_10h36.35.643,DMS_et_12-36,2022.2.4,None,
61,PRED,12,0.557810121954844,2,images/picture_3.png,images/picture_1.png,0,"[-11.733433509789462, 11.733433509789464]",-11.733433509789462,11.733433509789464,images/picture_2.png,1,"[11.733433509789462, -11.733433509789466]",11.733433509789462,-11.733433509789464,images/picture_3.png,2,"[11.733433509789464, 11.733433509789462]",11.733433509789464,11.733433509789462,0,1,1,0.557810121954844,1.557810121954844,1.442189878045156,3.0,1,1.307810121954844,0,4.0,3.0,1,2,6,0,6,0,0,5,5,7,,,,,,,422.93179341685027,422.93179341685027,423.94663670891896,424.24664691695943,424.46556570893154,424.46556570893154,424.46556570893154,425.9131732918322,425.9131732918322,425.9131732918322,425.9131732918322,426.9319954169914,200004,001,2023-03-31_10h36.35.643,DMS_et_12-36,2022.2.4,None,
57,PRED,12,0.557810121954844,2,images/picture_3.png,images/picture_1.png,0,"[-11.733433509789466, -11.733433509789462]",-11.733433509789464,-11.733433509789462,images/picture_2.png,1,"[11.733433509789464, 11.733433509789462]",11.733433509789464,11.733433509789462,images/picture_3.png,2,"[-11.733433509789462, 11.733433509789464]",-11.733433509789462,11.733433509789464,0,1,1,0.557810121954844,1.557810121954844,1.442189878045156,3.0,1,1.307810121954844,0,4.0,3.0,1,2,6,0,6,0,0,6,6,3,,,,,,,426.9319954169914,426.9319954169914,427.9465654590167,428.2465834589675,428.46579266688786,428.46579266688786,428.46579266688786,429.91332108387724,429.91332108387724,429.91332108387724,429.91332108387724,430.93283599987626,200004,001,2023-03-31_10h36.35.643,DMS_et_12-36,2022.2.4,None,
58,PRED,12,0.557810121954844,2,images/picture_3.png,images/picture_1.png,0,"[-11.733433509789466, -11.733433509789462]",-11.733433509789464,-11.733433509789462,images/picture_2.png,1,"[11.733433509789462, -11.733433509789466]",11.733433509789462,-11.733433509789464,images/picture_3.png,2,"[-11.733433509789462, 11.733433509789464]",-11.733433509789462,11.733433509789464,0,1,1,0.557810121954844,1.557810121954844,1.442189878045156,3.0,1,1.307810121954844,0,4.0,3.0,1,2,6,0,6,0,0,7,7,4,,,,,,,430.93283599987626,430.93283599987626,431.9466089589987,432.24663612479344,432.46584845893085,432.46584845893085,432.46584845893085,433.91340529196896,433.91340529196896,433.91340529196896,433.91340529196896,434.9318312499672,200004,001,2023-03-31_10h36.35.643,DMS_et_12-36,2022.2.4,None,
62,PRED,12,0.557810121954844,2,images/picture_3.png,images/picture_1.png,0,"[11.733433509789462, -11.733433509789466]",11.733433509789462,-11.733433509789464,images/picture_2.png,1,"[-11.733433509789466, -11.733433509789462]",-11.733433509789464,-11.733433509789462,images/picture_3.png,2,"[-11.733433509789462, 11.733433509789464]",-11.733433509789462,11.733433509789464,0,1,1,0.557810121954844,1.557810121954844,1.442189878045156,3.0,1,1.307810121954844,0,4.0,3.0,1,2,6,0,6,0,0,8,8,8,,,,,,,434.9318312499672,434.9318312499672,435.946356208995,436.24660999979824,436.46575920889154,436.46575920889154,436.46575920889154,437.91312399995513,437.91312399995513,437.91312399995513,437.91312399995513,438.9940117499791,200004,001,2023-03-31_10h36.35.643,DMS_et_12-36,2022.2.4,None,
,,,,,,,,,,,,,,,,,,,,,,,,,,,,,,,,,,,6,0,6,0,,,,,,,,,438.9940117499791,451.0204415419139,,,,,,,,,,,,,200004,001,2023-03-31_10h36.35.643,DMS_et_12-36,2022.2.4,None,
65,UNPRED,12,0.557810121954844,2,images/picture_3.png,images/picture_1.png,0,"[11.733433509789462, -11.733433509789466]",11.733433509789462,-11.733433509789464,images/picture_2.png,1,"[-11.733433509789466, -11.733433509789462]",-11.733433509789464,-11.733433509789462,images/picture_3.png,2,"[11.733433509789464, 11.733433509789462]",11.733433509789464,11.733433509789462,0,1,1,0.557810121954844,1.557810121954844,1.442189878045156,3.0,1,1.307810121954844,0,4.0,3.0,1,2,7,0,7,0,0,0,0,2,,,,,,,451.0204415419139,451.0204415419139,452.03248737496324,452.3327459588181,452.5661973338574,452.5661973338574,452.5661973338574,454.013329166919,454.013329166919,454.013329166919,454.013329166919,455.03245108388364,200004,001,2023-03-31_10h36.35.643,DMS_et_12-36,2022.2.4,None,
64,UNPRED,12,0.557810121954844,2,images/picture_3.png,images/picture_1.png,0,"[11.733433509789462, -11.733433509789466]",11.733433509789462,-11.733433509789464,images/picture_2.png,1,"[-11.733433509789462, 11.733433509789464]",-11.733433509789462,11.733433509789464,images/picture_3.png,2,"[-11.733433509789466, -11.733433509789462]",-11.733433509789464,-11.733433509789462,0,1,1,0.557810121954844,1.557810121954844,1.442189878045156,3.0,1,1.307810121954844,0,4.0,3.0,1,2,7,0,7,0,0,1,1,1,,,,,,,455.03245108388364,455.03245108388364,456.04640783392824,456.3463708749041,456.56530625000596,456.56530625000596,456.56530625000596,458.01336154202,458.01336154202,458.01336154202,458.01336154202,459.0129470839165,200004,001,2023-03-31_10h36.35.643,DMS_et_12-36,2022.2.4,None,
70,UNPRED,12,0.557810121954844,1,images/picture_2.png,images/picture_1.png,0,"[-11.733433509789466, -11.733433509789462]",-11.733433509789464,-11.733433509789462,images/picture_2.png,1,"[-11.733433509789462, 11.733433509789464]",-11.733433509789462,11.733433509789464,images/picture_3.png,2,"[11.733433509789462, -11.733433509789466]",11.733433509789462,-11.733433509789464,0,1,1,0.557810121954844,1.557810121954844,1.442189878045156,3.0,1,1.307810121954844,0,4.0,3.0,1,2,7,0,7,0,0,2,2,7,,,,,,,459.0129470839165,459.0129470839165,460.0135430418886,460.3324314998463,460.5659356669057,460.5659356669057,460.5659356669057,462.0133390419651,462.0133390419651,462.0133390419651,462.0133390419651,463.0324834168423,200004,001,2023-03-31_10h36.35.643,DMS_et_12-36,2022.2.4,None,
66,UNPRED,12,0.557810121954844,2,images/picture_3.png,images/picture_1.png,0,"[11.733433509789464, 11.733433509789462]",11.733433509789464,11.733433509789462,images/picture_2.png,1,"[-11.733433509789462, 11.733433509789464]",-11.733433509789462,11.733433509789464,images/picture_3.png,2,"[11.733433509789462, -11.733433509789466]",11.733433509789462,-11.733433509789464,0,1,1,0.557810121954844,1.557810121954844,1.442189878045156,3.0,1,1.307810121954844,0,4.0,3.0,1,2,7,0,7,0,0,3,3,3,,,,,,,463.0324834168423,463.0324834168423,464.04678658396006,464.34665587497875,464.56589558394626,464.56589558394626,464.56589558394626,466.0130812500138,466.0130812500138,466.0130812500138,466.0130812500138,467.0132767090108,200004,001,2023-03-31_10h36.35.643,DMS_et_12-36,2022.2.4,None,
63,UNPRED,12,0.557810121954844,0,images/picture_1.png,images/picture_1.png,0,"[-11.733433509789466, -11.733433509789462]",-11.733433509789464,-11.733433509789462,images/picture_2.png,1,"[11.733433509789464, 11.733433509789462]",11.733433509789464,11.733433509789462,images/picture_3.png,2,"[-11.733433509789462, 11.733433509789464]",-11.733433509789462,11.733433509789464,0,1,1,0.557810121954844,1.557810121954844,1.442189878045156,3.0,1,1.307810121954844,0,4.0,3.0,1,2,7,0,7,0,0,4,4,0,,,,,,,467.0132767090108,467.0132767090108,468.0133747498039,468.3326149589848,468.56593383383006,468.56593383383006,468.56593383383006,470.0133337499574,470.0133337499574,470.0133337499574,470.0133337499574,471.01287845894694,200004,001,2023-03-31_10h36.35.643,DMS_et_12-36,2022.2.4,None,
67,UNPRED,12,0.557810121954844,1,images/picture_2.png,images/picture_1.png,0,"[11.733433509789462, -11.733433509789466]",11.733433509789462,-11.733433509789464,images/picture_2.png,1,"[-11.733433509789462, 11.733433509789464]",-11.733433509789462,11.733433509789464,images/picture_3.png,2,"[-11.733433509789466, -11.733433509789462]",-11.733433509789464,-11.733433509789462,0,1,1,0.557810121954844,1.557810121954844,1.442189878045156,3.0,1,1.307810121954844,0,4.0,3.0,1,2,7,0,7,0,0,5,5,4,,,,,,,471.01287845894694,471.01287845894694,472.0133572919294,472.33290324988775,472.56609249999747,472.56609249999747,472.56609249999747,474.01346062496305,474.01346062496305,474.01346062496305,474.01346062496305,475.01301399990916,200004,001,2023-03-31_10h36.35.643,DMS_et_12-36,2022.2.4,None,
71,UNPRED,12,0.557810121954844,1,images/picture_2.png,images/picture_1.png,0,"[-11.733433509789462, 11.733433509789464]",-11.733433509789462,11.733433509789464,images/picture_2.png,1,"[11.733433509789464, 11.733433509789462]",11.733433509789464,11.733433509789462,images/picture_3.png,2,"[11.733433509789462, -11.733433509789466]",11.733433509789462,-11.733433509789464,0,1,1,0.557810121954844,1.557810121954844,1.442189878045156,3.0,1,1.307810121954844,0,4.0,3.0,1,2,7,0,7,0,0,6,6,8,,,,,,,475.01301399990916,475.01301399990916,476.013334749965,476.33242899994366,476.56535579194315,476.56535579194315,476.56535579194315,478.01336870901287,478.01336870901287,478.01336870901287,478.01336870901287,479.0320200419519,200004,001,2023-03-31_10h36.35.643,DMS_et_12-36,2022.2.4,None,
68,UNPRED,12,0.557810121954844,2,images/picture_3.png,images/picture_1.png,0,"[11.733433509789462, -11.733433509789466]",11.733433509789462,-11.733433509789464,images/picture_2.png,1,"[-11.733433509789462, 11.733433509789464]",-11.733433509789462,11.733433509789464,images/picture_3.png,2,"[11.733433509789464, 11.733433509789462]",11.733433509789464,11.733433509789462,0,1,1,0.557810121954844,1.557810121954844,1.442189878045156,3.0,1,1.307810121954844,0,4.0,3.0,1,2,7,0,7,0,0,7,7,5,,,,,,,479.0320200419519,479.0320200419519,480.0466563338414,480.34678937494755,480.5659992499277,480.5659992499277,480.5659992499277,482.01357354200445,482.01357354200445,482.01357354200445,482.01357354200445,483.03196445899084,200004,001,2023-03-31_10h36.35.643,DMS_et_12-36,2022.2.4,None,
69,UNPRED,12,0.557810121954844,2,images/picture_3.png,images/picture_1.png,0,"[-11.733433509789462, 11.733433509789464]",-11.733433509789462,11.733433509789464,images/picture_2.png,1,"[11.733433509789462, -11.733433509789466]",11.733433509789462,-11.733433509789464,images/picture_3.png,2,"[11.733433509789464, 11.733433509789462]",11.733433509789464,11.733433509789462,0,1,1,0.557810121954844,1.557810121954844,1.442189878045156,3.0,1,1.307810121954844,0,4.0,3.0,1,2,7,0,7,0,0,8,8,6,,,,,,,483.03196445899084,483.03196445899084,484.04690637486055,484.3468207088299,484.5662599999923,484.5662599999923,484.5662599999923,486.0133850418497,486.0133850418497,486.0133850418497,486.0133850418497,487.08167341700755,200004,001,2023-03-31_10h36.35.643,DMS_et_12-36,2022.2.4,None,
,,,,,,,,,,,,,,,,,,,,,,,,,,,,,,,,,,,7,0,7,0,,,,,,,,,487.08167341700755,499.1004333340097,,,,,,,,,,,,,200004,001,2023-03-31_10h36.35.643,DMS_et_12-36,2022.2.4,None,
76,PRED,12,0.557810121954844,0,images/picture_1.png,images/picture_1.png,0,"[11.733433509789464, 11.733433509789462]",11.733433509789464,11.733433509789462,images/picture_2.png,1,"[-11.733433509789466, -11.733433509789462]",-11.733433509789464,-11.733433509789462,images/picture_3.png,2,"[11.733433509789462, -11.733433509789466]",11.733433509789462,-11.733433509789464,0,1,1,0.557810121954844,1.557810121954844,1.442189878045156,3.0,1,1.307810121954844,0,4.0,3.0,1,2,8,0,8,0,0,0,0,4,,,,,,,499.1004333340097,499.1004333340097,500.113585291896,500.41361912479624,500.64682454196736,500.64682454196736,500.64682454196736,502.099459458841,502.099459458841,502.099459458841,502.099459458841,503.11312449979596,200004,001,2023-03-31_10h36.35.643,DMS_et_12-36,2022.2.4,None,
79,PRED,12,0.557810121954844,0,images/picture_1.png,images/picture_1.png,0,"[-11.733433509789466, -11.733433509789462]",-11.733433509789464,-11.733433509789462,images/picture_2.png,1,"[11.733433509789464, 11.733433509789462]",11.733433509789464,11.733433509789462,images/picture_3.png,2,"[-11.733433509789462, 11.733433509789464]",-11.733433509789462,11.733433509789464,0,1,1,0.557810121954844,1.557810121954844,1.442189878045156,3.0,1,1.307810121954844,0,4.0,3.0,1,2,8,0,8,0,0,1,1,7,,,,,,,503.11312449979596,503.11312449979596,504.11351379193366,504.4330723339226,504.6661629169248,504.6661629169248,504.6661629169248,506.11361945886165,506.11361945886165,506.11361945886165,506.11361945886165,507.11313820886426,200004,001,2023-03-31_10h36.35.643,DMS_et_12-36,2022.2.4,None,
75,PRED,12,0.557810121954844,0,images/picture_1.png,images/picture_1.png,0,"[-11.733433509789466, -11.733433509789462]",-11.733433509789464,-11.733433509789462,images/picture_2.png,1,"[11.733433509789462, -11.733433509789466]",11.733433509789462,-11.733433509789464,images/picture_3.png,2,"[11.733433509789464, 11.733433509789462]",11.733433509789464,11.733433509789462,0,1,1,0.557810121954844,1.557810121954844,1.442189878045156,3.0,1,1.307810121954844,0,4.0,3.0,1,2,8,0,8,0,0,2,2,3,,,,,,,507.11313820886426,507.11313820886426,508.113585999934,508.432525874814,508.6661658748053,508.6661658748053,508.6661658748053,510.11366129200906,510.11366129200906,510.11366129200906,510.11366129200906,511.1132164169103,200004,001,2023-03-31_10h36.35.643,DMS_et_12-36,2022.2.4,None,
72,PRED,12,0.557810121954844,0,images/picture_1.png,images/picture_1.png,0,"[11.733433509789464, 11.733433509789462]",11.733433509789464,11.733433509789462,images/picture_2.png,1,"[11.733433509789462, -11.733433509789466]",11.733433509789462,-11.733433509789464,images/picture_3.png,2,"[-11.733433509789466, -11.733433509789462]",-11.733433509789464,-11.733433509789462,0,1,1,0.557810121954844,1.557810121954844,1.442189878045156,3.0,1,1.307810121954844,0,4.0,3.0,1,2,8,0,8,0,0,3,3,0,,,,,,,511.1132164169103,511.1132164169103,512.1136947919149,512.4327431668062,512.6662190838251,512.6662190838251,512.6662190838251,514.1136074999813,514.1136074999813,514.1136074999813,514.1136074999813,515.1131350419018,200004,001,2023-03-31_10h36.35.643,DMS_et_12-36,2022.2.4,None,
73,PRED,12,0.557810121954844,0,images/picture_1.png,images/picture_1.png,0,"[11.733433509789462, -11.733433509789466]",11.733433509789462,-11.733433509789464,images/picture_2.png,1,"[11.733433509789464, 11.733433509789462]",11.733433509789464,11.733433509789462,images/picture_3.png,2,"[-11.733433509789466, -11.733433509789462]",-11.733433509789464,-11.733433509789462,0,1,1,0.557810121954844,1.557810121954844,1.442189878045156,3.0,1,1.307810121954844,0,4.0,3.0,1,2,8,0,8,0,0,4,4,1,,,,,,,515.1131350419018,515.1131350419018,516.1135812089778,516.4327182918787,516.6663019999396,516.6663019999396,516.6663019999396,518.1133830419276,518.1133830419276,518.1133830419276,518.1133830419276,519.1129502088297,200004,001,2023-03-31_10h36.35.643,DMS_et_12-36,2022.2.4,None,
77,PRED,12,0.557810121954844,0,images/picture_1.png,images/picture_1.png,0,"[-11.733433509789466, -11.733433509789462]",-11.733433509789464,-11.733433509789462,images/picture_2.png,1,"[11.733433509789464, 11.733433509789462]",11.733433509789464,11.733433509789462,images/picture_3.png,2,"[11.733433509789462, -11.733433509789466]",11.733433509789462,-11.733433509789464,0,1,1,0.557810121954844,1.557810121954844,1.442189878045156,3.0,1,1.307810121954844,0,4.0,3.0,1,2,8,0,8,0,0,5,5,5,,,,,,,519.1129502088297,519.1129502088297,520.1136539590079,520.4326667499263,520.6663681250066,520.6663681250066,520.6663681250066,522.1135817088652,522.1135817088652,522.1135817088652,522.1135817088652,523.1133222498465,200004,001,2023-03-31_10h36.35.643,DMS_et_12-36,2022.2.4,None,
80,PRED,12,0.557810121954844,0,images/picture_1.png,images/picture_1.png,0,"[11.733433509789464, 11.733433509789462]",11.733433509789464,11.733433509789462,images/picture_2.png,1,"[-11.733433509789466, -11.733433509789462]",-11.733433509789464,-11.733433509789462,images/picture_3.png,2,"[11.733433509789462, -11.733433509789466]",11.733433509789462,-11.733433509789464,0,1,1,0.557810121954844,1.557810121954844,1.442189878045156,3.0,1,1.307810121954844,0,4.0,3.0,1,2,8,0,8,0,0,6,6,8,,,,,,,523.1133222498465,523.1133222498465,524.1136548339855,524.432884208858,524.666323042009,524.666323042009,524.666323042009,526.1131463339552,526.1131463339552,526.1131463339552,526.1131463339552,527.1132353339344,200004,001,2023-03-31_10h36.35.643,DMS_et_12-36,2022.2.4,None,
74,PRED,12,0.557810121954844,0,images/picture_1.png,images/picture_1.png,0,"[-11.733433509789462, 11.733433509789464]",-11.733433509789462,11.733433509789464,images/picture_2.png,1,"[11.733433509789462, -11.733433509789466]",11.733433509789462,-11.733433509789464,images/picture_3.png,2,"[-11.733433509789466, -11.733433509789462]",-11.733433509789464,-11.733433509789462,0,1,1,0.557810121954844,1.557810121954844,1.442189878045156,3.0,1,1.307810121954844,0,4.0,3.0,1,2,8,0,8,0,0,7,7,2,,,,,,,527.1132353339344,527.1132353339344,528.1134815840051,528.4326142088976,528.666647041915,528.666647041915,528.666647041915,530.1136070420034,530.1136070420034,530.1136070420034,530.1136070420034,531.1131902087945,200004,001,2023-03-31_10h36.35.643,DMS_et_12-36,2022.2.4,None,
78,PRED,12,0.557810121954844,0,images/picture_1.png,images/picture_1.png,0,"[-11.733433509789466, -11.733433509789462]",-11.733433509789464,-11.733433509789462,images/picture_2.png,1,"[11.733433509789464, 11.733433509789462]",11.733433509789464,11.733433509789462,images/picture_3.png,2,"[-11.733433509789462, 11.733433509789464]",-11.733433509789462,11.733433509789464,0,1,1,0.557810121954844,1.557810121954844,1.442189878045156,3.0,1,1.307810121954844,0,4.0,3.0,1,2,8,0,8,0,0,8,8,6,,,,,,,531.1131902087945,531.1131902087945,532.113603167003,532.432677041972,532.6663875838276,532.6663875838276,532.6663875838276,534.1138043748215,534.1138043748215,534.1138043748215,534.1138043748215,535.2080848750193,200004,001,2023-03-31_10h36.35.643,DMS_et_12-36,2022.2.4,None,
,,,,,,,,,,,,,,,,,,,,,,,,,,,,,,,,,,,8,0,8,0,,,,,,,,,535.2080848750193,547.2461458339822,,,,,,,,,,,,,200004,001,2023-03-31_10h36.35.643,DMS_et_12-36,2022.2.4,None,
81,UNPRED,12,0.557810121954844,2,images/picture_3.png,images/picture_1.png,0,"[-11.733433509789462, 11.733433509789464]",-11.733433509789462,11.733433509789464,images/picture_2.png,1,"[11.733433509789462, -11.733433509789466]",11.733433509789462,-11.733433509789464,images/picture_3.png,2,"[-11.733433509789466, -11.733433509789462]",-11.733433509789464,-11.733433509789462,0,1,1,0.557810121954844,1.557810121954844,1.442189878045156,3.0,1,1.307810121954844,0,4.0,3.0,1,2,9,0,9,0,0,0,0,0,,,,,,,547.2461458339822,547.2461458339822,548.2466927089263,548.565866666846,548.7992937918752,548.7992937918752,548.7992937918752,550.2471344589721,550.2471344589721,550.2471344589721,550.2328739590012,551.2464603339322,200004,001,2023-03-31_10h36.35.643,DMS_et_12-36,2022.2.4,None,
89,UNPRED,12,0.557810121954844,0,images/picture_1.png,images/picture_1.png,0,"[-11.733433509789466, -11.733433509789462]",-11.733433509789464,-11.733433509789462,images/picture_2.png,1,"[11.733433509789462, -11.733433509789466]",11.733433509789462,-11.733433509789464,images/picture_3.png,2,"[-11.733433509789462, 11.733433509789464]",-11.733433509789462,11.733433509789464,0,1,1,0.557810121954844,1.557810121954844,1.442189878045156,3.0,1,1.307810121954844,0,4.0,3.0,1,2,9,0,9,0,0,1,1,8,,,,,,,551.2464603339322,551.2464603339322,552.2470519999042,552.5662352920044,552.7996918749996,552.7996918749996,552.7996918749996,554.2470821668394,554.2470821668394,554.2470821668394,554.2470821668394,555.2464519590139,200004,001,2023-03-31_10h36.35.643,DMS_et_12-36,2022.2.4,None,
87,UNPRED,12,0.557810121954844,0,images/picture_1.png,images/picture_1.png,0,"[11.733433509789464, 11.733433509789462]",11.733433509789464,11.733433509789462,images/picture_2.png,1,"[-11.733433509789466, -11.733433509789462]",-11.733433509789464,-11.733433509789462,images/picture_3.png,2,"[-11.733433509789462, 11.733433509789464]",-11.733433509789462,11.733433509789464,0,1,1,0.557810121954844,1.557810121954844,1.442189878045156,3.0,1,1.307810121954844,0,4.0,3.0,1,2,9,0,9,0,0,2,2,6,,,,,,,555.2464519590139,555.2464519590139,556.2471540418919,556.5666567918379,556.7998727089725,556.7998727089725,556.7998727089725,558.246821333887,558.246821333887,558.246821333887,558.246821333887,559.2656507089268,200004,001,2023-03-31_10h36.35.643,DMS_et_12-36,2022.2.4,None,
86,UNPRED,12,0.557810121954844,2,images/picture_3.png,images/picture_1.png,0,"[11.733433509789462, -11.733433509789466]",11.733433509789462,-11.733433509789464,images/picture_2.png,1,"[11.733433509789464, 11.733433509789462]",11.733433509789464,11.733433509789462,images/picture_3.png,2,"[-11.733433509789462, 11.733433509789464]",-11.733433509789462,11.733433509789464,0,1,1,0.557810121954844,1.557810121954844,1.442189878045156,3.0,1,1.307810121954844,0,4.0,3.0,1,2,9,0,9,0,0,3,3,5,,,,,,,559.2656507089268,559.2656507089268,560.2804092499427,560.5805474589579,560.7997560838703,560.7997560838703,560.7997560838703,562.2472309998702,562.2472309998702,562.2472309998702,562.2472309998702,563.2467119169887,200004,001,2023-03-31_10h36.35.643,DMS_et_12-36,2022.2.4,None,
83,UNPRED,12,0.557810121954844,0,images/picture_1.png,images/picture_1.png,0,"[11.733433509789462, -11.733433509789466]",11.733433509789462,-11.733433509789464,images/picture_2.png,1,"[11.733433509789464, 11.733433509789462]",11.733433509789464,11.733433509789462,images/picture_3.png,2,"[-11.733433509789466, -11.733433509789462]",-11.733433509789464,-11.733433509789462,0,1,1,0.557810121954844,1.557810121954844,1.442189878045156,3.0,1,1.307810121954844,0,4.0,3.0,1,2,9,0,9,0,0,4,4,2,,,,,,,563.2467119169887,563.2467119169887,564.2470657918602,564.5662309587933,564.799540958833,564.799540958833,564.799540958833,566.2471237499267,566.2471237499267,566.2471237499267,566.2471237499267,567.2665075839031,200004,001,2023-03-31_10h36.35.643,DMS_et_12-36,2022.2.4,None,
82,UNPRED,12,0.557810121954844,2,images/picture_3.png,images/picture_1.png,0,"[11.733433509789464, 11.733433509789462]",11.733433509789464,11.733433509789462,images/picture_2.png,1,"[11.733433509789462, -11.733433509789466]",11.733433509789462,-11.733433509789464,images/picture_3.png,2,"[-11.733433509789462, 11.733433509789464]",-11.733433509789462,11.733433509789464,0,1,1,0.557810121954844,1.557810121954844,1.442189878045156,3.0,1,1.307810121954844,0,4.0,3.0,1,2,9,0,9,0,0,5,5,1,,,,,,,567.2665075839031,567.2665075839031,568.2803019168787,568.5801641249564,568.7992421248928,568.7992421248928,568.7992421248928,570.2470989588182,570.2470989588182,570.2470989588182,570.2470989588182,571.2659141249023,200004,001,2023-03-31_10h36.35.643,DMS_et_12-36,2022.2.4,None,
88,UNPRED,12,0.557810121954844,2,images/picture_3.png,images/picture_1.png,0,"[11.733433509789464, 11.733433509789462]",11.733433509789464,11.733433509789462,images/picture_2.png,1,"[-11.733433509789462, 11.733433509789464]",-11.733433509789462,11.733433509789464,images/picture_3.png,2,"[-11.733433509789466, -11.733433509789462]",-11.733433509789464,-11.733433509789462,0,1,1,0.557810121954844,1.557810121954844,1.442189878045156,3.0,1,1.307810121954844,0,4.0,3.0,1,2,9,0,9,0,0,6,6,7,,,,,,,571.2659141249023,571.2659141249023,572.2803940419108,572.5803340838756,572.7996598340105,572.7996598340105,572.7996598340105,574.2471025839914,574.2471025839914,574.2471025839914,574.2471025839914,575.2471834169701,200004,001,2023-03-31_10h36.35.643,DMS_et_12-36,2022.2.4,None,
84,UNPRED,12,0.557810121954844,1,images/picture_2.png,images/picture_1.png,0,"[-11.733433509789466, -11.733433509789462]",-11.733433509789464,-11.733433509789462,images/picture_2.png,1,"[-11.733433509789462, 11.733433509789464]",-11.733433509789462,11.733433509789464,images/picture_3.png,2,"[11.733433509789462, -11.733433509789466]",11.733433509789462,-11.733433509789464,0,1,1,0.557810121954844,1.557810121954844,1.442189878045156,3.0,1,1.307810121954844,0,4.0,3.0,1,2,9,0,9,0,0,7,7,3,,,,,,,575.2471834169701,575.2471834169701,576.2470943338703,576.5663788749371,576.79963158397,576.79963158397,576.79963158397,578.2471337919123,578.2471337919123,578.2471337919123,578.2471337919123,579.2468484169804,200004,001,2023-03-31_10h36.35.643,DMS_et_12-36,2022.2.4,None,
85,UNPRED,12,0.557810121954844,1,images/picture_2.png,images/picture_1.png,0,"[11.733433509789462, -11.733433509789466]",11.733433509789462,-11.733433509789464,images/picture_2.png,1,"[-11.733433509789462, 11.733433509789464]",-11.733433509789462,11.733433509789464,images/picture_3.png,2,"[-11.733433509789466, -11.733433509789462]",-11.733433509789464,-11.733433509789462,0,1,1,0.557810121954844,1.557810121954844,1.442189878045156,3.0,1,1.307810121954844,0,4.0,3.0,1,2,9,0,9,0,0,8,8,4,,,,,,,579.2468484169804,579.2468484169804,580.2470515838359,580.566517499974,580.7996452918742,580.7996452918742,580.7996452918742,582.24708654196,582.24708654196,582.24708654196,582.24708654196,583.348758084001,200004,001,2023-03-31_10h36.35.643,DMS_et_12-36,2022.2.4,None,
,,,,,,,,,,,,,,,,,,,,,,,,,,,,,,,,,,,9,0,9,0,,,,,,,,,583.348758084001,595.379859458888,,,,,,,,,,,,,200004,001,2023-03-31_10h36.35.643,DMS_et_12-36,2022.2.4,None,
98,PRED,12,0.557810121954844,2,images/picture_3.png,images/picture_1.png,0,"[-11.733433509789462, 11.733433509789464]",-11.733433509789462,11.733433509789464,images/picture_2.png,1,"[11.733433509789462, -11.733433509789466]",11.733433509789462,-11.733433509789464,images/picture_3.png,2,"[-11.733433509789466, -11.733433509789462]",-11.733433509789464,-11.733433509789462,0,1,1,0.557810121954844,1.557810121954844,1.442189878045156,3.0,1,1.307810121954844,0,4.0,3.0,1,2,10,0,10,0,0,0,0,8,,,,,,,595.379859458888,595.379859458888,596.3806518749334,596.6999834999442,596.9331730839331,596.9331730839331,596.9331730839331,598.3804547919426,598.3804547919426,598.3804547919426,598.367236666847,599.3997672498226,200004,001,2023-03-31_10h36.35.643,DMS_et_12-36,2022.2.4,None,
94,PRED,12,0.557810121954844,2,images/picture_3.png,images/picture_1.png,0,"[11.733433509789462, -11.733433509789466]",11.733433509789462,-11.733433509789464,images/picture_2.png,1,"[-11.733433509789466, -11.733433509789462]",-11.733433509789464,-11.733433509789462,images/picture_3.png,2,"[11.733433509789464, 11.733433509789462]",11.733433509789464,11.733433509789462,0,1,1,0.557810121954844,1.557810121954844,1.442189878045156,3.0,1,1.307810121954844,0,4.0,3.0,1,2,10,0,10,0,0,1,1,4,,,,,,,599.3997672498226,599.3997672498226,600.413848083932,600.7138761249371,600.9331393339671,600.9331393339671,600.9331393339671,602.3806529589929,602.3806529589929,602.3806529589929,602.3806529589929,603.3999124588445,200004,001,2023-03-31_10h36.35.643,DMS_et_12-36,2022.2.4,None,
96,PRED,12,0.557810121954844,2,images/picture_3.png,images/picture_1.png,0,"[-11.733433509789462, 11.733433509789464]",-11.733433509789462,11.733433509789464,images/picture_2.png,1,"[11.733433509789462, -11.733433509789466]",11.733433509789462,-11.733433509789464,images/picture_3.png,2,"[11.733433509789464, 11.733433509789462]",11.733433509789464,11.733433509789462,0,1,1,0.557810121954844,1.557810121954844,1.442189878045156,3.0,1,1.307810121954844,0,4.0,3.0,1,2,10,0,10,0,0,2,2,6,,,,,,,603.3999124588445,603.3999124588445,604.4137019999325,604.7138765419368,604.9334269999526,604.9334269999526,604.9334269999526,606.3806055840105,606.3806055840105,606.3806055840105,606.3806055840105,607.3993697499391,200004,001,2023-03-31_10h36.35.643,DMS_et_12-36,2022.2.4,None,
91,PRED,12,0.557810121954844,2,images/picture_3.png,images/picture_1.png,0,"[-11.733433509789466, -11.733433509789462]",-11.733433509789464,-11.733433509789462,images/picture_2.png,1,"[11.733433509789464, 11.733433509789462]",11.733433509789464,11.733433509789462,images/picture_3.png,2,"[-11.733433509789462, 11.733433509789464]",-11.733433509789462,11.733433509789464,0,1,1,0.557810121954844,1.557810121954844,1.442189878045156,3.0,1,1.307810121954844,0,4.0,3.0,1,2,10,0,10,0,0,3,3,1,,,,,,,607.3993697499391,607.3993697499391,608.4139143337961,608.713995374972,608.9332444169559,608.9332444169559,608.9332444169559,610.3806419589091,610.3806419589091,610.3806419589091,610.3806419589091,611.3994107088074,200004,001,2023-03-31_10h36.35.643,DMS_et_12-36,2022.2.4,None,
95,PRED,12,0.557810121954844,2,images/picture_3.png,images/picture_1.png,0,"[11.733433509789464, 11.733433509789462]",11.733433509789464,11.733433509789462,images/picture_2.png,1,"[-11.733433509789462, 11.733433509789464]",-11.733433509789462,11.733433509789464,images/picture_3.png,2,"[11.733433509789462, -11.733433509789466]",11.733433509789462,-11.733433509789464,0,1,1,0.557810121954844,1.557810121954844,1.442189878045156,3.0,1,1.307810121954844,0,4.0,3.0,1,2,10,0,10,0,0,4,4,5,,,,,,,611.3994107088074,611.3994107088074,612.4140453338623,612.713852084009,612.933131666854,612.933131666854,612.933131666854,614.3806227089372,614.3806227089372,614.3806227089372,614.3806227089372,615.3992818340193,200004,001,2023-03-31_10h36.35.643,DMS_et_12-36,2022.2.4,None,
97,PRED,12,0.557810121954844,2,images/picture_3.png,images/picture_1.png,0,"[-11.733433509789466, -11.733433509789462]",-11.733433509789464,-11.733433509789462,images/picture_2.png,1,"[-11.733433509789462, 11.733433509789464]",-11.733433509789462,11.733433509789464,images/picture_3.png,2,"[11.733433509789462, -11.733433509789466]",11.733433509789462,-11.733433509789464,0,1,1,0.557810121954844,1.557810121954844,1.442189878045156,3.0,1,1.307810121954844,0,4.0,3.0,1,2,10,0,10,0,0,5,5,7,,,,,,,615.3992818340193,615.3992818340193,616.4136634590104,616.7140489588492,616.9333388339728,616.9333388339728,616.9333388339728,618.3806100839283,618.3806100839283,618.3806100839283,618.3806100839283,619.3993651669007,200004,001,2023-03-31_10h36.35.643,DMS_et_12-36,2022.2.4,None,
93,PRED,12,0.557810121954844,2,images/picture_3.png,images/picture_1.png,0,"[11.733433509789464, 11.733433509789462]",11.733433509789464,11.733433509789462,images/picture_2.png,1,"[11.733433509789462, -11.733433509789466]",11.733433509789462,-11.733433509789464,images/picture_3.png,2,"[-11.733433509789462, 11.733433509789464]",-11.733433509789462,11.733433509789464,0,1,1,0.557810121954844,1.557810121954844,1.442189878045156,3.0,1,1.307810121954844,0,4.0,3.0,1,2,10,0,10,0,0,6,6,3,,,,,,,619.3993651669007,619.3993651669007,620.4137967089191,620.7137283748016,620.9330556248315,620.9330556248315,620.9330556248315,622.3802956249565,622.3802956249565,622.3802956249565,622.3802956249565,623.3997078340035,200004,001,2023-03-31_10h36.35.643,DMS_et_12-36,2022.2.4,None,
92,PRED,12,0.557810121954844,2,images/picture_3.png,images/picture_1.png,0,"[-11.733433509789462, 11.733433509789464]",-11.733433509789462,11.733433509789464,images/picture_2.png,1,"[-11.733433509789466, -11.733433509789462]",-11.733433509789464,-11.733433509789462,images/picture_3.png,2,"[11.733433509789462, -11.733433509789466]",11.733433509789462,-11.733433509789464,0,1,1,0.557810121954844,1.557810121954844,1.442189878045156,3.0,1,1.307810121954844,0,4.0,3.0,1,2,10,0,10,0,0,7,7,2,,,,,,,623.3997078340035,623.3997078340035,624.4142970838584,624.7140607498586,624.9333382498007,624.9333382498007,624.9333382498007,626.3808202918153,626.3808202918153,626.3808202918153,626.3808202918153,627.3993907920085,200004,001,2023-03-31_10h36.35.643,DMS_et_12-36,2022.2.4,None,
90,PRED,12,0.557810121954844,2,images/picture_3.png,images/picture_1.png,0,"[11.733433509789464, 11.733433509789462]",11.733433509789464,11.733433509789462,images/picture_2.png,1,"[11.733433509789462, -11.733433509789466]",11.733433509789462,-11.733433509789464,images/picture_3.png,2,"[-11.733433509789466, -11.733433509789462]",-11.733433509789464,-11.733433509789462,0,1,1,0.557810121954844,1.557810121954844,1.442189878045156,3.0,1,1.307810121954844,0,4.0,3.0,1,2,10,0,10,0,0,8,8,0,,,,,,,627.3993907920085,627.3993907920085,628.4138896248769,628.7140780419577,628.933175166836,628.933175166836,628.933175166836,630.3805351669434,630.3805351669434,630.3805351669434,630.3805351669434,631.496817874955,200004,001,2023-03-31_10h36.35.643,DMS_et_12-36,2022.2.4,None,
,,,,,,,,,,,,,,,,,,,,,,,,,,,,,,,,,,,10,0,10,0,,,,,,,,,631.496817874955,643.5167267499492,,,,,,,,,,,,,200004,001,2023-03-31_10h36.35.643,DMS_et_12-36,2022.2.4,None,
101,UNPRED,12,0.557810121954844,0,images/picture_1.png,images/picture_1.png,0,"[-11.733433509789466, -11.733433509789462]",-11.733433509789464,-11.733433509789462,images/picture_2.png,1,"[-11.733433509789462, 11.733433509789464]",-11.733433509789462,11.733433509789464,images/picture_3.png,2,"[11.733433509789464, 11.733433509789462]",11.733433509789464,11.733433509789462,0,1,1,0.557810121954844,1.557810121954844,1.442189878045156,3.0,1,1.307810121954844,0,4.0,3.0,1,2,11,0,11,0,0,0,0,2,,,,,,,643.5167267499492,643.5167267499492,644.5138479999732,644.833230416989,645.0804827918764,645.0804827918764,645.0804827918764,646.536670708796,646.536670708796,646.536670708796,646.5140665839426,647.5328339999542,200004,001,2023-03-31_10h36.35.643,DMS_et_12-36,2022.2.4,None,
106,UNPRED,12,0.557810121954844,2,images/picture_3.png,images/picture_1.png,0,"[11.733433509789464, 11.733433509789462]",11.733433509789464,11.733433509789462,images/picture_2.png,1,"[-11.733433509789462, 11.733433509789464]",-11.733433509789462,11.733433509789464,images/picture_3.png,2,"[-11.733433509789466, -11.733433509789462]",-11.733433509789464,-11.733433509789462,0,1,1,0.557810121954844,1.557810121954844,1.442189878045156,3.0,1,1.307810121954844,0,4.0,3.0,1,2,11,0,11,0,0,1,1,7,,,,,,,647.5328339999542,647.5328339999542,648.5473549589515,648.8473903748672,649.0667624589987,649.0667624589987,649.0667624589987,650.5137492918875,650.5137492918875,650.5137492918875,650.5137492918875,651.5133660419378,200004,001,2023-03-31_10h36.35.643,DMS_et_12-36,2022.2.4,None,
102,UNPRED,12,0.557810121954844,0,images/picture_1.png,images/picture_1.png,0,"[-11.733433509789466, -11.733433509789462]",-11.733433509789464,-11.733433509789462,images/picture_2.png,1,"[-11.733433509789462, 11.733433509789464]",-11.733433509789462,11.733433509789464,images/picture_3.png,2,"[11.733433509789464, 11.733433509789462]",11.733433509789464,11.733433509789462,0,1,1,0.557810121954844,1.557810121954844,1.442189878045156,3.0,1,1.307810121954844,0,4.0,3.0,1,2,11,0,11,0,0,2,2,3,,,,,,,651.5133660419378,651.5133660419378,652.5140879589599,652.8333752499893,653.066666083876,653.066666083876,653.066666083876,654.5137613338884,654.5137613338884,654.5137613338884,654.5137613338884,655.5138933339622,200004,001,2023-03-31_10h36.35.643,DMS_et_12-36,2022.2.4,None,
99,UNPRED,12,0.557810121954844,0,images/picture_1.png,images/picture_1.png,0,"[11.733433509789462, -11.733433509789466]",11.733433509789462,-11.733433509789464,images/picture_2.png,1,"[-11.733433509789462, 11.733433509789464]",-11.733433509789462,11.733433509789464,images/picture_3.png,2,"[11.733433509789464, 11.733433509789462]",11.733433509789464,11.733433509789462,0,1,1,0.557810121954844,1.557810121954844,1.442189878045156,3.0,1,1.307810121954844,0,4.0,3.0,1,2,11,0,11,0,0,3,3,0,,,,,,,655.5138933339622,655.5138933339622,656.5141084168572,656.833462083945,657.0666269590147,657.0666269590147,657.0666269590147,658.5141366249882,658.5141366249882,658.5141366249882,658.5141366249882,659.5331442088354,200004,001,2023-03-31_10h36.35.643,DMS_et_12-36,2022.2.4,None,
100,UNPRED,12,0.557810121954844,2,images/picture_3.png,images/picture_1.png,0,"[-11.733433509789462, 11.733433509789464]",-11.733433509789462,11.733433509789464,images/picture_2.png,1,"[-11.733433509789466, -11.733433509789462]",-11.733433509789464,-11.733433509789462,images/picture_3.png,2,"[11.733433509789464, 11.733433509789462]",11.733433509789464,11.733433509789462,0,1,1,0.557810121954844,1.557810121954844,1.442189878045156,3.0,1,1.307810121954844,0,4.0,3.0,1,2,11,0,11,0,0,4,4,1,,,,,,,659.5331442088354,659.5331442088354,660.5472127089743,660.847268417012,661.0661100419238,661.0661100419238,661.0661100419238,662.5141073339619,662.5141073339619,662.5141073339619,662.5141073339619,663.5331450419035,200004,001,2023-03-31_10h36.35.643,DMS_et_12-36,2022.2.4,None,
104,UNPRED,12,0.557810121954844,2,images/picture_3.png,images/picture_1.png,0,"[-11.733433509789466, -11.733433509789462]",-11.733433509789464,-11.733433509789462,images/picture_2.png,1,"[-11.733433509789462, 11.733433509789464]",-11.733433509789462,11.733433509789464,images/picture_3.png,2,"[11.733433509789464, 11.733433509789462]",11.733433509789464,11.733433509789462,0,1,1,0.557810121954844,1.557810121954844,1.442189878045156,3.0,1,1.307810121954844,0,4.0,3.0,1,2,11,0,11,0,0,5,5,5,,,,,,,663.5331450419035,663.5331450419035,664.5475652089808,664.8476140839048,665.0668051249813,665.0668051249813,665.0668051249813,666.5142210000195,666.5142210000195,666.5142210000195,666.5142210000195,667.5329867918044,200004,001,2023-03-31_10h36.35.643,DMS_et_12-36,2022.2.4,None,
103,UNPRED,12,0.557810121954844,2,images/picture_3.png,images/picture_1.png,0,"[11.733433509789464, 11.733433509789462]",11.733433509789464,11.733433509789462,images/picture_2.png,1,"[-11.733433509789462, 11.733433509789464]",-11.733433509789462,11.733433509789464,images/picture_3.png,2,"[11.733433509789462, -11.733433509789466]",11.733433509789462,-11.733433509789464,0,1,1,0.557810121954844,1.557810121954844,1.442189878045156,3.0,1,1.307810121954844,0,4.0,3.0,1,2,11,0,11,0,0,6,6,4,,,,,,,667.5329867918044,667.5329867918044,668.5475709589664,668.847551249899,669.0670171668753,669.0670171668753,669.0670171668753,670.5141358338296,670.5141358338296,670.5141358338296,670.5141358338296,671.5137863338459,200004,001,2023-03-31_10h36.35.643,DMS_et_12-36,2022.2.4,None,
105,UNPRED,12,0.557810121954844,0,images/picture_1.png,images/picture_1.png,0,"[11.733433509789462, -11.733433509789466]",11.733433509789462,-11.733433509789464,images/picture_2.png,1,"[11.733433509789464, 11.733433509789462]",11.733433509789464,11.733433509789462,images/picture_3.png,2,"[-11.733433509789462, 11.733433509789464]",-11.733433509789462,11.733433509789464,0,1,1,0.557810121954844,1.557810121954844,1.442189878045156,3.0,1,1.307810121954844,0,4.0,3.0,1,2,11,0,11,0,0,7,7,6,,,,,,,671.5137863338459,671.5137863338459,672.51408716687,672.8333809168544,673.0670007918961,673.0670007918961,673.0670007918961,674.5143131248187,674.5143131248187,674.5143131248187,674.5143131248187,675.5142001667991,200004,001,2023-03-31_10h36.35.643,DMS_et_12-36,2022.2.4,None,
107,UNPRED,12,0.557810121954844,1,images/picture_2.png,images/picture_1.png,0,"[11.733433509789462, -11.733433509789466]",11.733433509789462,-11.733433509789464,images/picture_2.png,1,"[-11.733433509789462, 11.733433509789464]",-11.733433509789462,11.733433509789464,images/picture_3.png,2,"[-11.733433509789466, -11.733433509789462]",-11.733433509789464,-11.733433509789462,0,1,1,0.557810121954844,1.557810121954844,1.442189878045156,3.0,1,1.307810121954844,0,4.0,3.0,1,2,11,0,11,0,0,8,8,8,,,,,,,675.5142001667991,675.5142001667991,676.514192833798,676.8336559589952,677.0667326250114,677.0667326250114,677.0667326250114,678.5141297918744,678.5141297918744,678.5141297918744,678.5141297918744,679.6813561248127,200004,001,2023-03-31_10h36.35.643,DMS_et_12-36,2022.2.4,None,
,,,,,,,,,,,,,,,,,,,,,,,,,,,,,,,,,,,11,0,11,0,,,,,,,,,679.6813561248127,691.7935331668705,,,,,,,,,,,,,200004,001,2023-03-31_10h36.35.643,DMS_et_12-36,2022.2.4,None,
,,,,,,,,,,,,,,,,,,,,,,,,,,,,,,,,,,,,,,,,,,,,,,,691.7935331668705,704.3201371668838,,,,,,,,,,,,,,,,,,,
