trial_count,blockType,blockNum,delay_time,stimImage_i,stimImage,responseImage1,responseImage1_i,responseImage1_pos,responseImage1_X,responseImage1_Y,responseImage2,responseImage2_i,responseImage2_pos,responseImage2_X,responseImage2_Y,responseImage3,responseImage3_i,responseImage3_pos,responseImage3_X,responseImage3_Y,cue_onset,cue_dur,delay_onset,delay_dur,resp_onset,resp_dur,rest_onset,rest_dur,circle_dur,circle_onset,total_dur,cross_onset,cross_dur,delay_resp_period,blocks.thisRepN,blocks.thisTrialN,blocks.thisN,blocks.thisIndex,trials.thisRepN,trials.thisTrialN,trials.thisN,trials.thisIndex,key_resp.started,text.started,key_resp.keys,key_resp.rt,text_2.started,text_2.stopped,sample.started,Delay.started,sample.stopped,Delay.stopped,Response_1.started,Response_2.started,Response_3.started,Response_1.stopped,Response_2.stopped,Response_3.stopped,polygon.started,polygon.stopped,participant,session,date,expName,psychopyVersion,frameRate,
,,,,,,,,,,,,,,,,,,,,,,,,,,,,,,,,,,,,,,,,,,,144.2070673750004,144.2070673750004,t,69.30625445799978,,,,,,,,,,,,,,,200005,201,2023-04-11_14h36.57.016,DMS_et_12-36,2022.2.4,None,
5,PRED,12,0.5840119211669696,0,images/picture_1.png,images/picture_1.png,0,"[11.733433509789462, -11.733433509789466]",11.733433509789462,-11.733433509789464,images/picture_2.png,1,"[-11.733433509789466, -11.733433509789462]",-11.733433509789464,-11.733433509789462,images/picture_3.png,2,"[-11.733433509789462, 11.733433509789464]",-11.733433509789462,11.733433509789464,0,1,1,0.5840119211669696,1.5840119211669696,1.4159880788330304,3.0,1,1.3340119211669696,0,4.0,3.0,1,2,0,0,0,0,0,0,0,5,,,,,214.02722220800024,226.0479244170001,226.0479244170001,226.0479244170001,227.04457925000042,227.39736637500027,227.6306144170003,227.6306144170003,227.6306144170003,229.04476704199988,229.04476704199988,229.04476704199988,229.04476704199988,230.0443493749999,200005,201,2023-04-11_14h36.57.016,DMS_et_12-36,2022.2.4,None,
1,PRED,12,0.5840119211669696,0,images/picture_1.png,images/picture_1.png,0,"[-11.733433509789462, 11.733433509789464]",-11.733433509789462,11.733433509789464,images/picture_2.png,1,"[11.733433509789462, -11.733433509789466]",11.733433509789462,-11.733433509789464,images/picture_3.png,2,"[-11.733433509789466, -11.733433509789462]",-11.733433509789464,-11.733433509789462,0,1,1,0.5840119211669696,1.5840119211669696,1.4159880788330304,3.0,1,1.3340119211669696,0,4.0,3.0,1,2,0,0,0,0,0,1,1,1,,,,,,,230.0443493749999,230.0443493749999,231.04455733299983,231.37799933299993,231.63066770800015,231.63066770800015,231.63066770800015,233.04473520800002,233.04473520800002,233.04473520800002,233.04473520800002,234.04439804200047,200005,201,2023-04-11_14h36.57.016,DMS_et_12-36,2022.2.4,None,
3,PRED,12,0.5840119211669696,0,images/picture_1.png,images/picture_1.png,0,"[11.733433509789464, 11.733433509789462]",11.733433509789464,11.733433509789462,images/picture_2.png,1,"[11.733433509789462, -11.733433509789466]",11.733433509789462,-11.733433509789464,images/picture_3.png,2,"[-11.733433509789466, -11.733433509789462]",-11.733433509789464,-11.733433509789462,0,1,1,0.5840119211669696,1.5840119211669696,1.4159880788330304,3.0,1,1.3340119211669696,0,4.0,3.0,1,2,0,0,0,0,0,2,2,3,,,,,,,234.04439804200047,234.04439804200047,235.0447654999998,235.37799133299995,235.6114620420003,235.6114620420003,235.6114620420003,237.03137950000018,237.03137950000018,237.03137950000018,237.0447437920002,238.04443212500064,200005,201,2023-04-11_14h36.57.016,DMS_et_12-36,2022.2.4,None,
6,PRED,12,0.5840119211669696,0,images/picture_1.png,images/picture_1.png,0,"[11.733433509789462, -11.733433509789466]",11.733433509789462,-11.733433509789464,images/picture_2.png,1,"[11.733433509789464, 11.733433509789462]",11.733433509789464,11.733433509789462,images/picture_3.png,2,"[-11.733433509789462, 11.733433509789464]",-11.733433509789462,11.733433509789464,0,1,1,0.5840119211669696,1.5840119211669696,1.4159880788330304,3.0,1,1.3340119211669696,0,4.0,3.0,1,2,0,0,0,0,0,3,3,6,,,,,,,238.04443212500064,238.04443212500064,239.04479450000053,239.37805570799992,239.6312210420001,239.6312210420001,239.6312210420001,241.04473541700008,241.04473541700008,241.04473541700008,241.04473541700008,242.04442670800017,200005,201,2023-04-11_14h36.57.016,DMS_et_12-36,2022.2.4,None,
8,PRED,12,0.5840119211669696,0,images/picture_1.png,images/picture_1.png,0,"[11.733433509789462, -11.733433509789466]",11.733433509789462,-11.733433509789464,images/picture_2.png,1,"[11.733433509789464, 11.733433509789462]",11.733433509789464,11.733433509789462,images/picture_3.png,2,"[-11.733433509789466, -11.733433509789462]",-11.733433509789464,-11.733433509789462,0,1,1,0.5840119211669696,1.5840119211669696,1.4159880788330304,3.0,1,1.3340119211669696,0,4.0,3.0,1,2,0,0,0,0,0,4,4,8,,,,,,,242.04442670800017,242.04442670800017,243.0447419580005,243.3779908330007,243.63033362500028,243.63033362500028,243.63033362500028,245.0445975420007,245.0445975420007,245.0445975420007,245.0445975420007,246.04437237500042,200005,201,2023-04-11_14h36.57.016,DMS_et_12-36,2022.2.4,None,
7,PRED,12,0.5840119211669696,0,images/picture_1.png,images/picture_1.png,0,"[11.733433509789462, -11.733433509789466]",11.733433509789462,-11.733433509789464,images/picture_2.png,1,"[-11.733433509789462, 11.733433509789464]",-11.733433509789462,11.733433509789464,images/picture_3.png,2,"[11.733433509789464, 11.733433509789462]",11.733433509789464,11.733433509789462,0,1,1,0.5840119211669696,1.5840119211669696,1.4159880788330304,3.0,1,1.3340119211669696,0,4.0,3.0,1,2,0,0,0,0,0,5,5,7,,,,,,,246.04437237500042,246.04437237500042,247.0447010000007,247.377999542,247.63065275000008,247.63065275000008,247.63065275000008,249.04477391700038,249.04477391700038,249.04477391700038,249.04477391700038,250.04429420799988,200005,201,2023-04-11_14h36.57.016,DMS_et_12-36,2022.2.4,None,
2,PRED,12,0.5840119211669696,0,images/picture_1.png,images/picture_1.png,0,"[-11.733433509789462, 11.733433509789464]",-11.733433509789462,11.733433509789464,images/picture_2.png,1,"[11.733433509789464, 11.733433509789462]",11.733433509789464,11.733433509789462,images/picture_3.png,2,"[-11.733433509789466, -11.733433509789462]",-11.733433509789464,-11.733433509789462,0,1,1,0.5840119211669696,1.5840119211669696,1.4159880788330304,3.0,1,1.3340119211669696,0,4.0,3.0,1,2,0,0,0,0,0,6,6,2,,,,,,,250.04429420799988,250.04429420799988,251.04478070799996,251.3780401670001,251.63141808300043,251.63141808300043,251.63141808300043,253.04475845800062,253.04475845800062,253.04475845800062,253.04475845800062,254.0443072500002,200005,201,2023-04-11_14h36.57.016,DMS_et_12-36,2022.2.4,None,
0,PRED,12,0.5840119211669696,0,images/picture_1.png,images/picture_1.png,0,"[11.733433509789464, 11.733433509789462]",11.733433509789464,11.733433509789462,images/picture_2.png,1,"[-11.733433509789466, -11.733433509789462]",-11.733433509789464,-11.733433509789462,images/picture_3.png,2,"[-11.733433509789462, 11.733433509789464]",-11.733433509789462,11.733433509789464,0,1,1,0.5840119211669696,1.5840119211669696,1.4159880788330304,3.0,1,1.3340119211669696,0,4.0,3.0,1,2,0,0,0,0,0,7,7,0,,,,,,,254.0443072500002,254.0443072500002,255.04447266700026,255.37814145799985,255.63064045800002,255.63064045800002,255.63064045800002,257.04484695800056,257.04484695800056,257.04484695800056,257.04484695800056,258.04429408299984,200005,201,2023-04-11_14h36.57.016,DMS_et_12-36,2022.2.4,None,
4,PRED,12,0.5840119211669696,0,images/picture_1.png,images/picture_1.png,0,"[-11.733433509789466, -11.733433509789462]",-11.733433509789464,-11.733433509789462,images/picture_2.png,1,"[11.733433509789464, 11.733433509789462]",11.733433509789464,11.733433509789462,images/picture_3.png,2,"[11.733433509789462, -11.733433509789466]",11.733433509789462,-11.733433509789464,0,1,1,0.5840119211669696,1.5840119211669696,1.4159880788330304,3.0,1,1.3340119211669696,0,4.0,3.0,1,2,0,0,0,0,0,8,8,4,,,,,,,258.04429408299984,258.04429408299984,259.0448059999999,259.37802983300026,259.63155087500036,259.63155087500036,259.63155087500036,261.0447816249998,261.0447816249998,261.0447816249998,261.0447816249998,262.064290667,200005,201,2023-04-11_14h36.57.016,DMS_et_12-36,2022.2.4,None,
,,,,,,,,,,,,,,,,,,,,,,,,,,,,,,,,,,,0,0,0,0,,,,,,,,,262.064290667,274.0966027499999,,,,,,,,,,,,,200005,201,2023-04-11_14h36.57.016,DMS_et_12-36,2022.2.4,None,
12,UNPRED,12,0.5840119211669696,1,images/picture_2.png,images/picture_1.png,0,"[11.733433509789462, -11.733433509789466]",11.733433509789462,-11.733433509789464,images/picture_2.png,1,"[11.733433509789464, 11.733433509789462]",11.733433509789464,11.733433509789462,images/picture_3.png,2,"[-11.733433509789462, 11.733433509789464]",-11.733433509789462,11.733433509789464,0,1,1,0.5840119211669696,1.5840119211669696,1.4159880788330304,3.0,1,1.3340119211669696,0,4.0,3.0,1,2,1,0,1,0,0,0,0,3,,,,,,,274.0966027499999,274.0966027499999,275.11121470800026,275.4450060830004,275.67789166700004,275.67789166700004,275.67789166700004,277.09729358300046,277.09729358300046,277.09729358300046,277.09729358300046,278.11096420800004,200005,201,2023-04-11_14h36.57.016,DMS_et_12-36,2022.2.4,None,
9,UNPRED,12,0.5840119211669696,1,images/picture_2.png,images/picture_1.png,0,"[11.733433509789462, -11.733433509789466]",11.733433509789462,-11.733433509789464,images/picture_2.png,1,"[-11.733433509789462, 11.733433509789464]",-11.733433509789462,11.733433509789464,images/picture_3.png,2,"[-11.733433509789466, -11.733433509789462]",-11.733433509789464,-11.733433509789462,0,1,1,0.5840119211669696,1.5840119211669696,1.4159880788330304,3.0,1,1.3340119211669696,0,4.0,3.0,1,2,1,0,1,0,0,1,1,0,,,,,,,278.11096420800004,278.11096420800004,279.1115756670006,279.44497158300055,279.698126708,279.698126708,279.698126708,281.1116163330007,281.1116163330007,281.1116163330007,281.1116163330007,282.1110579169999,200005,201,2023-04-11_14h36.57.016,DMS_et_12-36,2022.2.4,None,
14,UNPRED,12,0.5840119211669696,1,images/picture_2.png,images/picture_1.png,0,"[-11.733433509789462, 11.733433509789464]",-11.733433509789462,11.733433509789464,images/picture_2.png,1,"[-11.733433509789466, -11.733433509789462]",-11.733433509789464,-11.733433509789462,images/picture_3.png,2,"[11.733433509789462, -11.733433509789466]",11.733433509789462,-11.733433509789464,0,1,1,0.5840119211669696,1.5840119211669696,1.4159880788330304,3.0,1,1.3340119211669696,0,4.0,3.0,1,2,1,0,1,0,0,2,2,5,,,,,,,282.1110579169999,282.1110579169999,283.1115722499999,283.4449944170001,283.69812770800036,283.69812770800036,283.69812770800036,285.11144175000027,285.11144175000027,285.11144175000027,285.11144175000027,286.130331458,200005,201,2023-04-11_14h36.57.016,DMS_et_12-36,2022.2.4,None,
11,UNPRED,12,0.5840119211669696,2,images/picture_3.png,images/picture_1.png,0,"[11.733433509789464, 11.733433509789462]",11.733433509789464,11.733433509789462,images/picture_2.png,1,"[-11.733433509789466, -11.733433509789462]",-11.733433509789464,-11.733433509789462,images/picture_3.png,2,"[-11.733433509789462, 11.733433509789464]",-11.733433509789462,11.733433509789464,0,1,1,0.5840119211669696,1.5840119211669696,1.4159880788330304,3.0,1,1.3340119211669696,0,4.0,3.0,1,2,1,0,1,0,0,3,3,2,,,,,,,286.130331458,286.130331458,287.14497691700035,287.4782477080007,287.6782606249999,287.6782606249999,287.6782606249999,289.09766025000044,289.09766025000044,289.09766025000044,289.11154650000026,290.11088070799997,200005,201,2023-04-11_14h36.57.016,DMS_et_12-36,2022.2.4,None,
15,UNPRED,12,0.5840119211669696,0,images/picture_1.png,images/picture_1.png,0,"[11.733433509789464, 11.733433509789462]",11.733433509789464,11.733433509789462,images/picture_2.png,1,"[-11.733433509789462, 11.733433509789464]",-11.733433509789462,11.733433509789464,images/picture_3.png,2,"[-11.733433509789466, -11.733433509789462]",-11.733433509789464,-11.733433509789462,0,1,1,0.5840119211669696,1.5840119211669696,1.4159880788330304,3.0,1,1.3340119211669696,0,4.0,3.0,1,2,1,0,1,0,0,4,4,6,,,,,,,290.11088070799997,290.11088070799997,291.1117319169998,291.4449867080002,291.6976636670006,291.6976636670006,291.6976636670006,293.1117087920002,293.1117087920002,293.1117087920002,293.1117087920002,294.1302381250007,200005,201,2023-04-11_14h36.57.016,DMS_et_12-36,2022.2.4,None,
10,UNPRED,12,0.5840119211669696,2,images/picture_3.png,images/picture_1.png,0,"[-11.733433509789466, -11.733433509789462]",-11.733433509789464,-11.733433509789462,images/picture_2.png,1,"[-11.733433509789462, 11.733433509789464]",-11.733433509789462,11.733433509789464,images/picture_3.png,2,"[11.733433509789462, -11.733433509789466]",11.733433509789462,-11.733433509789464,0,1,1,0.5840119211669696,1.5840119211669696,1.4159880788330304,3.0,1,1.3340119211669696,0,4.0,3.0,1,2,1,0,1,0,0,5,5,1,,,,,,,294.1302381250007,294.1302381250007,295.1447852500005,295.47800941700007,295.6965432500001,295.6965432500001,295.6965432500001,297.11173554200013,297.11173554200013,297.11173554200013,297.11173554200013,298.11119400000007,200005,201,2023-04-11_14h36.57.016,DMS_et_12-36,2022.2.4,None,
13,UNPRED,12,0.5840119211669696,1,images/picture_2.png,images/picture_1.png,0,"[11.733433509789462, -11.733433509789466]",11.733433509789462,-11.733433509789464,images/picture_2.png,1,"[-11.733433509789462, 11.733433509789464]",-11.733433509789462,11.733433509789464,images/picture_3.png,2,"[11.733433509789464, 11.733433509789462]",11.733433509789464,11.733433509789462,0,1,1,0.5840119211669696,1.5840119211669696,1.4159880788330304,3.0,1,1.3340119211669696,0,4.0,3.0,1,2,1,0,1,0,0,6,6,4,,,,,,,298.11119400000007,298.11119400000007,299.11173425000015,299.44499562500005,299.69770883300043,299.69770883300043,299.69770883300043,301.1117634580005,301.1117634580005,301.1117634580005,301.1117634580005,302.11110183300025,200005,201,2023-04-11_14h36.57.016,DMS_et_12-36,2022.2.4,None,
16,UNPRED,12,0.5840119211669696,1,images/picture_2.png,images/picture_1.png,0,"[-11.733433509789466, -11.733433509789462]",-11.733433509789464,-11.733433509789462,images/picture_2.png,1,"[-11.733433509789462, 11.733433509789464]",-11.733433509789462,11.733433509789464,images/picture_3.png,2,"[11.733433509789464, 11.733433509789462]",11.733433509789464,11.733433509789462,0,1,1,0.5840119211669696,1.5840119211669696,1.4159880788330304,3.0,1,1.3340119211669696,0,4.0,3.0,1,2,1,0,1,0,0,7,7,7,,,,,,,302.11110183300025,302.11110183300025,303.1118348330001,303.44501045800007,303.6975331670001,303.6975331670001,303.6975331670001,305.11173275000056,305.11173275000056,305.11173275000056,305.11173275000056,306.1305497080002,200005,201,2023-04-11_14h36.57.016,DMS_et_12-36,2022.2.4,None,
17,UNPRED,12,0.5840119211669696,2,images/picture_3.png,images/picture_1.png,0,"[-11.733433509789462, 11.733433509789464]",-11.733433509789462,11.733433509789464,images/picture_2.png,1,"[11.733433509789462, -11.733433509789466]",11.733433509789462,-11.733433509789464,images/picture_3.png,2,"[11.733433509789464, 11.733433509789462]",11.733433509789464,11.733433509789462,0,1,1,0.5840119211669696,1.5840119211669696,1.4159880788330304,3.0,1,1.3340119211669696,0,4.0,3.0,1,2,1,0,1,0,0,8,8,8,,,,,,,306.1305497080002,306.1305497080002,307.1450384999998,307.4782422920007,307.67831404200024,307.67831404200024,307.67831404200024,309.09759858300004,309.09759858300004,309.09759858300004,309.1115781670005,310.14144195800054,200005,201,2023-04-11_14h36.57.016,DMS_et_12-36,2022.2.4,None,
,,,,,,,,,,,,,,,,,,,,,,,,,,,,,,,,,,,1,0,1,0,,,,,,,,,310.14144195800054,322.1668715830001,,,,,,,,,,,,,200005,201,2023-04-11_14h36.57.016,DMS_et_12-36,2022.2.4,None,
21,PRED,12,0.5840119211669696,1,images/picture_2.png,images/picture_1.png,0,"[11.733433509789464, 11.733433509789462]",11.733433509789464,11.733433509789462,images/picture_2.png,1,"[11.733433509789462, -11.733433509789466]",11.733433509789462,-11.733433509789464,images/picture_3.png,2,"[-11.733433509789462, 11.733433509789464]",-11.733433509789462,11.733433509789464,0,1,1,0.5840119211669696,1.5840119211669696,1.4159880788330304,3.0,1,1.3340119211669696,0,4.0,3.0,1,2,2,0,2,0,0,0,0,3,,,,,,,322.1668715830001,322.1668715830001,323.178608917,323.51176550000037,323.74505045800015,323.74505045800015,323.74505045800015,325.16502695800045,325.16502695800045,325.16502695800045,325.16502695800045,326.1783358749999,200005,201,2023-04-11_14h36.57.016,DMS_et_12-36,2022.2.4,None,
18,PRED,12,0.5840119211669696,1,images/picture_2.png,images/picture_1.png,0,"[-11.733433509789466, -11.733433509789462]",-11.733433509789464,-11.733433509789462,images/picture_2.png,1,"[11.733433509789462, -11.733433509789466]",11.733433509789462,-11.733433509789464,images/picture_3.png,2,"[-11.733433509789462, 11.733433509789464]",-11.733433509789462,11.733433509789464,0,1,1,0.5840119211669696,1.5840119211669696,1.4159880788330304,3.0,1,1.3340119211669696,0,4.0,3.0,1,2,2,0,2,0,0,1,1,0,,,,,,,326.1783358749999,326.1783358749999,327.1782680420001,327.51156295800047,327.7644902920001,327.7644902920001,327.7644902920001,329.17861379199985,329.17861379199985,329.17861379199985,329.17861379199985,330.17787729200063,200005,201,2023-04-11_14h36.57.016,DMS_et_12-36,2022.2.4,None,
23,PRED,12,0.5840119211669696,1,images/picture_2.png,images/picture_1.png,0,"[-11.733433509789462, 11.733433509789464]",-11.733433509789462,11.733433509789464,images/picture_2.png,1,"[11.733433509789464, 11.733433509789462]",11.733433509789464,11.733433509789462,images/picture_3.png,2,"[11.733433509789462, -11.733433509789466]",11.733433509789462,-11.733433509789464,0,1,1,0.5840119211669696,1.5840119211669696,1.4159880788330304,3.0,1,1.3340119211669696,0,4.0,3.0,1,2,2,0,2,0,0,2,2,5,,,,,,,330.17787729200063,330.17787729200063,331.1785545829998,331.5117864170006,331.7644185420004,331.7644185420004,331.7644185420004,333.1785481249999,333.1785481249999,333.1785481249999,333.1785481249999,334.17831195800045,200005,201,2023-04-11_14h36.57.016,DMS_et_12-36,2022.2.4,None,
25,PRED,12,0.5840119211669696,1,images/picture_2.png,images/picture_1.png,0,"[11.733433509789464, 11.733433509789462]",11.733433509789464,11.733433509789462,images/picture_2.png,1,"[-11.733433509789466, -11.733433509789462]",-11.733433509789464,-11.733433509789462,images/picture_3.png,2,"[-11.733433509789462, 11.733433509789464]",-11.733433509789462,11.733433509789464,0,1,1,0.5840119211669696,1.5840119211669696,1.4159880788330304,3.0,1,1.3340119211669696,0,4.0,3.0,1,2,2,0,2,0,0,3,3,7,,,,,,,334.17831195800045,334.17831195800045,335.1785052080004,335.511896125,335.7643661250004,335.7643661250004,335.7643661250004,337.17829341700053,337.17829341700053,337.17829341700053,337.17829341700053,338.1779496670006,200005,201,2023-04-11_14h36.57.016,DMS_et_12-36,2022.2.4,None,
22,PRED,12,0.5840119211669696,1,images/picture_2.png,images/picture_1.png,0,"[11.733433509789462, -11.733433509789466]",11.733433509789462,-11.733433509789464,images/picture_2.png,1,"[-11.733433509789466, -11.733433509789462]",-11.733433509789464,-11.733433509789462,images/picture_3.png,2,"[-11.733433509789462, 11.733433509789464]",-11.733433509789462,11.733433509789464,0,1,1,0.5840119211669696,1.5840119211669696,1.4159880788330304,3.0,1,1.3340119211669696,0,4.0,3.0,1,2,2,0,2,0,0,4,4,4,,,,,,,338.1779496670006,338.1779496670006,339.1786096250007,339.5117049999999,339.7647320830001,339.7647320830001,339.7647320830001,341.17869529200016,341.17869529200016,341.17869529200016,341.17869529200016,342.1780122500004,200005,201,2023-04-11_14h36.57.016,DMS_et_12-36,2022.2.4,None,
26,PRED,12,0.5840119211669696,1,images/picture_2.png,images/picture_1.png,0,"[11.733433509789462, -11.733433509789466]",11.733433509789462,-11.733433509789464,images/picture_2.png,1,"[-11.733433509789466, -11.733433509789462]",-11.733433509789464,-11.733433509789462,images/picture_3.png,2,"[-11.733433509789462, 11.733433509789464]",-11.733433509789462,11.733433509789464,0,1,1,0.5840119211669696,1.5840119211669696,1.4159880788330304,3.0,1,1.3340119211669696,0,4.0,3.0,1,2,2,0,2,0,0,5,5,8,,,,,,,342.1780122500004,342.1780122500004,343.1784860000007,343.5118398750001,343.764632292,343.764632292,343.764632292,345.17851708299986,345.17851708299986,345.17851708299986,345.17851708299986,346.1781192080007,200005,201,2023-04-11_14h36.57.016,DMS_et_12-36,2022.2.4,None,
20,PRED,12,0.5840119211669696,1,images/picture_2.png,images/picture_1.png,0,"[11.733433509789462, -11.733433509789466]",11.733433509789462,-11.733433509789464,images/picture_2.png,1,"[-11.733433509789466, -11.733433509789462]",-11.733433509789464,-11.733433509789462,images/picture_3.png,2,"[11.733433509789464, 11.733433509789462]",11.733433509789464,11.733433509789462,0,1,1,0.5840119211669696,1.5840119211669696,1.4159880788330304,3.0,1,1.3340119211669696,0,4.0,3.0,1,2,2,0,2,0,0,6,6,2,,,,,,,346.1781192080007,346.1781192080007,347.17832091699984,347.51164766700003,347.7641578749999,347.7641578749999,347.7641578749999,349.1785419170001,349.1785419170001,349.1785419170001,349.1785419170001,350.17794454200066,200005,201,2023-04-11_14h36.57.016,DMS_et_12-36,2022.2.4,None,
19,PRED,12,0.5840119211669696,1,images/picture_2.png,images/picture_1.png,0,"[-11.733433509789466, -11.733433509789462]",-11.733433509789464,-11.733433509789462,images/picture_2.png,1,"[-11.733433509789462, 11.733433509789464]",-11.733433509789462,11.733433509789464,images/picture_3.png,2,"[11.733433509789464, 11.733433509789462]",11.733433509789464,11.733433509789462,0,1,1,0.5840119211669696,1.5840119211669696,1.4159880788330304,3.0,1,1.3340119211669696,0,4.0,3.0,1,2,2,0,2,0,0,7,7,1,,,,,,,350.17794454200066,350.17794454200066,351.17862483299996,351.5120600420005,351.76465650000046,351.76465650000046,351.76465650000046,353.178530958,353.178530958,353.178530958,353.178530958,354.1782930420004,200005,201,2023-04-11_14h36.57.016,DMS_et_12-36,2022.2.4,None,
24,PRED,12,0.5840119211669696,1,images/picture_2.png,images/picture_1.png,0,"[11.733433509789462, -11.733433509789466]",11.733433509789462,-11.733433509789464,images/picture_2.png,1,"[-11.733433509789466, -11.733433509789462]",-11.733433509789464,-11.733433509789462,images/picture_3.png,2,"[-11.733433509789462, 11.733433509789464]",-11.733433509789462,11.733433509789464,0,1,1,0.5840119211669696,1.5840119211669696,1.4159880788330304,3.0,1,1.3340119211669696,0,4.0,3.0,1,2,2,0,2,0,0,8,8,6,,,,,,,354.1782930420004,354.1782930420004,355.17870241699984,355.51202275000014,355.7647299580003,355.7647299580003,355.7647299580003,357.1783157079999,357.1783157079999,357.1783157079999,357.1783157079999,358.22459125000023,200005,201,2023-04-11_14h36.57.016,DMS_et_12-36,2022.2.4,None,
,,,,,,,,,,,,,,,,,,,,,,,,,,,,,,,,,,,2,0,2,0,,,,,,,,,358.22459125000023,370.25442204200044,,,,,,,,,,,,,200005,201,2023-04-11_14h36.57.016,DMS_et_12-36,2022.2.4,None,
31,UNPRED,12,0.5840119211669696,2,images/picture_3.png,images/picture_1.png,0,"[-11.733433509789466, -11.733433509789462]",-11.733433509789464,-11.733433509789462,images/picture_2.png,1,"[11.733433509789462, -11.733433509789466]",11.733433509789462,-11.733433509789464,images/picture_3.png,2,"[11.733433509789464, 11.733433509789462]",11.733433509789464,11.733433509789462,0,1,1,0.5840119211669696,1.5840119211669696,1.4159880788330304,3.0,1,1.3340119211669696,0,4.0,3.0,1,2,3,0,3,0,0,0,0,4,,,,,,,370.25442204200044,370.25442204200044,371.2649039580001,371.5980995,371.83155120799984,371.83155120799984,371.83155120799984,373.2452981670003,373.2452981670003,373.2452981670003,373.2452981670003,374.2640290830004,200005,201,2023-04-11_14h36.57.016,DMS_et_12-36,2022.2.4,None,
29,UNPRED,12,0.5840119211669696,2,images/picture_3.png,images/picture_1.png,0,"[-11.733433509789466, -11.733433509789462]",-11.733433509789464,-11.733433509789462,images/picture_2.png,1,"[11.733433509789464, 11.733433509789462]",11.733433509789464,11.733433509789462,images/picture_3.png,2,"[-11.733433509789462, 11.733433509789464]",-11.733433509789462,11.733433509789464,0,1,1,0.5840119211669696,1.5840119211669696,1.4159880788330304,3.0,1,1.3340119211669696,0,4.0,3.0,1,2,3,0,3,0,0,1,1,2,,,,,,,374.2640290830004,374.2640290830004,375.27854900000057,375.61201854200044,375.8315313330004,375.8315313330004,375.8315313330004,377.2451418750006,377.2451418750006,377.2451418750006,377.2451418750006,378.2638028330002,200005,201,2023-04-11_14h36.57.016,DMS_et_12-36,2022.2.4,None,
28,UNPRED,12,0.5840119211669696,2,images/picture_3.png,images/picture_1.png,0,"[11.733433509789462, -11.733433509789466]",11.733433509789462,-11.733433509789464,images/picture_2.png,1,"[-11.733433509789466, -11.733433509789462]",-11.733433509789464,-11.733433509789462,images/picture_3.png,2,"[-11.733433509789462, 11.733433509789464]",-11.733433509789462,11.733433509789464,0,1,1,0.5840119211669696,1.5840119211669696,1.4159880788330304,3.0,1,1.3340119211669696,0,4.0,3.0,1,2,3,0,3,0,0,2,2,1,,,,,,,378.2638028330002,378.2638028330002,379.2787572920006,379.6120541250002,379.81202354200013,379.81202354200013,379.81202354200013,381.23160120800003,381.23160120800003,381.23160120800003,381.2453017080006,382.24420416700013,200005,201,2023-04-11_14h36.57.016,DMS_et_12-36,2022.2.4,None,
30,UNPRED,12,0.5840119211669696,0,images/picture_1.png,images/picture_1.png,0,"[-11.733433509789462, 11.733433509789464]",-11.733433509789462,11.733433509789464,images/picture_2.png,1,"[11.733433509789464, 11.733433509789462]",11.733433509789464,11.733433509789462,images/picture_3.png,2,"[-11.733433509789466, -11.733433509789462]",-11.733433509789464,-11.733433509789462,0,1,1,0.5840119211669696,1.5840119211669696,1.4159880788330304,3.0,1,1.3340119211669696,0,4.0,3.0,1,2,3,0,3,0,0,3,3,3,,,,,,,382.24420416700013,382.24420416700013,383.2454924580006,383.57875129200056,383.83146945800036,383.83146945800036,383.83146945800036,385.24526595800035,385.24526595800035,385.24526595800035,385.24526595800035,386.264441542,200005,201,2023-04-11_14h36.57.016,DMS_et_12-36,2022.2.4,None,
33,UNPRED,12,0.5840119211669696,2,images/picture_3.png,images/picture_1.png,0,"[-11.733433509789466, -11.733433509789462]",-11.733433509789464,-11.733433509789462,images/picture_2.png,1,"[11.733433509789462, -11.733433509789466]",11.733433509789462,-11.733433509789464,images/picture_3.png,2,"[-11.733433509789462, 11.733433509789464]",-11.733433509789462,11.733433509789464,0,1,1,0.5840119211669696,1.5840119211669696,1.4159880788330304,3.0,1,1.3340119211669696,0,4.0,3.0,1,2,3,0,3,0,0,4,4,6,,,,,,,386.264441542,386.264441542,387.27875354200023,387.61180808300014,387.83058425000036,387.83058425000036,387.83058425000036,389.2454947080005,389.2454947080005,389.2454947080005,389.2454947080005,390.2452397920006,200005,201,2023-04-11_14h36.57.016,DMS_et_12-36,2022.2.4,None,
34,UNPRED,12,0.5840119211669696,0,images/picture_1.png,images/picture_1.png,0,"[11.733433509789464, 11.733433509789462]",11.733433509789464,11.733433509789462,images/picture_2.png,1,"[-11.733433509789462, 11.733433509789464]",-11.733433509789462,11.733433509789464,images/picture_3.png,2,"[-11.733433509789466, -11.733433509789462]",-11.733433509789464,-11.733433509789462,0,1,1,0.5840119211669696,1.5840119211669696,1.4159880788330304,3.0,1,1.3340119211669696,0,4.0,3.0,1,2,3,0,3,0,0,5,5,7,,,,,,,390.2452397920006,390.2452397920006,391.24549016699984,391.57873783300056,391.83177783300016,391.83177783300016,391.83177783300016,393.2455057500001,393.2455057500001,393.2455057500001,393.2455057500001,394.2449333750001,200005,201,2023-04-11_14h36.57.016,DMS_et_12-36,2022.2.4,None,
27,UNPRED,12,0.5840119211669696,0,images/picture_1.png,images/picture_1.png,0,"[11.733433509789462, -11.733433509789466]",11.733433509789462,-11.733433509789464,images/picture_2.png,1,"[11.733433509789464, 11.733433509789462]",11.733433509789464,11.733433509789462,images/picture_3.png,2,"[-11.733433509789466, -11.733433509789462]",-11.733433509789464,-11.733433509789462,0,1,1,0.5840119211669696,1.5840119211669696,1.4159880788330304,3.0,1,1.3340119211669696,0,4.0,3.0,1,2,3,0,3,0,0,6,6,0,,,,,,,394.2449333750001,394.2449333750001,395.2455771670002,395.57879695800057,395.83205975000055,395.83205975000055,395.83205975000055,397.2454868750001,397.2454868750001,397.2454868750001,397.2454868750001,398.26404900000034,200005,201,2023-04-11_14h36.57.016,DMS_et_12-36,2022.2.4,None,
35,UNPRED,12,0.5840119211669696,2,images/picture_3.png,images/picture_1.png,0,"[11.733433509789462, -11.733433509789466]",11.733433509789462,-11.733433509789464,images/picture_2.png,1,"[-11.733433509789466, -11.733433509789462]",-11.733433509789464,-11.733433509789462,images/picture_3.png,2,"[11.733433509789464, 11.733433509789462]",11.733433509789464,11.733433509789462,0,1,1,0.5840119211669696,1.5840119211669696,1.4159880788330304,3.0,1,1.3340119211669696,0,4.0,3.0,1,2,3,0,3,0,0,7,7,8,,,,,,,398.26404900000034,398.26404900000034,399.27878979199977,399.61210845799997,399.8120839579997,399.8120839579997,399.8120839579997,401.23169770799996,401.23169770799996,401.23169770799996,401.24557170800017,402.24495475000094,200005,201,2023-04-11_14h36.57.016,DMS_et_12-36,2022.2.4,None,
32,UNPRED,12,0.5840119211669696,0,images/picture_1.png,images/picture_1.png,0,"[11.733433509789464, 11.733433509789462]",11.733433509789464,11.733433509789462,images/picture_2.png,1,"[11.733433509789462, -11.733433509789466]",11.733433509789462,-11.733433509789464,images/picture_3.png,2,"[-11.733433509789466, -11.733433509789462]",-11.733433509789464,-11.733433509789462,0,1,1,0.5840119211669696,1.5840119211669696,1.4159880788330304,3.0,1,1.3340119211669696,0,4.0,3.0,1,2,3,0,3,0,0,8,8,5,,,,,,,402.24495475000094,402.24495475000094,403.2455161250009,403.5787961670003,403.8315513330008,403.8315513330008,403.8315513330008,405.24556216700057,405.24556216700057,405.24556216700057,405.24556216700057,406.3068679170001,200005,201,2023-04-11_14h36.57.016,DMS_et_12-36,2022.2.4,None,
,,,,,,,,,,,,,,,,,,,,,,,,,,,,,,,,,,,3,0,3,0,,,,,,,,,406.3068679170001,418.331423083001,,,,,,,,,,,,,200005,201,2023-04-11_14h36.57.016,DMS_et_12-36,2022.2.4,None,
39,PRED,12,0.5840119211669696,1,images/picture_2.png,images/picture_1.png,0,"[11.733433509789462, -11.733433509789466]",11.733433509789462,-11.733433509789464,images/picture_2.png,1,"[-11.733433509789462, 11.733433509789464]",-11.733433509789462,11.733433509789464,images/picture_3.png,2,"[11.733433509789464, 11.733433509789462]",11.733433509789464,11.733433509789462,0,1,1,0.5840119211669696,1.5840119211669696,1.4159880788330304,3.0,1,1.3340119211669696,0,4.0,3.0,1,2,4,0,4,0,0,0,0,3,,,,,,,418.331423083001,418.331423083001,419.3453553749996,419.67896216700046,419.9030394169995,419.9030394169995,419.9030394169995,421.3314206670011,421.3314206670011,421.3314206670011,421.3122270829999,422.3117307500006,200005,201,2023-04-11_14h36.57.016,DMS_et_12-36,2022.2.4,None,
41,PRED,12,0.5840119211669696,1,images/picture_2.png,images/picture_1.png,0,"[-11.733433509789462, 11.733433509789464]",-11.733433509789462,11.733433509789464,images/picture_2.png,1,"[-11.733433509789466, -11.733433509789462]",-11.733433509789464,-11.733433509789462,images/picture_3.png,2,"[11.733433509789464, 11.733433509789462]",11.733433509789464,11.733433509789462,0,1,1,0.5840119211669696,1.5840119211669696,1.4159880788330304,3.0,1,1.3340119211669696,0,4.0,3.0,1,2,4,0,4,0,0,1,1,5,,,,,,,422.3117307500006,422.3117307500006,423.3123869580004,423.6455723749996,423.8984246250011,423.8984246250011,423.8984246250011,425.31226700000025,425.31226700000025,425.31226700000025,425.31226700000025,426.31169766699986,200005,201,2023-04-11_14h36.57.016,DMS_et_12-36,2022.2.4,None,
36,PRED,12,0.5840119211669696,1,images/picture_2.png,images/picture_1.png,0,"[11.733433509789464, 11.733433509789462]",11.733433509789464,11.733433509789462,images/picture_2.png,1,"[11.733433509789462, -11.733433509789466]",11.733433509789462,-11.733433509789464,images/picture_3.png,2,"[-11.733433509789466, -11.733433509789462]",-11.733433509789464,-11.733433509789462,0,1,1,0.5840119211669696,1.5840119211669696,1.4159880788330304,3.0,1,1.3340119211669696,0,4.0,3.0,1,2,4,0,4,0,0,2,2,0,,,,,,,426.31169766699986,426.31169766699986,427.3122750829998,427.64556812499995,427.898351750001,427.898351750001,427.898351750001,429.312109417001,429.312109417001,429.312109417001,429.312109417001,430.31181600000036,200005,201,2023-04-11_14h36.57.016,DMS_et_12-36,2022.2.4,None,
40,PRED,12,0.5840119211669696,1,images/picture_2.png,images/picture_1.png,0,"[-11.733433509789466, -11.733433509789462]",-11.733433509789464,-11.733433509789462,images/picture_2.png,1,"[11.733433509789464, 11.733433509789462]",11.733433509789464,11.733433509789462,images/picture_3.png,2,"[11.733433509789462, -11.733433509789466]",11.733433509789462,-11.733433509789464,0,1,1,0.5840119211669696,1.5840119211669696,1.4159880788330304,3.0,1,1.3340119211669696,0,4.0,3.0,1,2,4,0,4,0,0,3,3,4,,,,,,,430.31181600000036,430.31181600000036,431.3123582500002,431.6455412080004,431.8984237499999,431.8984237499999,431.8984237499999,433.31235308300074,433.31235308300074,433.31235308300074,433.31235308300074,434.31185933300094,200005,201,2023-04-11_14h36.57.016,DMS_et_12-36,2022.2.4,None,
44,PRED,12,0.5840119211669696,1,images/picture_2.png,images/picture_1.png,0,"[11.733433509789462, -11.733433509789466]",11.733433509789462,-11.733433509789464,images/picture_2.png,1,"[11.733433509789464, 11.733433509789462]",11.733433509789464,11.733433509789462,images/picture_3.png,2,"[-11.733433509789466, -11.733433509789462]",-11.733433509789464,-11.733433509789462,0,1,1,0.5840119211669696,1.5840119211669696,1.4159880788330304,3.0,1,1.3340119211669696,0,4.0,3.0,1,2,4,0,4,0,0,4,4,8,,,,,,,434.31185933300094,434.31185933300094,435.31224179199944,435.64556733300105,435.89869845799967,435.89869845799967,435.89869845799967,437.31231195800046,437.31231195800046,437.31231195800046,437.31231195800046,438.3117632500007,200005,201,2023-04-11_14h36.57.016,DMS_et_12-36,2022.2.4,None,
38,PRED,12,0.5840119211669696,1,images/picture_2.png,images/picture_1.png,0,"[-11.733433509789466, -11.733433509789462]",-11.733433509789464,-11.733433509789462,images/picture_2.png,1,"[11.733433509789464, 11.733433509789462]",11.733433509789464,11.733433509789462,images/picture_3.png,2,"[11.733433509789462, -11.733433509789466]",11.733433509789462,-11.733433509789464,0,1,1,0.5840119211669696,1.5840119211669696,1.4159880788330304,3.0,1,1.3340119211669696,0,4.0,3.0,1,2,4,0,4,0,0,5,5,2,,,,,,,438.3117632500007,438.3117632500007,439.31218208300106,439.6454916249995,439.89811420800015,439.89811420800015,439.89811420800015,441.312271875001,441.312271875001,441.312271875001,441.312271875001,442.31182320800053,200005,201,2023-04-11_14h36.57.016,DMS_et_12-36,2022.2.4,None,
37,PRED,12,0.5840119211669696,1,images/picture_2.png,images/picture_1.png,0,"[-11.733433509789466, -11.733433509789462]",-11.733433509789464,-11.733433509789462,images/picture_2.png,1,"[-11.733433509789462, 11.733433509789464]",-11.733433509789462,11.733433509789464,images/picture_3.png,2,"[11.733433509789464, 11.733433509789462]",11.733433509789464,11.733433509789462,0,1,1,0.5840119211669696,1.5840119211669696,1.4159880788330304,3.0,1,1.3340119211669696,0,4.0,3.0,1,2,4,0,4,0,0,6,6,1,,,,,,,442.31182320800053,442.31182320800053,443.312520333001,443.6458172499997,443.8988568750001,443.8988568750001,443.8988568750001,445.3124448330009,445.3124448330009,445.3124448330009,445.3124448330009,446.31186137500026,200005,201,2023-04-11_14h36.57.016,DMS_et_12-36,2022.2.4,None,
43,PRED,12,0.5840119211669696,1,images/picture_2.png,images/picture_1.png,0,"[-11.733433509789462, 11.733433509789464]",-11.733433509789462,11.733433509789464,images/picture_2.png,1,"[11.733433509789462, -11.733433509789466]",11.733433509789462,-11.733433509789464,images/picture_3.png,2,"[11.733433509789464, 11.733433509789462]",11.733433509789464,11.733433509789462,0,1,1,0.5840119211669696,1.5840119211669696,1.4159880788330304,3.0,1,1.3340119211669696,0,4.0,3.0,1,2,4,0,4,0,0,7,7,7,,,,,,,446.31186137500026,446.31186137500026,447.31251108299966,447.64577974999975,447.8989878330003,447.8989878330003,447.8989878330003,449.31215299999985,449.31215299999985,449.31215299999985,449.31215299999985,450.31201562499973,200005,201,2023-04-11_14h36.57.016,DMS_et_12-36,2022.2.4,None,
42,PRED,12,0.5840119211669696,1,images/picture_2.png,images/picture_1.png,0,"[11.733433509789462, -11.733433509789466]",11.733433509789462,-11.733433509789464,images/picture_2.png,1,"[-11.733433509789466, -11.733433509789462]",-11.733433509789464,-11.733433509789462,images/picture_3.png,2,"[-11.733433509789462, 11.733433509789464]",-11.733433509789462,11.733433509789464,0,1,1,0.5840119211669696,1.5840119211669696,1.4159880788330304,3.0,1,1.3340119211669696,0,4.0,3.0,1,2,4,0,4,0,0,8,8,6,,,,,,,450.31201562499973,450.31201562499973,451.3124813330005,451.64573566700074,451.89841050000086,451.89841050000086,451.89841050000086,453.31250895799985,453.31250895799985,453.31250895799985,453.31250895799985,454.37255512499996,200005,201,2023-04-11_14h36.57.016,DMS_et_12-36,2022.2.4,None,
,,,,,,,,,,,,,,,,,,,,,,,,,,,,,,,,,,,4,0,4,0,,,,,,,,,454.37255512499996,466.3993694999999,,,,,,,,,,,,,200005,201,2023-04-11_14h36.57.016,DMS_et_12-36,2022.2.4,None,
46,UNPRED,12,0.5840119211669696,0,images/picture_1.png,images/picture_1.png,0,"[11.733433509789462, -11.733433509789466]",11.733433509789462,-11.733433509789464,images/picture_2.png,1,"[11.733433509789464, 11.733433509789462]",11.733433509789464,11.733433509789462,images/picture_3.png,2,"[-11.733433509789466, -11.733433509789462]",-11.733433509789464,-11.733433509789462,0,1,1,0.5840119211669696,1.5840119211669696,1.4159880788330304,3.0,1,1.3340119211669696,0,4.0,3.0,1,2,5,0,5,0,0,0,0,1,,,,,,,466.3993694999999,466.3993694999999,467.41225504200065,467.7455527920001,467.97832120800103,467.97832120800103,467.97832120800103,469.39842608300114,469.39842608300114,469.39842608300114,469.39842608300114,470.4119354170007,200005,201,2023-04-11_14h36.57.016,DMS_et_12-36,2022.2.4,None,
49,UNPRED,12,0.5840119211669696,1,images/picture_2.png,images/picture_1.png,0,"[-11.733433509789462, 11.733433509789464]",-11.733433509789462,11.733433509789464,images/picture_2.png,1,"[11.733433509789462, -11.733433509789466]",11.733433509789462,-11.733433509789464,images/picture_3.png,2,"[11.733433509789464, 11.733433509789462]",11.733433509789464,11.733433509789462,0,1,1,0.5840119211669696,1.5840119211669696,1.4159880788330304,3.0,1,1.3340119211669696,0,4.0,3.0,1,2,5,0,5,0,0,1,1,4,,,,,,,470.4119354170007,470.4119354170007,471.41222987499987,471.74555316700116,471.9981140000009,471.9981140000009,471.9981140000009,473.4122877079999,473.4122877079999,473.4122877079999,473.4122877079999,474.4116814170002,200005,201,2023-04-11_14h36.57.016,DMS_et_12-36,2022.2.4,None,
50,UNPRED,12,0.5840119211669696,1,images/picture_2.png,images/picture_1.png,0,"[11.733433509789462, -11.733433509789466]",11.733433509789462,-11.733433509789464,images/picture_2.png,1,"[-11.733433509789466, -11.733433509789462]",-11.733433509789464,-11.733433509789462,images/picture_3.png,2,"[-11.733433509789462, 11.733433509789464]",-11.733433509789462,11.733433509789464,0,1,1,0.5840119211669696,1.5840119211669696,1.4159880788330304,3.0,1,1.3340119211669696,0,4.0,3.0,1,2,5,0,5,0,0,2,2,5,,,,,,,474.4116814170002,474.4116814170002,475.41232412500085,475.74555429200063,475.9988167500005,475.9988167500005,475.9988167500005,477.41226000000006,477.41226000000006,477.41226000000006,477.41226000000006,478.41201708300014,200005,201,2023-04-11_14h36.57.016,DMS_et_12-36,2022.2.4,None,
51,UNPRED,12,0.5840119211669696,0,images/picture_1.png,images/picture_1.png,0,"[-11.733433509789466, -11.733433509789462]",-11.733433509789464,-11.733433509789462,images/picture_2.png,1,"[11.733433509789462, -11.733433509789466]",11.733433509789462,-11.733433509789464,images/picture_3.png,2,"[11.733433509789464, 11.733433509789462]",11.733433509789464,11.733433509789462,0,1,1,0.5840119211669696,1.5840119211669696,1.4159880788330304,3.0,1,1.3340119211669696,0,4.0,3.0,1,2,5,0,5,0,0,3,3,6,,,,,,,478.41201708300014,478.41201708300014,479.41228212499936,479.7454524579998,479.9975608329996,479.9975608329996,479.9975608329996,481.4123061250002,481.4123061250002,481.4123061250002,481.4123061250002,482.41178666699943,200005,201,2023-04-11_14h36.57.016,DMS_et_12-36,2022.2.4,None,
53,UNPRED,12,0.5840119211669696,0,images/picture_1.png,images/picture_1.png,0,"[11.733433509789462, -11.733433509789466]",11.733433509789462,-11.733433509789464,images/picture_2.png,1,"[-11.733433509789466, -11.733433509789462]",-11.733433509789464,-11.733433509789462,images/picture_3.png,2,"[11.733433509789464, 11.733433509789462]",11.733433509789464,11.733433509789462,0,1,1,0.5840119211669696,1.5840119211669696,1.4159880788330304,3.0,1,1.3340119211669696,0,4.0,3.0,1,2,5,0,5,0,0,4,4,8,,,,,,,482.41178666699943,482.41178666699943,483.4122488330004,483.7455139170006,483.9984266670008,483.9984266670008,483.9984266670008,485.41231979200074,485.41231979200074,485.41231979200074,485.41231979200074,486.41196404200036,200005,201,2023-04-11_14h36.57.016,DMS_et_12-36,2022.2.4,None,
48,UNPRED,12,0.5840119211669696,0,images/picture_1.png,images/picture_1.png,0,"[11.733433509789462, -11.733433509789466]",11.733433509789462,-11.733433509789464,images/picture_2.png,1,"[-11.733433509789466, -11.733433509789462]",-11.733433509789464,-11.733433509789462,images/picture_3.png,2,"[-11.733433509789462, 11.733433509789464]",-11.733433509789462,11.733433509789464,0,1,1,0.5840119211669696,1.5840119211669696,1.4159880788330304,3.0,1,1.3340119211669696,0,4.0,3.0,1,2,5,0,5,0,0,5,5,3,,,,,,,486.41196404200036,486.41196404200036,487.41231683299975,487.74551925000105,487.99838462500065,487.99838462500065,487.99838462500065,489.4123207500006,489.4123207500006,489.4123207500006,489.4123207500006,490.41195362500093,200005,201,2023-04-11_14h36.57.016,DMS_et_12-36,2022.2.4,None,
45,UNPRED,12,0.5840119211669696,0,images/picture_1.png,images/picture_1.png,0,"[-11.733433509789462, 11.733433509789464]",-11.733433509789462,11.733433509789464,images/picture_2.png,1,"[11.733433509789462, -11.733433509789466]",11.733433509789462,-11.733433509789464,images/picture_3.png,2,"[-11.733433509789466, -11.733433509789462]",-11.733433509789464,-11.733433509789462,0,1,1,0.5840119211669696,1.5840119211669696,1.4159880788330304,3.0,1,1.3340119211669696,0,4.0,3.0,1,2,5,0,5,0,0,6,6,0,,,,,,,490.41195362500093,490.41195362500093,491.41239075000067,491.74571854199985,491.97881529200004,491.97881529200004,491.97881529200004,493.3980554580003,493.3980554580003,493.3980554580003,493.4123027079995,494.41136941700006,200005,201,2023-04-11_14h36.57.016,DMS_et_12-36,2022.2.4,None,
47,UNPRED,12,0.5840119211669696,1,images/picture_2.png,images/picture_1.png,0,"[-11.733433509789462, 11.733433509789464]",-11.733433509789462,11.733433509789464,images/picture_2.png,1,"[11.733433509789464, 11.733433509789462]",11.733433509789464,11.733433509789462,images/picture_3.png,2,"[11.733433509789462, -11.733433509789466]",11.733433509789462,-11.733433509789464,0,1,1,0.5840119211669696,1.5840119211669696,1.4159880788330304,3.0,1,1.3340119211669696,0,4.0,3.0,1,2,5,0,5,0,0,7,7,2,,,,,,,494.41136941700006,494.41136941700006,495.412312458001,495.7457120000008,495.99838241700036,495.99838241700036,495.99838241700036,497.4123050829994,497.4123050829994,497.4123050829994,497.4123050829994,498.4310247500007,200005,201,2023-04-11_14h36.57.016,DMS_et_12-36,2022.2.4,None,
52,UNPRED,12,0.5840119211669696,2,images/picture_3.png,images/picture_1.png,0,"[-11.733433509789462, 11.733433509789464]",-11.733433509789462,11.733433509789464,images/picture_2.png,1,"[11.733433509789462, -11.733433509789466]",11.733433509789462,-11.733433509789464,images/picture_3.png,2,"[11.733433509789464, 11.733433509789462]",11.733433509789464,11.733433509789462,0,1,1,0.5840119211669696,1.5840119211669696,1.4159880788330304,3.0,1,1.3340119211669696,0,4.0,3.0,1,2,5,0,5,0,0,8,8,7,,,,,,,498.4310247500007,498.4310247500007,499.4455457079994,499.7790065420004,499.9982817499995,499.9982817499995,499.9982817499995,501.4119931670002,501.4119931670002,501.4119931670002,501.4119931670002,502.53223004200026,200005,201,2023-04-11_14h36.57.016,DMS_et_12-36,2022.2.4,None,
,,,,,,,,,,,,,,,,,,,,,,,,,,,,,,,,,,,5,0,5,0,,,,,,,,,502.53223004200026,514.5840184170002,,,,,,,,,,,,,200005,201,2023-04-11_14h36.57.016,DMS_et_12-36,2022.2.4,None,
57,PRED,12,0.5840119211669696,0,images/picture_1.png,images/picture_1.png,0,"[11.733433509789462, -11.733433509789466]",11.733433509789462,-11.733433509789464,images/picture_2.png,1,"[-11.733433509789462, 11.733433509789464]",-11.733433509789462,11.733433509789464,images/picture_3.png,2,"[-11.733433509789466, -11.733433509789462]",-11.733433509789464,-11.733433509789462,0,1,1,0.5840119211669696,1.5840119211669696,1.4159880788330304,3.0,1,1.3340119211669696,0,4.0,3.0,1,2,6,0,6,0,0,0,0,3,,,,,,,514.5840184170002,514.5840184170002,515.598945875,515.9317581250007,516.1652779170008,516.1652779170008,516.1652779170008,517.5790192079994,517.5790192079994,517.5790192079994,517.5790192079994,518.5785576669996,200005,201,2023-04-11_14h36.57.016,DMS_et_12-36,2022.2.4,None,
59,PRED,12,0.5840119211669696,0,images/picture_1.png,images/picture_1.png,0,"[-11.733433509789462, 11.733433509789464]",-11.733433509789462,11.733433509789464,images/picture_2.png,1,"[11.733433509789464, 11.733433509789462]",11.733433509789464,11.733433509789462,images/picture_3.png,2,"[-11.733433509789466, -11.733433509789462]",-11.733433509789464,-11.733433509789462,0,1,1,0.5840119211669696,1.5840119211669696,1.4159880788330304,3.0,1,1.3340119211669696,0,4.0,3.0,1,2,6,0,6,0,0,1,1,5,,,,,,,518.5785576669996,518.5785576669996,519.5790192079994,519.9122784170004,520.1648249580003,520.1648249580003,520.1648249580003,521.5786828749997,521.5786828749997,521.5786828749997,521.5786828749997,522.5787651670007,200005,201,2023-04-11_14h36.57.016,DMS_et_12-36,2022.2.4,None,
58,PRED,12,0.5840119211669696,0,images/picture_1.png,images/picture_1.png,0,"[11.733433509789462, -11.733433509789466]",11.733433509789462,-11.733433509789464,images/picture_2.png,1,"[11.733433509789464, 11.733433509789462]",11.733433509789464,11.733433509789462,images/picture_3.png,2,"[-11.733433509789462, 11.733433509789464]",-11.733433509789462,11.733433509789464,0,1,1,0.5840119211669696,1.5840119211669696,1.4159880788330304,3.0,1,1.3340119211669696,0,4.0,3.0,1,2,6,0,6,0,0,2,2,4,,,,,,,522.5787651670007,522.5787651670007,523.5790252500001,523.9124214169997,524.1655326250011,524.1655326250011,524.1655326250011,525.5790565420002,525.5790565420002,525.5790565420002,525.5790565420002,526.5787400420004,200005,201,2023-04-11_14h36.57.016,DMS_et_12-36,2022.2.4,None,
54,PRED,12,0.5840119211669696,0,images/picture_1.png,images/picture_1.png,0,"[-11.733433509789466, -11.733433509789462]",-11.733433509789464,-11.733433509789462,images/picture_2.png,1,"[-11.733433509789462, 11.733433509789464]",-11.733433509789462,11.733433509789464,images/picture_3.png,2,"[11.733433509789462, -11.733433509789466]",11.733433509789462,-11.733433509789464,0,1,1,0.5840119211669696,1.5840119211669696,1.4159880788330304,3.0,1,1.3340119211669696,0,4.0,3.0,1,2,6,0,6,0,0,3,3,0,,,,,,,526.5787400420004,526.5787400420004,527.5790150830007,527.9122645830003,528.1656286250009,528.1656286250009,528.1656286250009,529.579036125001,529.579036125001,529.579036125001,529.579036125001,530.578475542,200005,201,2023-04-11_14h36.57.016,DMS_et_12-36,2022.2.4,None,
60,PRED,12,0.5840119211669696,0,images/picture_1.png,images/picture_1.png,0,"[-11.733433509789462, 11.733433509789464]",-11.733433509789462,11.733433509789464,images/picture_2.png,1,"[-11.733433509789466, -11.733433509789462]",-11.733433509789464,-11.733433509789462,images/picture_3.png,2,"[11.733433509789462, -11.733433509789466]",11.733433509789462,-11.733433509789464,0,1,1,0.5840119211669696,1.5840119211669696,1.4159880788330304,3.0,1,1.3340119211669696,0,4.0,3.0,1,2,6,0,6,0,0,4,4,6,,,,,,,530.578475542,530.578475542,531.5789595830001,531.9122885420011,532.1643279999998,532.1643279999998,532.1643279999998,533.5790972080003,533.5790972080003,533.5790972080003,533.5790972080003,534.578813000001,200005,201,2023-04-11_14h36.57.016,DMS_et_12-36,2022.2.4,None,
61,PRED,12,0.5840119211669696,0,images/picture_1.png,images/picture_1.png,0,"[-11.733433509789466, -11.733433509789462]",-11.733433509789464,-11.733433509789462,images/picture_2.png,1,"[-11.733433509789462, 11.733433509789464]",-11.733433509789462,11.733433509789464,images/picture_3.png,2,"[11.733433509789464, 11.733433509789462]",11.733433509789464,11.733433509789462,0,1,1,0.5840119211669696,1.5840119211669696,1.4159880788330304,3.0,1,1.3340119211669696,0,4.0,3.0,1,2,6,0,6,0,0,5,5,7,,,,,,,534.578813000001,534.578813000001,535.5790134580011,535.9124926249997,536.1650154170011,536.1650154170011,536.1650154170011,537.5790927919998,537.5790927919998,537.5790927919998,537.5790927919998,538.5787367080002,200005,201,2023-04-11_14h36.57.016,DMS_et_12-36,2022.2.4,None,
62,PRED,12,0.5840119211669696,0,images/picture_1.png,images/picture_1.png,0,"[11.733433509789462, -11.733433509789466]",11.733433509789462,-11.733433509789464,images/picture_2.png,1,"[-11.733433509789466, -11.733433509789462]",-11.733433509789464,-11.733433509789462,images/picture_3.png,2,"[-11.733433509789462, 11.733433509789464]",-11.733433509789462,11.733433509789464,0,1,1,0.5840119211669696,1.5840119211669696,1.4159880788330304,3.0,1,1.3340119211669696,0,4.0,3.0,1,2,6,0,6,0,0,6,6,8,,,,,,,538.5787367080002,538.5787367080002,539.579254958001,539.9122848329998,540.1651606670011,540.1651606670011,540.1651606670011,541.5788012080002,541.5788012080002,541.5788012080002,541.5788012080002,542.578805125001,200005,201,2023-04-11_14h36.57.016,DMS_et_12-36,2022.2.4,None,
55,PRED,12,0.5840119211669696,0,images/picture_1.png,images/picture_1.png,0,"[-11.733433509789462, 11.733433509789464]",-11.733433509789462,11.733433509789464,images/picture_2.png,1,"[-11.733433509789466, -11.733433509789462]",-11.733433509789464,-11.733433509789462,images/picture_3.png,2,"[11.733433509789464, 11.733433509789462]",11.733433509789464,11.733433509789462,0,1,1,0.5840119211669696,1.5840119211669696,1.4159880788330304,3.0,1,1.3340119211669696,0,4.0,3.0,1,2,6,0,6,0,0,7,7,1,,,,,,,542.578805125001,542.578805125001,543.5789734170003,543.9124899999997,544.164900625,544.164900625,544.164900625,545.5790101249995,545.5790101249995,545.5790101249995,545.5790101249995,546.5787522920009,200005,201,2023-04-11_14h36.57.016,DMS_et_12-36,2022.2.4,None,
56,PRED,12,0.5840119211669696,0,images/picture_1.png,images/picture_1.png,0,"[-11.733433509789466, -11.733433509789462]",-11.733433509789464,-11.733433509789462,images/picture_2.png,1,"[11.733433509789464, 11.733433509789462]",11.733433509789464,11.733433509789462,images/picture_3.png,2,"[-11.733433509789462, 11.733433509789464]",-11.733433509789462,11.733433509789464,0,1,1,0.5840119211669696,1.5840119211669696,1.4159880788330304,3.0,1,1.3340119211669696,0,4.0,3.0,1,2,6,0,6,0,0,8,8,2,,,,,,,546.5787522920009,546.5787522920009,547.5790858749997,547.912272333001,548.1652482920008,548.1652482920008,548.1652482920008,549.5788665829996,549.5788665829996,549.5788665829996,549.5788665829996,550.6557897080011,200005,201,2023-04-11_14h36.57.016,DMS_et_12-36,2022.2.4,None,
,,,,,,,,,,,,,,,,,,,,,,,,,,,,,,,,,,,6,0,6,0,,,,,,,,,550.6557897080011,562.6689740829997,,,,,,,,,,,,,200005,201,2023-04-11_14h36.57.016,DMS_et_12-36,2022.2.4,None,
68,UNPRED,12,0.5840119211669696,0,images/picture_1.png,images/picture_1.png,0,"[-11.733433509789462, 11.733433509789464]",-11.733433509789462,11.733433509789464,images/picture_2.png,1,"[11.733433509789462, -11.733433509789466]",11.733433509789462,-11.733433509789464,images/picture_3.png,2,"[-11.733433509789466, -11.733433509789462]",-11.733433509789464,-11.733433509789462,0,1,1,0.5840119211669696,1.5840119211669696,1.4159880788330304,3.0,1,1.3340119211669696,0,4.0,3.0,1,2,7,0,7,0,0,0,0,5,,,,,,,562.6689740829997,562.6689740829997,563.6793172919997,564.0126535829995,564.2457839580011,564.2457839580011,564.2457839580011,565.665061875,565.665061875,565.665061875,565.665061875,566.6780181250006,200005,201,2023-04-11_14h36.57.016,DMS_et_12-36,2022.2.4,None,
71,UNPRED,12,0.5840119211669696,1,images/picture_2.png,images/picture_1.png,0,"[11.733433509789464, 11.733433509789462]",11.733433509789464,11.733433509789462,images/picture_2.png,1,"[11.733433509789462, -11.733433509789466]",11.733433509789462,-11.733433509789464,images/picture_3.png,2,"[-11.733433509789462, 11.733433509789464]",-11.733433509789462,11.733433509789464,0,1,1,0.5840119211669696,1.5840119211669696,1.4159880788330304,3.0,1,1.3340119211669696,0,4.0,3.0,1,2,7,0,7,0,0,1,1,8,,,,,,,566.6780181250006,566.6780181250006,567.6790942920006,568.0125204170008,568.2651039170005,568.2651039170005,568.2651039170005,569.6792301670002,569.6792301670002,569.6792301670002,569.6792301670002,570.678543250001,200005,201,2023-04-11_14h36.57.016,DMS_et_12-36,2022.2.4,None,
65,UNPRED,12,0.5840119211669696,0,images/picture_1.png,images/picture_1.png,0,"[-11.733433509789462, 11.733433509789464]",-11.733433509789462,11.733433509789464,images/picture_2.png,1,"[-11.733433509789466, -11.733433509789462]",-11.733433509789464,-11.733433509789462,images/picture_3.png,2,"[11.733433509789462, -11.733433509789466]",11.733433509789462,-11.733433509789464,0,1,1,0.5840119211669696,1.5840119211669696,1.4159880788330304,3.0,1,1.3340119211669696,0,4.0,3.0,1,2,7,0,7,0,0,2,2,2,,,,,,,570.678543250001,570.678543250001,571.6791661670004,572.0125070000004,572.264309792,572.264309792,572.264309792,573.6790436670008,573.6790436670008,573.6790436670008,573.6790436670008,574.678556625001,200005,201,2023-04-11_14h36.57.016,DMS_et_12-36,2022.2.4,None,
64,UNPRED,12,0.5840119211669696,0,images/picture_1.png,images/picture_1.png,0,"[11.733433509789464, 11.733433509789462]",11.733433509789464,11.733433509789462,images/picture_2.png,1,"[-11.733433509789462, 11.733433509789464]",-11.733433509789462,11.733433509789464,images/picture_3.png,2,"[11.733433509789462, -11.733433509789466]",11.733433509789462,-11.733433509789464,0,1,1,0.5840119211669696,1.5840119211669696,1.4159880788330304,3.0,1,1.3340119211669696,0,4.0,3.0,1,2,7,0,7,0,0,3,3,1,,,,,,,574.678556625001,574.678556625001,575.6792393330006,576.0124519169995,576.2658411670009,576.2658411670009,576.2658411670009,577.679189417001,577.679189417001,577.679189417001,577.679189417001,578.6785377500009,200005,201,2023-04-11_14h36.57.016,DMS_et_12-36,2022.2.4,None,
63,UNPRED,12,0.5840119211669696,0,images/picture_1.png,images/picture_1.png,0,"[-11.733433509789466, -11.733433509789462]",-11.733433509789464,-11.733433509789462,images/picture_2.png,1,"[-11.733433509789462, 11.733433509789464]",-11.733433509789462,11.733433509789464,images/picture_3.png,2,"[11.733433509789462, -11.733433509789466]",11.733433509789462,-11.733433509789464,0,1,1,0.5840119211669696,1.5840119211669696,1.4159880788330304,3.0,1,1.3340119211669696,0,4.0,3.0,1,2,7,0,7,0,0,4,4,0,,,,,,,578.6785377500009,578.6785377500009,579.679056375001,580.0124507499995,580.2652005829996,580.2652005829996,580.2652005829996,581.6792520000008,581.6792520000008,581.6792520000008,581.6792520000008,582.6788126670008,200005,201,2023-04-11_14h36.57.016,DMS_et_12-36,2022.2.4,None,
66,UNPRED,12,0.5840119211669696,1,images/picture_2.png,images/picture_1.png,0,"[-11.733433509789462, 11.733433509789464]",-11.733433509789462,11.733433509789464,images/picture_2.png,1,"[11.733433509789462, -11.733433509789466]",11.733433509789462,-11.733433509789464,images/picture_3.png,2,"[-11.733433509789466, -11.733433509789462]",-11.733433509789464,-11.733433509789462,0,1,1,0.5840119211669696,1.5840119211669696,1.4159880788330304,3.0,1,1.3340119211669696,0,4.0,3.0,1,2,7,0,7,0,0,5,5,3,,,,,,,582.6788126670008,582.6788126670008,583.6792642499995,584.012480417,584.2458446669998,584.2458446669998,584.2458446669998,585.6653448749994,585.6653448749994,585.6653448749994,585.6790543329998,586.6986360420005,200005,201,2023-04-11_14h36.57.016,DMS_et_12-36,2022.2.4,None,
67,UNPRED,12,0.5840119211669696,2,images/picture_3.png,images/picture_1.png,0,"[-11.733433509789462, 11.733433509789464]",-11.733433509789462,11.733433509789464,images/picture_2.png,1,"[11.733433509789464, 11.733433509789462]",11.733433509789464,11.733433509789462,images/picture_3.png,2,"[11.733433509789462, -11.733433509789466]",11.733433509789462,-11.733433509789464,0,1,1,0.5840119211669696,1.5840119211669696,1.4159880788330304,3.0,1,1.3340119211669696,0,4.0,3.0,1,2,7,0,7,0,0,6,6,4,,,,,,,586.6986360420005,586.6986360420005,587.7125271670002,588.0457728330011,588.2650356250006,588.2650356250006,588.2650356250006,589.6792467080004,589.6792467080004,589.6792467080004,589.6792467080004,590.6790083330006,200005,201,2023-04-11_14h36.57.016,DMS_et_12-36,2022.2.4,None,
70,UNPRED,12,0.5840119211669696,1,images/picture_2.png,images/picture_1.png,0,"[-11.733433509789462, 11.733433509789464]",-11.733433509789462,11.733433509789464,images/picture_2.png,1,"[11.733433509789464, 11.733433509789462]",11.733433509789464,11.733433509789462,images/picture_3.png,2,"[11.733433509789462, -11.733433509789466]",11.733433509789462,-11.733433509789464,0,1,1,0.5840119211669696,1.5840119211669696,1.4159880788330304,3.0,1,1.3340119211669696,0,4.0,3.0,1,2,7,0,7,0,0,7,7,7,,,,,,,590.6790083330006,590.6790083330006,591.679235083001,592.0124566250006,592.2653036250003,592.2653036250003,592.2653036250003,593.6789735000011,593.6789735000011,593.6789735000011,593.6789735000011,594.6977590830002,200005,201,2023-04-11_14h36.57.016,DMS_et_12-36,2022.2.4,None,
69,UNPRED,12,0.5840119211669696,2,images/picture_3.png,images/picture_1.png,0,"[11.733433509789462, -11.733433509789466]",11.733433509789462,-11.733433509789464,images/picture_2.png,1,"[-11.733433509789466, -11.733433509789462]",-11.733433509789464,-11.733433509789462,images/picture_3.png,2,"[11.733433509789464, 11.733433509789462]",11.733433509789464,11.733433509789462,0,1,1,0.5840119211669696,1.5840119211669696,1.4159880788330304,3.0,1,1.3340119211669696,0,4.0,3.0,1,2,7,0,7,0,0,8,8,6,,,,,,,594.6977590830002,594.6977590830002,595.7125413330004,596.0457929579998,596.2650903330004,596.2650903330004,596.2650903330004,597.6792214580009,597.6792214580009,597.6792214580009,597.6792214580009,598.7674226669997,200005,201,2023-04-11_14h36.57.016,DMS_et_12-36,2022.2.4,None,
,,,,,,,,,,,,,,,,,,,,,,,,,,,,,,,,,,,7,0,7,0,,,,,,,,,598.7674226669997,610.805551208,,,,,,,,,,,,,200005,201,2023-04-11_14h36.57.016,DMS_et_12-36,2022.2.4,None,
79,PRED,12,0.5840119211669696,1,images/picture_2.png,images/picture_1.png,0,"[11.733433509789462, -11.733433509789466]",11.733433509789462,-11.733433509789464,images/picture_2.png,1,"[-11.733433509789462, 11.733433509789464]",-11.733433509789462,11.733433509789464,images/picture_3.png,2,"[-11.733433509789466, -11.733433509789462]",-11.733433509789464,-11.733433509789462,0,1,1,0.5840119211669696,1.5840119211669696,1.4159880788330304,3.0,1,1.3340119211669696,0,4.0,3.0,1,2,8,0,8,0,0,0,0,7,,,,,,,610.805551208,610.805551208,611.8125826250007,612.1459486670001,612.3792744169996,612.3792744169996,612.3792744169996,613.7979831670009,613.7979831670009,613.7979831670009,613.7979831670009,614.8120143750011,200005,201,2023-04-11_14h36.57.016,DMS_et_12-36,2022.2.4,None,
73,PRED,12,0.5840119211669696,1,images/picture_2.png,images/picture_1.png,0,"[-11.733433509789462, 11.733433509789464]",-11.733433509789462,11.733433509789464,images/picture_2.png,1,"[11.733433509789464, 11.733433509789462]",11.733433509789464,11.733433509789462,images/picture_3.png,2,"[-11.733433509789466, -11.733433509789462]",-11.733433509789464,-11.733433509789462,0,1,1,0.5840119211669696,1.5840119211669696,1.4159880788330304,3.0,1,1.3340119211669696,0,4.0,3.0,1,2,8,0,8,0,0,1,1,1,,,,,,,614.8120143750011,614.8120143750011,615.8124782500008,616.1459439170003,616.3985561250001,616.3985561250001,616.3985561250001,617.8125717499997,617.8125717499997,617.8125717499997,617.8125717499997,618.811933375001,200005,201,2023-04-11_14h36.57.016,DMS_et_12-36,2022.2.4,None,
80,PRED,12,0.5840119211669696,1,images/picture_2.png,images/picture_1.png,0,"[11.733433509789464, 11.733433509789462]",11.733433509789464,11.733433509789462,images/picture_2.png,1,"[-11.733433509789462, 11.733433509789464]",-11.733433509789462,11.733433509789464,images/picture_3.png,2,"[11.733433509789462, -11.733433509789466]",11.733433509789462,-11.733433509789464,0,1,1,0.5840119211669696,1.5840119211669696,1.4159880788330304,3.0,1,1.3340119211669696,0,4.0,3.0,1,2,8,0,8,0,0,2,2,8,,,,,,,618.811933375001,618.811933375001,619.812576542,620.1459849579996,620.3983324999999,620.3983324999999,620.3983324999999,621.8125270829996,621.8125270829996,621.8125270829996,621.8125270829996,622.8117085000003,200005,201,2023-04-11_14h36.57.016,DMS_et_12-36,2022.2.4,None,
74,PRED,12,0.5840119211669696,1,images/picture_2.png,images/picture_1.png,0,"[11.733433509789462, -11.733433509789466]",11.733433509789462,-11.733433509789464,images/picture_2.png,1,"[-11.733433509789466, -11.733433509789462]",-11.733433509789464,-11.733433509789462,images/picture_3.png,2,"[-11.733433509789462, 11.733433509789464]",-11.733433509789462,11.733433509789464,0,1,1,0.5840119211669696,1.5840119211669696,1.4159880788330304,3.0,1,1.3340119211669696,0,4.0,3.0,1,2,8,0,8,0,0,3,3,2,,,,,,,622.8117085000003,622.8117085000003,623.8123844579995,624.1457191670006,624.3978799999995,624.3978799999995,624.3978799999995,625.8127425419998,625.8127425419998,625.8127425419998,625.8127425419998,626.812044792,200005,201,2023-04-11_14h36.57.016,DMS_et_12-36,2022.2.4,None,
78,PRED,12,0.5840119211669696,1,images/picture_2.png,images/picture_1.png,0,"[11.733433509789462, -11.733433509789466]",11.733433509789462,-11.733433509789464,images/picture_2.png,1,"[-11.733433509789466, -11.733433509789462]",-11.733433509789464,-11.733433509789462,images/picture_3.png,2,"[11.733433509789464, 11.733433509789462]",11.733433509789464,11.733433509789462,0,1,1,0.5840119211669696,1.5840119211669696,1.4159880788330304,3.0,1,1.3340119211669696,0,4.0,3.0,1,2,8,0,8,0,0,4,4,6,,,,,,,626.812044792,626.812044792,627.8127367919997,628.1460256670007,628.398632417001,628.398632417001,628.398632417001,629.8125454579995,629.8125454579995,629.8125454579995,629.8125454579995,630.8121075000008,200005,201,2023-04-11_14h36.57.016,DMS_et_12-36,2022.2.4,None,
76,PRED,12,0.5840119211669696,1,images/picture_2.png,images/picture_1.png,0,"[-11.733433509789466, -11.733433509789462]",-11.733433509789464,-11.733433509789462,images/picture_2.png,1,"[11.733433509789462, -11.733433509789466]",11.733433509789462,-11.733433509789464,images/picture_3.png,2,"[-11.733433509789462, 11.733433509789464]",-11.733433509789462,11.733433509789464,0,1,1,0.5840119211669696,1.5840119211669696,1.4159880788330304,3.0,1,1.3340119211669696,0,4.0,3.0,1,2,8,0,8,0,0,5,5,4,,,,,,,630.8121075000008,630.8121075000008,631.8127560830007,632.1460156250005,632.398796333001,632.398796333001,632.398796333001,633.8122741249999,633.8122741249999,633.8122741249999,633.8122741249999,634.8123113330012,200005,201,2023-04-11_14h36.57.016,DMS_et_12-36,2022.2.4,None,
75,PRED,12,0.5840119211669696,1,images/picture_2.png,images/picture_1.png,0,"[-11.733433509789466, -11.733433509789462]",-11.733433509789464,-11.733433509789462,images/picture_2.png,1,"[-11.733433509789462, 11.733433509789464]",-11.733433509789462,11.733433509789464,images/picture_3.png,2,"[11.733433509789464, 11.733433509789462]",11.733433509789464,11.733433509789462,0,1,1,0.5840119211669696,1.5840119211669696,1.4159880788330304,3.0,1,1.3340119211669696,0,4.0,3.0,1,2,8,0,8,0,0,6,6,3,,,,,,,634.8123113330012,634.8123113330012,635.812584458,636.1460193749999,636.3987171670005,636.3987171670005,636.3987171670005,637.8126766249998,637.8126766249998,637.8126766249998,637.8126766249998,638.8120658750004,200005,201,2023-04-11_14h36.57.016,DMS_et_12-36,2022.2.4,None,
72,PRED,12,0.5840119211669696,1,images/picture_2.png,images/picture_1.png,0,"[-11.733433509789462, 11.733433509789464]",-11.733433509789462,11.733433509789464,images/picture_2.png,1,"[-11.733433509789466, -11.733433509789462]",-11.733433509789464,-11.733433509789462,images/picture_3.png,2,"[11.733433509789464, 11.733433509789462]",11.733433509789464,11.733433509789462,0,1,1,0.5840119211669696,1.5840119211669696,1.4159880788330304,3.0,1,1.3340119211669696,0,4.0,3.0,1,2,8,0,8,0,0,7,7,0,,,,,,,638.8120658750004,638.8120658750004,639.8127518330011,640.1459758749997,640.398970958001,640.398970958001,640.398970958001,641.8125258749997,641.8125258749997,641.8125258749997,641.8125258749997,642.8121829170004,200005,201,2023-04-11_14h36.57.016,DMS_et_12-36,2022.2.4,None,
77,PRED,12,0.5840119211669696,1,images/picture_2.png,images/picture_1.png,0,"[11.733433509789464, 11.733433509789462]",11.733433509789464,11.733433509789462,images/picture_2.png,1,"[11.733433509789462, -11.733433509789466]",11.733433509789462,-11.733433509789464,images/picture_3.png,2,"[-11.733433509789466, -11.733433509789462]",-11.733433509789464,-11.733433509789462,0,1,1,0.5840119211669696,1.5840119211669696,1.4159880788330304,3.0,1,1.3340119211669696,0,4.0,3.0,1,2,8,0,8,0,0,8,8,5,,,,,,,642.8121829170004,642.8121829170004,643.8126425830005,644.1458738330011,644.3979387080008,644.3979387080008,644.3979387080008,645.8127816669994,645.8127816669994,645.8127816669994,645.8127816669994,646.9087124999996,200005,201,2023-04-11_14h36.57.016,DMS_et_12-36,2022.2.4,None,
,,,,,,,,,,,,,,,,,,,,,,,,,,,,,,,,,,,8,0,8,0,,,,,,,,,646.9087124999996,658.9337917500006,,,,,,,,,,,,,200005,201,2023-04-11_14h36.57.016,DMS_et_12-36,2022.2.4,None,
81,UNPRED,12,0.5840119211669696,1,images/picture_2.png,images/picture_1.png,0,"[-11.733433509789466, -11.733433509789462]",-11.733433509789464,-11.733433509789462,images/picture_2.png,1,"[11.733433509789464, 11.733433509789462]",11.733433509789464,11.733433509789462,images/picture_3.png,2,"[-11.733433509789462, 11.733433509789464]",-11.733433509789462,11.733433509789464,0,1,1,0.5840119211669696,1.5840119211669696,1.4159880788330304,3.0,1,1.3340119211669696,0,4.0,3.0,1,2,9,0,9,0,0,0,0,0,,,,,,,658.9337917500006,658.9337917500006,659.9460427919994,660.2792642920003,660.5125735829997,660.5125735829997,660.5125735829997,661.9325164169995,661.9325164169995,661.9325164169995,661.9325164169995,662.9454470829996,200005,201,2023-04-11_14h36.57.016,DMS_et_12-36,2022.2.4,None,
86,UNPRED,12,0.5840119211669696,1,images/picture_2.png,images/picture_1.png,0,"[11.733433509789462, -11.733433509789466]",11.733433509789462,-11.733433509789464,images/picture_2.png,1,"[-11.733433509789462, 11.733433509789464]",-11.733433509789462,11.733433509789464,images/picture_3.png,2,"[11.733433509789464, 11.733433509789462]",11.733433509789464,11.733433509789462,0,1,1,0.5840119211669696,1.5840119211669696,1.4159880788330304,3.0,1,1.3340119211669696,0,4.0,3.0,1,2,9,0,9,0,0,1,1,5,,,,,,,662.9454470829996,662.9454470829996,663.946057917,664.2793293330005,664.5316195000005,664.5316195000005,664.5316195000005,665.9460391250004,665.9460391250004,665.9460391250004,665.9460391250004,666.9455418330008,200005,201,2023-04-11_14h36.57.016,DMS_et_12-36,2022.2.4,None,
85,UNPRED,12,0.5840119211669696,0,images/picture_1.png,images/picture_1.png,0,"[-11.733433509789462, 11.733433509789464]",-11.733433509789462,11.733433509789464,images/picture_2.png,1,"[11.733433509789464, 11.733433509789462]",11.733433509789464,11.733433509789462,images/picture_3.png,2,"[-11.733433509789466, -11.733433509789462]",-11.733433509789464,-11.733433509789462,0,1,1,0.5840119211669696,1.5840119211669696,1.4159880788330304,3.0,1,1.3340119211669696,0,4.0,3.0,1,2,9,0,9,0,0,2,2,4,,,,,,,666.9455418330008,666.9455418330008,667.946046,668.2794771250001,668.532030542,668.532030542,668.532030542,669.946105375001,669.946105375001,669.946105375001,669.946105375001,670.945861833,200005,201,2023-04-11_14h36.57.016,DMS_et_12-36,2022.2.4,None,
83,UNPRED,12,0.5840119211669696,1,images/picture_2.png,images/picture_1.png,0,"[-11.733433509789462, 11.733433509789464]",-11.733433509789462,11.733433509789464,images/picture_2.png,1,"[11.733433509789462, -11.733433509789466]",11.733433509789462,-11.733433509789464,images/picture_3.png,2,"[11.733433509789464, 11.733433509789462]",11.733433509789464,11.733433509789462,0,1,1,0.5840119211669696,1.5840119211669696,1.4159880788330304,3.0,1,1.3340119211669696,0,4.0,3.0,1,2,9,0,9,0,0,3,3,2,,,,,,,670.945861833,670.945861833,671.9460370000006,672.2794764170003,672.5319531249997,672.5319531249997,672.5319531249997,673.9460672079995,673.9460672079995,673.9460672079995,673.9460672079995,674.9457835830008,200005,201,2023-04-11_14h36.57.016,DMS_et_12-36,2022.2.4,None,
82,UNPRED,12,0.5840119211669696,1,images/picture_2.png,images/picture_1.png,0,"[11.733433509789462, -11.733433509789466]",11.733433509789462,-11.733433509789464,images/picture_2.png,1,"[-11.733433509789462, 11.733433509789464]",-11.733433509789462,11.733433509789464,images/picture_3.png,2,"[11.733433509789464, 11.733433509789462]",11.733433509789464,11.733433509789462,0,1,1,0.5840119211669696,1.5840119211669696,1.4159880788330304,3.0,1,1.3340119211669696,0,4.0,3.0,1,2,9,0,9,0,0,4,4,1,,,,,,,674.9457835830008,674.9457835830008,675.9463114170003,676.2795196670004,676.5127886250002,676.5127886250002,676.5127886250002,677.9322810830008,677.9322810830008,677.9322810830008,677.9462440830002,678.964518875001,200005,201,2023-04-11_14h36.57.016,DMS_et_12-36,2022.2.4,None,
84,UNPRED,12,0.5840119211669696,2,images/picture_3.png,images/picture_1.png,0,"[11.733433509789462, -11.733433509789466]",11.733433509789462,-11.733433509789464,images/picture_2.png,1,"[-11.733433509789466, -11.733433509789462]",-11.733433509789464,-11.733433509789462,images/picture_3.png,2,"[-11.733433509789462, 11.733433509789464]",-11.733433509789462,11.733433509789464,0,1,1,0.5840119211669696,1.5840119211669696,1.4159880788330304,3.0,1,1.3340119211669696,0,4.0,3.0,1,2,9,0,9,0,0,5,5,3,,,,,,,678.964518875001,678.964518875001,679.9794828750009,680.3127982079995,680.5321613330007,680.5321613330007,680.5321613330007,681.9462675000004,681.9462675000004,681.9462675000004,681.9462675000004,682.9650204170002,200005,201,2023-04-11_14h36.57.016,DMS_et_12-36,2022.2.4,None,
89,UNPRED,12,0.5840119211669696,2,images/picture_3.png,images/picture_1.png,0,"[11.733433509789462, -11.733433509789466]",11.733433509789462,-11.733433509789464,images/picture_2.png,1,"[-11.733433509789462, 11.733433509789464]",-11.733433509789462,11.733433509789464,images/picture_3.png,2,"[-11.733433509789466, -11.733433509789462]",-11.733433509789464,-11.733433509789462,0,1,1,0.5840119211669696,1.5840119211669696,1.4159880788330304,3.0,1,1.3340119211669696,0,4.0,3.0,1,2,9,0,9,0,0,6,6,8,,,,,,,682.9650204170002,682.9650204170002,683.979492292,684.3128004170003,684.5315388749996,684.5315388749996,684.5315388749996,685.9457733749996,685.9457733749996,685.9457733749996,685.9457733749996,686.9649312499996,200005,201,2023-04-11_14h36.57.016,DMS_et_12-36,2022.2.4,None,
88,UNPRED,12,0.5840119211669696,2,images/picture_3.png,images/picture_1.png,0,"[-11.733433509789466, -11.733433509789462]",-11.733433509789464,-11.733433509789462,images/picture_2.png,1,"[11.733433509789462, -11.733433509789466]",11.733433509789462,-11.733433509789464,images/picture_3.png,2,"[11.733433509789464, 11.733433509789462]",11.733433509789464,11.733433509789462,0,1,1,0.5840119211669696,1.5840119211669696,1.4159880788330304,3.0,1,1.3340119211669696,0,4.0,3.0,1,2,9,0,9,0,0,7,7,7,,,,,,,686.9649312499996,686.9649312499996,687.9795042079995,688.3127830830008,688.5325093330002,688.5325093330002,688.5325093330002,689.9460369170001,689.9460369170001,689.9460369170001,689.9460369170001,690.9462101670006,200005,201,2023-04-11_14h36.57.016,DMS_et_12-36,2022.2.4,None,
87,UNPRED,12,0.5840119211669696,1,images/picture_2.png,images/picture_1.png,0,"[11.733433509789462, -11.733433509789466]",11.733433509789462,-11.733433509789464,images/picture_2.png,1,"[-11.733433509789466, -11.733433509789462]",-11.733433509789464,-11.733433509789462,images/picture_3.png,2,"[11.733433509789464, 11.733433509789462]",11.733433509789464,11.733433509789462,0,1,1,0.5840119211669696,1.5840119211669696,1.4159880788330304,3.0,1,1.3340119211669696,0,4.0,3.0,1,2,9,0,9,0,0,8,8,6,,,,,,,690.9462101670006,690.9462101670006,691.9460298750009,692.2794778329999,692.5320676670008,692.5320676670008,692.5320676670008,693.9461055830006,693.9461055830006,693.9461055830006,693.9461055830006,695.0491516669999,200005,201,2023-04-11_14h36.57.016,DMS_et_12-36,2022.2.4,None,
,,,,,,,,,,,,,,,,,,,,,,,,,,,,,,,,,,,9,0,9,0,,,,,,,,,695.0491516669999,707.0718917500008,,,,,,,,,,,,,200005,201,2023-04-11_14h36.57.016,DMS_et_12-36,2022.2.4,None,
91,PRED,12,0.5840119211669696,1,images/picture_2.png,images/picture_1.png,0,"[-11.733433509789466, -11.733433509789462]",-11.733433509789464,-11.733433509789462,images/picture_2.png,1,"[11.733433509789462, -11.733433509789466]",11.733433509789462,-11.733433509789464,images/picture_3.png,2,"[11.733433509789464, 11.733433509789462]",11.733433509789464,11.733433509789462,0,1,1,0.5840119211669696,1.5840119211669696,1.4159880788330304,3.0,1,1.3340119211669696,0,4.0,3.0,1,2,10,0,10,0,0,0,0,1,,,,,,,707.0718917500008,707.0718917500008,708.0795601250002,708.4127928330008,708.6460768749994,708.6460768749994,708.6460768749994,710.0653872080011,710.0653872080011,710.0653872080011,710.0653872080011,711.0792959170003,200005,201,2023-04-11_14h36.57.016,DMS_et_12-36,2022.2.4,None,
95,PRED,12,0.5840119211669696,1,images/picture_2.png,images/picture_1.png,0,"[-11.733433509789462, 11.733433509789464]",-11.733433509789462,11.733433509789464,images/picture_2.png,1,"[-11.733433509789466, -11.733433509789462]",-11.733433509789464,-11.733433509789462,images/picture_3.png,2,"[11.733433509789464, 11.733433509789462]",11.733433509789464,11.733433509789462,0,1,1,0.5840119211669696,1.5840119211669696,1.4159880788330304,3.0,1,1.3340119211669696,0,4.0,3.0,1,2,10,0,10,0,0,1,1,5,,,,,,,711.0792959170003,711.0792959170003,712.0795272919995,712.4127700830004,712.6661484170008,712.6661484170008,712.6661484170008,714.0795421249995,714.0795421249995,714.0795421249995,714.0795421249995,715.0790928750002,200005,201,2023-04-11_14h36.57.016,DMS_et_12-36,2022.2.4,None,
94,PRED,12,0.5840119211669696,1,images/picture_2.png,images/picture_1.png,0,"[-11.733433509789462, 11.733433509789464]",-11.733433509789462,11.733433509789464,images/picture_2.png,1,"[11.733433509789462, -11.733433509789466]",11.733433509789462,-11.733433509789464,images/picture_3.png,2,"[11.733433509789464, 11.733433509789462]",11.733433509789464,11.733433509789462,0,1,1,0.5840119211669696,1.5840119211669696,1.4159880788330304,3.0,1,1.3340119211669696,0,4.0,3.0,1,2,10,0,10,0,0,2,2,4,,,,,,,715.0790928750002,715.0790928750002,716.0792380419998,716.4124778329997,716.6650402080004,716.6650402080004,716.6650402080004,718.0795504999996,718.0795504999996,718.0795504999996,718.0795504999996,719.0789135000005,200005,201,2023-04-11_14h36.57.016,DMS_et_12-36,2022.2.4,None,
96,PRED,12,0.5840119211669696,1,images/picture_2.png,images/picture_1.png,0,"[-11.733433509789466, -11.733433509789462]",-11.733433509789464,-11.733433509789462,images/picture_2.png,1,"[-11.733433509789462, 11.733433509789464]",-11.733433509789462,11.733433509789464,images/picture_3.png,2,"[11.733433509789462, -11.733433509789466]",11.733433509789462,-11.733433509789464,0,1,1,0.5840119211669696,1.5840119211669696,1.4159880788330304,3.0,1,1.3340119211669696,0,4.0,3.0,1,2,10,0,10,0,0,3,3,6,,,,,,,719.0789135000005,719.0789135000005,720.0795289999996,720.412774708001,720.6654216670004,720.6654216670004,720.6654216670004,722.0795200000002,722.0795200000002,722.0795200000002,722.0795200000002,723.0789687080005,200005,201,2023-04-11_14h36.57.016,DMS_et_12-36,2022.2.4,None,
97,PRED,12,0.5840119211669696,1,images/picture_2.png,images/picture_1.png,0,"[11.733433509789464, 11.733433509789462]",11.733433509789464,11.733433509789462,images/picture_2.png,1,"[11.733433509789462, -11.733433509789466]",11.733433509789462,-11.733433509789464,images/picture_3.png,2,"[-11.733433509789466, -11.733433509789462]",-11.733433509789464,-11.733433509789462,0,1,1,0.5840119211669696,1.5840119211669696,1.4159880788330304,3.0,1,1.3340119211669696,0,4.0,3.0,1,2,10,0,10,0,0,4,4,7,,,,,,,723.0789687080005,723.0789687080005,724.0795042500004,724.4129770419995,724.6661090000007,724.6661090000007,724.6661090000007,726.0791469999995,726.0791469999995,726.0791469999995,726.0791469999995,727.0794379170011,200005,201,2023-04-11_14h36.57.016,DMS_et_12-36,2022.2.4,None,
93,PRED,12,0.5840119211669696,1,images/picture_2.png,images/picture_1.png,0,"[11.733433509789464, 11.733433509789462]",11.733433509789464,11.733433509789462,images/picture_2.png,1,"[-11.733433509789462, 11.733433509789464]",-11.733433509789462,11.733433509789464,images/picture_3.png,2,"[-11.733433509789466, -11.733433509789462]",-11.733433509789464,-11.733433509789462,0,1,1,0.5840119211669696,1.5840119211669696,1.4159880788330304,3.0,1,1.3340119211669696,0,4.0,3.0,1,2,10,0,10,0,0,5,5,3,,,,,,,727.0794379170011,727.0794379170011,728.0795355,728.4127480830002,728.6661415000008,728.6661415000008,728.6661415000008,730.0795365000004,730.0795365000004,730.0795365000004,730.0795365000004,731.0789750419999,200005,201,2023-04-11_14h36.57.016,DMS_et_12-36,2022.2.4,None,
98,PRED,12,0.5840119211669696,1,images/picture_2.png,images/picture_1.png,0,"[-11.733433509789466, -11.733433509789462]",-11.733433509789464,-11.733433509789462,images/picture_2.png,1,"[-11.733433509789462, 11.733433509789464]",-11.733433509789462,11.733433509789464,images/picture_3.png,2,"[11.733433509789464, 11.733433509789462]",11.733433509789464,11.733433509789462,0,1,1,0.5840119211669696,1.5840119211669696,1.4159880788330304,3.0,1,1.3340119211669696,0,4.0,3.0,1,2,10,0,10,0,0,6,6,8,,,,,,,731.0789750419999,731.0789750419999,732.0797054170007,732.4129909579997,732.6653025000005,732.6653025000005,732.6653025000005,734.0793803330007,734.0793803330007,734.0793803330007,734.0793803330007,735.0787563330005,200005,201,2023-04-11_14h36.57.016,DMS_et_12-36,2022.2.4,None,
90,PRED,12,0.5840119211669696,1,images/picture_2.png,images/picture_1.png,0,"[-11.733433509789462, 11.733433509789464]",-11.733433509789462,11.733433509789464,images/picture_2.png,1,"[11.733433509789464, 11.733433509789462]",11.733433509789464,11.733433509789462,images/picture_3.png,2,"[-11.733433509789466, -11.733433509789462]",-11.733433509789464,-11.733433509789462,0,1,1,0.5840119211669696,1.5840119211669696,1.4159880788330304,3.0,1,1.3340119211669696,0,4.0,3.0,1,2,10,0,10,0,0,7,7,0,,,,,,,735.0787563330005,735.0787563330005,736.0795220000009,736.4125273330001,736.6647512919999,736.6647512919999,736.6647512919999,738.0795296669994,738.0795296669994,738.0795296669994,738.0795296669994,739.0790658329997,200005,201,2023-04-11_14h36.57.016,DMS_et_12-36,2022.2.4,None,
92,PRED,12,0.5840119211669696,1,images/picture_2.png,images/picture_1.png,0,"[-11.733433509789462, 11.733433509789464]",-11.733433509789462,11.733433509789464,images/picture_2.png,1,"[11.733433509789464, 11.733433509789462]",11.733433509789464,11.733433509789462,images/picture_3.png,2,"[-11.733433509789466, -11.733433509789462]",-11.733433509789464,-11.733433509789462,0,1,1,0.5840119211669696,1.5840119211669696,1.4159880788330304,3.0,1,1.3340119211669696,0,4.0,3.0,1,2,10,0,10,0,0,8,8,2,,,,,,,739.0790658329997,739.0790658329997,740.0795105000007,740.4128197500004,740.6672755419995,740.6672755419995,740.6672755419995,742.0992140419994,742.0992140419994,742.0992140419994,742.0794282500001,743.2108607079999,200005,201,2023-04-11_14h36.57.016,DMS_et_12-36,2022.2.4,None,
,,,,,,,,,,,,,,,,,,,,,,,,,,,,,,,,,,,10,0,10,0,,,,,,,,,743.2108607079999,755.2405010829998,,,,,,,,,,,,,200005,201,2023-04-11_14h36.57.016,DMS_et_12-36,2022.2.4,None,
101,UNPRED,12,0.5840119211669696,0,images/picture_1.png,images/picture_1.png,0,"[11.733433509789462, -11.733433509789466]",11.733433509789462,-11.733433509789464,images/picture_2.png,1,"[11.733433509789464, 11.733433509789462]",11.733433509789464,11.733433509789462,images/picture_3.png,2,"[-11.733433509789466, -11.733433509789462]",-11.733433509789464,-11.733433509789462,0,1,1,0.5840119211669696,1.5840119211669696,1.4159880788330304,3.0,1,1.3340119211669696,0,4.0,3.0,1,2,11,0,11,0,0,0,0,2,,,,,,,755.2405010829998,755.2405010829998,756.246177375001,756.5795723330002,756.8126147080011,756.8126147080011,756.8126147080011,758.2325954170001,758.2325954170001,758.2325954170001,758.2462837080011,759.2457439580003,200005,201,2023-04-11_14h36.57.016,DMS_et_12-36,2022.2.4,None,
104,UNPRED,12,0.5840119211669696,0,images/picture_1.png,images/picture_1.png,0,"[-11.733433509789462, 11.733433509789464]",-11.733433509789462,11.733433509789464,images/picture_2.png,1,"[11.733433509789462, -11.733433509789466]",11.733433509789462,-11.733433509789464,images/picture_3.png,2,"[11.733433509789464, 11.733433509789462]",11.733433509789464,11.733433509789462,0,1,1,0.5840119211669696,1.5840119211669696,1.4159880788330304,3.0,1,1.3340119211669696,0,4.0,3.0,1,2,11,0,11,0,0,1,1,5,,,,,,,759.2457439580003,759.2457439580003,760.2462669170009,760.579752083001,760.8329237080006,760.8329237080006,760.8329237080006,762.2460418330002,762.2460418330002,762.2460418330002,762.2460418330002,763.2652775830002,200005,201,2023-04-11_14h36.57.016,DMS_et_12-36,2022.2.4,None,
107,UNPRED,12,0.5840119211669696,2,images/picture_3.png,images/picture_1.png,0,"[11.733433509789464, 11.733433509789462]",11.733433509789464,11.733433509789462,images/picture_2.png,1,"[-11.733433509789466, -11.733433509789462]",-11.733433509789464,-11.733433509789462,images/picture_3.png,2,"[11.733433509789462, -11.733433509789466]",11.733433509789462,-11.733433509789464,0,1,1,0.5840119211669696,1.5840119211669696,1.4159880788330304,3.0,1,1.3340119211669696,0,4.0,3.0,1,2,11,0,11,0,0,2,2,8,,,,,,,763.2652775830002,763.2652775830002,764.2796267080003,764.6130212079997,764.8323692500007,764.8323692500007,764.8323692500007,766.2463092080006,766.2463092080006,766.2463092080006,766.2463092080006,767.2463415419998,200005,201,2023-04-11_14h36.57.016,DMS_et_12-36,2022.2.4,None,
99,UNPRED,12,0.5840119211669696,0,images/picture_1.png,images/picture_1.png,0,"[-11.733433509789466, -11.733433509789462]",-11.733433509789464,-11.733433509789462,images/picture_2.png,1,"[11.733433509789464, 11.733433509789462]",11.733433509789464,11.733433509789462,images/picture_3.png,2,"[11.733433509789462, -11.733433509789466]",11.733433509789462,-11.733433509789464,0,1,1,0.5840119211669696,1.5840119211669696,1.4159880788330304,3.0,1,1.3340119211669696,0,4.0,3.0,1,2,11,0,11,0,0,3,3,0,,,,,,,767.2463415419998,767.2463415419998,768.2461100829996,768.579526292001,768.8323126670011,768.8323126670011,768.8323126670011,770.2460356250003,770.2460356250003,770.2460356250003,770.2460356250003,771.2457382920011,200005,201,2023-04-11_14h36.57.016,DMS_et_12-36,2022.2.4,None,
106,UNPRED,12,0.5840119211669696,1,images/picture_2.png,images/picture_1.png,0,"[11.733433509789462, -11.733433509789466]",11.733433509789462,-11.733433509789464,images/picture_2.png,1,"[11.733433509789464, 11.733433509789462]",11.733433509789464,11.733433509789462,images/picture_3.png,2,"[-11.733433509789466, -11.733433509789462]",-11.733433509789464,-11.733433509789462,0,1,1,0.5840119211669696,1.5840119211669696,1.4159880788330304,3.0,1,1.3340119211669696,0,4.0,3.0,1,2,11,0,11,0,0,4,4,7,,,,,,,771.2457382920011,771.2457382920011,772.2463081670003,772.5792625830009,772.832174917,772.832174917,772.832174917,774.2459903330009,774.2459903330009,774.2459903330009,774.2459903330009,775.2450232500005,200005,201,2023-04-11_14h36.57.016,DMS_et_12-36,2022.2.4,None,
100,UNPRED,12,0.5840119211669696,1,images/picture_2.png,images/picture_1.png,0,"[11.733433509789462, -11.733433509789466]",11.733433509789462,-11.733433509789464,images/picture_2.png,1,"[-11.733433509789462, 11.733433509789464]",-11.733433509789462,11.733433509789464,images/picture_3.png,2,"[-11.733433509789466, -11.733433509789462]",-11.733433509789464,-11.733433509789462,0,1,1,0.5840119211669696,1.5840119211669696,1.4159880788330304,3.0,1,1.3340119211669696,0,4.0,3.0,1,2,11,0,11,0,0,5,5,1,,,,,,,775.2450232500005,775.2450232500005,776.2460190419997,776.5794339169997,776.8321332919995,776.8321332919995,776.8321332919995,778.2457602919994,778.2457602919994,778.2457602919994,778.2457602919994,779.245430375001,200005,201,2023-04-11_14h36.57.016,DMS_et_12-36,2022.2.4,None,
103,UNPRED,12,0.5840119211669696,0,images/picture_1.png,images/picture_1.png,0,"[11.733433509789464, 11.733433509789462]",11.733433509789464,11.733433509789462,images/picture_2.png,1,"[-11.733433509789466, -11.733433509789462]",-11.733433509789464,-11.733433509789462,images/picture_3.png,2,"[11.733433509789462, -11.733433509789466]",11.733433509789462,-11.733433509789464,0,1,1,0.5840119211669696,1.5840119211669696,1.4159880788330304,3.0,1,1.3340119211669696,0,4.0,3.0,1,2,11,0,11,0,0,6,6,4,,,,,,,779.245430375001,779.245430375001,780.246022833001,780.579334250001,780.8320530829997,780.8320530829997,780.8320530829997,782.2460592920006,782.2460592920006,782.2460592920006,782.2460592920006,783.246115125,200005,201,2023-04-11_14h36.57.016,DMS_et_12-36,2022.2.4,None,
105,UNPRED,12,0.5840119211669696,1,images/picture_2.png,images/picture_1.png,0,"[-11.733433509789466, -11.733433509789462]",-11.733433509789464,-11.733433509789462,images/picture_2.png,1,"[11.733433509789464, 11.733433509789462]",11.733433509789464,11.733433509789462,images/picture_3.png,2,"[11.733433509789462, -11.733433509789466]",11.733433509789462,-11.733433509789464,0,1,1,0.5840119211669696,1.5840119211669696,1.4159880788330304,3.0,1,1.3340119211669696,0,4.0,3.0,1,2,11,0,11,0,0,7,7,6,,,,,,,783.246115125,783.246115125,784.2460460000011,784.579609292,784.8326608750003,784.8326608750003,784.8326608750003,786.246277917001,786.246277917001,786.246277917001,786.246277917001,787.2654093749998,200005,201,2023-04-11_14h36.57.016,DMS_et_12-36,2022.2.4,None,
102,UNPRED,12,0.5840119211669696,2,images/picture_3.png,images/picture_1.png,0,"[11.733433509789464, 11.733433509789462]",11.733433509789464,11.733433509789462,images/picture_2.png,1,"[11.733433509789462, -11.733433509789466]",11.733433509789462,-11.733433509789464,images/picture_3.png,2,"[-11.733433509789466, -11.733433509789462]",-11.733433509789464,-11.733433509789462,0,1,1,0.5840119211669696,1.5840119211669696,1.4159880788330304,3.0,1,1.3340119211669696,0,4.0,3.0,1,2,11,0,11,0,0,8,8,3,,,,,,,787.2654093749998,787.2654093749998,788.2792362499995,788.6124761250003,788.8327454170003,788.8327454170003,788.8327454170003,790.2460141250003,790.2460141250003,790.2460141250003,790.2460141250003,791.4166452079999,200005,201,2023-04-11_14h36.57.016,DMS_et_12-36,2022.2.4,None,
,,,,,,,,,,,,,,,,,,,,,,,,,,,,,,,,,,,11,0,11,0,,,,,,,,,791.4166452079999,803.5590298329998,,,,,,,,,,,,,200005,201,2023-04-11_14h36.57.016,DMS_et_12-36,2022.2.4,None,
,,,,,,,,,,,,,,,,,,,,,,,,,,,,,,,,,,,,,,,,,,,,,,,803.5590298329998,816.0875932080007,,,,,,,,,,,,,,,,,,,
