trial_count,blockType,blockNum,delay_time,stimImage_i,stimImage,responseImage1,responseImage1_i,responseImage1_pos,responseImage1_X,responseImage1_Y,responseImage2,responseImage2_i,responseImage2_pos,responseImage2_X,responseImage2_Y,responseImage3,responseImage3_i,responseImage3_pos,responseImage3_X,responseImage3_Y,cue_onset,cue_dur,delay_onset,delay_dur,resp_onset,resp_dur,rest_onset,rest_dur,circle_dur,circle_onset,total_dur,cross_onset,cross_dur,delay_resp_period,blocks.thisRepN,blocks.thisTrialN,blocks.thisN,blocks.thisIndex,trials.thisRepN,trials.thisTrialN,trials.thisN,trials.thisIndex,key_resp.started,text.started,key_resp.keys,key_resp.rt,text_2.started,text_2.stopped,sample.started,Delay.started,sample.stopped,Delay.stopped,Response_1.started,Response_2.started,Response_3.started,Response_1.stopped,Response_2.stopped,Response_3.stopped,polygon.started,polygon.stopped,participant,session,date,expName,psychopyVersion,frameRate,
,,,,,,,,,,,,,,,,,,,,,,,,,,,,,,,,,,,,,,,,,,,57.27543908300004,57.27543908300004,t,66.56105370799992,,,,,,,,,,,,,,,200007,004,2023-04-11_09h21.49.003,DMS_et_12-36,2022.2.4,None,
5,PRED,12,0.9308612642825864,2,images/picture_3.png,images/picture_1.png,0,"[-11.733433509789462, 11.733433509789464]",-11.733433509789462,11.733433509789464,images/picture_2.png,1,"[11.733433509789464, 11.733433509789462]",11.733433509789464,11.733433509789462,images/picture_3.png,2,"[11.733433509789462, -11.733433509789466]",11.733433509789462,-11.733433509789464,0,1,1,0.9308612642825864,1.9308612642825864,1.0691387357174134,3.0,1,1.6808612642825866,0,4.0,3.0,1,2,0,0,0,0,0,0,0,5,,,,,124.354539875,136.39837616700015,136.39837616700015,136.39837616700015,137.41365970800007,138.08040270800007,138.31372054200006,138.31372054200006,138.31372054200006,139.38041287500005,139.38041287500005,139.38041287500005,139.38041287500005,140.38063825000017,200007,004,2023-04-11_09h21.49.003,DMS_et_12-36,2022.2.4,None,
8,PRED,12,0.9308612642825864,2,images/picture_3.png,images/picture_1.png,0,"[11.733433509789462, -11.733433509789466]",11.733433509789462,-11.733433509789464,images/picture_2.png,1,"[11.733433509789464, 11.733433509789462]",11.733433509789464,11.733433509789462,images/picture_3.png,2,"[-11.733433509789462, 11.733433509789464]",-11.733433509789462,11.733433509789464,0,1,1,0.9308612642825864,1.9308612642825864,1.0691387357174134,3.0,1,1.6808612642825866,0,4.0,3.0,1,2,0,0,0,0,0,1,1,8,,,,,,,140.38063825000017,140.38063825000017,141.38007945800018,142.0664740000002,142.2997687080001,142.2997687080001,142.2997687080001,143.38038245799999,143.38038245799999,143.38038245799999,143.38038245799999,144.39968683300003,200007,004,2023-04-11_09h21.49.003,DMS_et_12-36,2022.2.4,None,
4,PRED,12,0.9308612642825864,2,images/picture_3.png,images/picture_1.png,0,"[11.733433509789464, 11.733433509789462]",11.733433509789464,11.733433509789462,images/picture_2.png,1,"[-11.733433509789466, -11.733433509789462]",-11.733433509789464,-11.733433509789462,images/picture_3.png,2,"[-11.733433509789462, 11.733433509789464]",-11.733433509789462,11.733433509789464,0,1,1,0.9308612642825864,1.9308612642825864,1.0691387357174134,3.0,1,1.6808612642825866,0,4.0,3.0,1,2,0,0,0,0,0,2,2,4,,,,,,,144.39968683300003,144.39968683300003,145.41367583300007,146.080443542,146.313612875,146.313612875,146.313612875,147.3803875420001,147.3803875420001,147.3803875420001,147.3803875420001,148.38056100000017,200007,004,2023-04-11_09h21.49.003,DMS_et_12-36,2022.2.4,None,
7,PRED,12,0.9308612642825864,2,images/picture_3.png,images/picture_1.png,0,"[11.733433509789464, 11.733433509789462]",11.733433509789464,11.733433509789462,images/picture_2.png,1,"[-11.733433509789466, -11.733433509789462]",-11.733433509789464,-11.733433509789462,images/picture_3.png,2,"[11.733433509789462, -11.733433509789466]",11.733433509789462,-11.733433509789464,0,1,1,0.9308612642825864,1.9308612642825864,1.0691387357174134,3.0,1,1.6808612642825866,0,4.0,3.0,1,2,0,0,0,0,0,3,3,7,,,,,,,148.38056100000017,148.38056100000017,149.380364417,150.0669868330001,150.2996572500001,150.2996572500001,150.2996572500001,151.38004808300002,151.38004808300002,151.38004808300002,151.38004808300002,152.3994287920002,200007,004,2023-04-11_09h21.49.003,DMS_et_12-36,2022.2.4,None,
0,PRED,12,0.9308612642825864,2,images/picture_3.png,images/picture_1.png,0,"[11.733433509789464, 11.733433509789462]",11.733433509789464,11.733433509789462,images/picture_2.png,1,"[11.733433509789462, -11.733433509789466]",11.733433509789462,-11.733433509789464,images/picture_3.png,2,"[-11.733433509789462, 11.733433509789464]",-11.733433509789462,11.733433509789464,0,1,1,0.9308612642825864,1.9308612642825864,1.0691387357174134,3.0,1,1.6808612642825866,0,4.0,3.0,1,2,0,0,0,0,0,4,4,0,,,,,,,152.3994287920002,152.3994287920002,153.4137688750002,154.0804280000002,154.31362870800012,154.31362870800012,154.31362870800012,155.38041762500006,155.38041762500006,155.38041762500006,155.38041762500006,156.3992440420002,200007,004,2023-04-11_09h21.49.003,DMS_et_12-36,2022.2.4,None,
1,PRED,12,0.9308612642825864,2,images/picture_3.png,images/picture_1.png,0,"[11.733433509789464, 11.733433509789462]",11.733433509789464,11.733433509789462,images/picture_2.png,1,"[-11.733433509789466, -11.733433509789462]",-11.733433509789464,-11.733433509789462,images/picture_3.png,2,"[11.733433509789462, -11.733433509789466]",11.733433509789462,-11.733433509789464,0,1,1,0.9308612642825864,1.9308612642825864,1.0691387357174134,3.0,1,1.6808612642825866,0,4.0,3.0,1,2,0,0,0,0,0,5,5,1,,,,,,,156.3992440420002,156.3992440420002,157.41363512500016,158.0803748750002,158.31366341700004,158.31366341700004,158.31366341700004,159.38036354200017,159.38036354200017,159.38036354200017,159.38036354200017,160.39890175000005,200007,004,2023-04-11_09h21.49.003,DMS_et_12-36,2022.2.4,None,
2,PRED,12,0.9308612642825864,2,images/picture_3.png,images/picture_1.png,0,"[11.733433509789464, 11.733433509789462]",11.733433509789464,11.733433509789462,images/picture_2.png,1,"[-11.733433509789462, 11.733433509789464]",-11.733433509789462,11.733433509789464,images/picture_3.png,2,"[11.733433509789462, -11.733433509789466]",11.733433509789462,-11.733433509789464,0,1,1,0.9308612642825864,1.9308612642825864,1.0691387357174134,3.0,1,1.6808612642825866,0,4.0,3.0,1,2,0,0,0,0,0,6,6,2,,,,,,,160.39890175000005,160.39890175000005,161.41350925000006,162.08018512500007,162.31368229200007,162.31368229200007,162.31368229200007,163.3803924580002,163.3803924580002,163.3803924580002,163.3803924580002,164.39964587500003,200007,004,2023-04-11_09h21.49.003,DMS_et_12-36,2022.2.4,None,
6,PRED,12,0.9308612642825864,2,images/picture_3.png,images/picture_1.png,0,"[-11.733433509789462, 11.733433509789464]",-11.733433509789462,11.733433509789464,images/picture_2.png,1,"[11.733433509789464, 11.733433509789462]",11.733433509789464,11.733433509789462,images/picture_3.png,2,"[11.733433509789462, -11.733433509789466]",11.733433509789462,-11.733433509789464,0,1,1,0.9308612642825864,1.9308612642825864,1.0691387357174134,3.0,1,1.6808612642825866,0,4.0,3.0,1,2,0,0,0,0,0,7,7,6,,,,,,,164.39964587500003,164.39964587500003,165.413660875,166.080385083,166.3136182080002,166.3136182080002,166.3136182080002,167.38033962500003,167.38033962500003,167.38033962500003,167.38033962500003,168.39912979200017,200007,004,2023-04-11_09h21.49.003,DMS_et_12-36,2022.2.4,None,
3,PRED,12,0.9308612642825864,2,images/picture_3.png,images/picture_1.png,0,"[11.733433509789464, 11.733433509789462]",11.733433509789464,11.733433509789462,images/picture_2.png,1,"[11.733433509789462, -11.733433509789466]",11.733433509789462,-11.733433509789464,images/picture_3.png,2,"[-11.733433509789466, -11.733433509789462]",-11.733433509789464,-11.733433509789462,0,1,1,0.9308612642825864,1.9308612642825864,1.0691387357174134,3.0,1,1.6808612642825866,0,4.0,3.0,1,2,0,0,0,0,0,8,8,3,,,,,,,168.39912979200017,168.39912979200017,169.41364229200008,170.0806600830001,170.31368095800008,170.31368095800008,170.31368095800008,171.3801170830002,171.3801170830002,171.3801170830002,171.3801170830002,172.40104179200011,200007,004,2023-04-11_09h21.49.003,DMS_et_12-36,2022.2.4,None,
,,,,,,,,,,,,,,,,,,,,,,,,,,,,,,,,,,,0,0,0,0,,,,,,,,,172.40104179200011,184.43297216700012,,,,,,,,,,,,,200007,004,2023-04-11_09h21.49.003,DMS_et_12-36,2022.2.4,None,
17,UNPRED,12,0.9308612642825864,0,images/picture_1.png,images/picture_1.png,0,"[-11.733433509789466, -11.733433509789462]",-11.733433509789464,-11.733433509789462,images/picture_2.png,1,"[11.733433509789464, 11.733433509789462]",11.733433509789464,11.733433509789462,images/picture_3.png,2,"[11.733433509789462, -11.733433509789466]",11.733433509789462,-11.733433509789464,0,1,1,0.9308612642825864,1.9308612642825864,1.0691387357174134,3.0,1,1.6808612642825866,0,4.0,3.0,1,2,1,0,1,0,0,0,0,8,,,,,,,184.43297216700012,184.43297216700012,185.44713550000006,186.11369112500006,186.34710766700005,186.34710766700005,186.34710766700005,187.4136702080002,187.4136702080002,187.4136702080002,187.43362812500004,188.4471930420002,200007,004,2023-04-11_09h21.49.003,DMS_et_12-36,2022.2.4,None,
16,UNPRED,12,0.9308612642825864,1,images/picture_2.png,images/picture_1.png,0,"[11.733433509789462, -11.733433509789466]",11.733433509789462,-11.733433509789464,images/picture_2.png,1,"[-11.733433509789466, -11.733433509789462]",-11.733433509789464,-11.733433509789462,images/picture_3.png,2,"[-11.733433509789462, 11.733433509789464]",-11.733433509789462,11.733433509789464,0,1,1,0.9308612642825864,1.9308612642825864,1.0691387357174134,3.0,1,1.6808612642825866,0,4.0,3.0,1,2,1,0,1,0,0,1,1,7,,,,,,,188.4471930420002,188.4471930420002,189.447184375,190.13291900000013,190.38038233300017,190.38038233300017,190.38038233300017,191.4471325830002,191.4471325830002,191.4471325830002,191.4471325830002,192.466784125,200007,004,2023-04-11_09h21.49.003,DMS_et_12-36,2022.2.4,None,
9,UNPRED,12,0.9308612642825864,2,images/picture_3.png,images/picture_1.png,0,"[-11.733433509789462, 11.733433509789464]",-11.733433509789462,11.733433509789464,images/picture_2.png,1,"[-11.733433509789466, -11.733433509789462]",-11.733433509789464,-11.733433509789462,images/picture_3.png,2,"[11.733433509789462, -11.733433509789466]",11.733433509789462,-11.733433509789464,0,1,1,0.9308612642825864,1.9308612642825864,1.0691387357174134,3.0,1,1.6808612642825866,0,4.0,3.0,1,2,1,0,1,0,0,2,2,0,,,,,,,192.466784125,192.466784125,193.48041012500016,194.14715554200006,194.36702604200013,194.36702604200013,194.36702604200013,195.44712629200012,195.44712629200012,195.44712629200012,195.44712629200012,196.44678491700006,200007,004,2023-04-11_09h21.49.003,DMS_et_12-36,2022.2.4,None,
14,UNPRED,12,0.9308612642825864,1,images/picture_2.png,images/picture_1.png,0,"[-11.733433509789462, 11.733433509789464]",-11.733433509789462,11.733433509789464,images/picture_2.png,1,"[11.733433509789464, 11.733433509789462]",11.733433509789464,11.733433509789462,images/picture_3.png,2,"[-11.733433509789466, -11.733433509789462]",-11.733433509789464,-11.733433509789462,0,1,1,0.9308612642825864,1.9308612642825864,1.0691387357174134,3.0,1,1.6808612642825866,0,4.0,3.0,1,2,1,0,1,0,0,3,3,5,,,,,,,196.44678491700006,196.44678491700006,197.44700754200016,198.13301875000002,198.3804570000002,198.3804570000002,198.3804570000002,199.44689733300015,199.44689733300015,199.44689733300015,199.44689733300015,200.46578854200015,200007,004,2023-04-11_09h21.49.003,DMS_et_12-36,2022.2.4,None,
10,UNPRED,12,0.9308612642825864,2,images/picture_3.png,images/picture_1.png,0,"[11.733433509789464, 11.733433509789462]",11.733433509789464,11.733433509789462,images/picture_2.png,1,"[-11.733433509789462, 11.733433509789464]",-11.733433509789462,11.733433509789464,images/picture_3.png,2,"[11.733433509789462, -11.733433509789466]",11.733433509789462,-11.733433509789464,0,1,1,0.9308612642825864,1.9308612642825864,1.0691387357174134,3.0,1,1.6808612642825866,0,4.0,3.0,1,2,1,0,1,0,0,4,4,1,,,,,,,200.46578854200015,200.46578854200015,201.48052733300005,202.14675891700017,202.38005350000003,202.38005350000003,202.38005350000003,203.44721004200005,203.44721004200005,203.44721004200005,203.44721004200005,204.46589462500015,200007,004,2023-04-11_09h21.49.003,DMS_et_12-36,2022.2.4,None,
11,UNPRED,12,0.9308612642825864,2,images/picture_3.png,images/picture_1.png,0,"[-11.733433509789462, 11.733433509789464]",-11.733433509789462,11.733433509789464,images/picture_2.png,1,"[-11.733433509789466, -11.733433509789462]",-11.733433509789464,-11.733433509789462,images/picture_3.png,2,"[11.733433509789464, 11.733433509789462]",11.733433509789464,11.733433509789462,0,1,1,0.9308612642825864,1.9308612642825864,1.0691387357174134,3.0,1,1.6808612642825866,0,4.0,3.0,1,2,1,0,1,0,0,5,5,2,,,,,,,204.46589462500015,204.46589462500015,205.4803987920002,206.14720725000006,206.380426833,206.380426833,206.380426833,207.44709125000008,207.44709125000008,207.44709125000008,207.44709125000008,208.44673579200003,200007,004,2023-04-11_09h21.49.003,DMS_et_12-36,2022.2.4,None,
12,UNPRED,12,0.9308612642825864,1,images/picture_2.png,images/picture_1.png,0,"[-11.733433509789466, -11.733433509789462]",-11.733433509789464,-11.733433509789462,images/picture_2.png,1,"[11.733433509789464, 11.733433509789462]",11.733433509789464,11.733433509789462,images/picture_3.png,2,"[-11.733433509789462, 11.733433509789464]",-11.733433509789462,11.733433509789464,0,1,1,0.9308612642825864,1.9308612642825864,1.0691387357174134,3.0,1,1.6808612642825866,0,4.0,3.0,1,2,1,0,1,0,0,6,6,3,,,,,,,208.44673579200003,208.44673579200003,209.4471009580002,210.13316995800005,210.38041054200016,210.38041054200016,210.38041054200016,211.44711166700017,211.44711166700017,211.44711166700017,211.44711166700017,212.4467037080001,200007,004,2023-04-11_09h21.49.003,DMS_et_12-36,2022.2.4,None,
15,UNPRED,12,0.9308612642825864,1,images/picture_2.png,images/picture_1.png,0,"[11.733433509789464, 11.733433509789462]",11.733433509789464,11.733433509789462,images/picture_2.png,1,"[-11.733433509789462, 11.733433509789464]",-11.733433509789462,11.733433509789464,images/picture_3.png,2,"[-11.733433509789466, -11.733433509789462]",-11.733433509789464,-11.733433509789462,0,1,1,0.9308612642825864,1.9308612642825864,1.0691387357174134,3.0,1,1.6808612642825866,0,4.0,3.0,1,2,1,0,1,0,0,7,7,6,,,,,,,212.4467037080001,212.4467037080001,213.4471535,214.1329685830001,214.36704287500015,214.36704287500015,214.36704287500015,215.44712808300005,215.44712808300005,215.44712808300005,215.44712808300005,216.446510708,200007,004,2023-04-11_09h21.49.003,DMS_et_12-36,2022.2.4,None,
13,UNPRED,12,0.9308612642825864,0,images/picture_1.png,images/picture_1.png,0,"[-11.733433509789462, 11.733433509789464]",-11.733433509789462,11.733433509789464,images/picture_2.png,1,"[11.733433509789464, 11.733433509789462]",11.733433509789464,11.733433509789462,images/picture_3.png,2,"[-11.733433509789466, -11.733433509789462]",-11.733433509789464,-11.733433509789462,0,1,1,0.9308612642825864,1.9308612642825864,1.0691387357174134,3.0,1,1.6808612642825866,0,4.0,3.0,1,2,1,0,1,0,0,8,8,4,,,,,,,216.446510708,216.446510708,217.44711291700014,218.13367170800007,218.3804106250002,218.3804106250002,218.3804106250002,219.44721804200003,219.44721804200003,219.44721804200003,219.44721804200003,220.4798384170001,200007,004,2023-04-11_09h21.49.003,DMS_et_12-36,2022.2.4,None,
,,,,,,,,,,,,,,,,,,,,,,,,,,,,,,,,,,,1,0,1,0,,,,,,,,,220.4798384170001,232.5072730830002,,,,,,,,,,,,,200007,004,2023-04-11_09h21.49.003,DMS_et_12-36,2022.2.4,None,
18,PRED,12,0.9308612642825864,2,images/picture_3.png,images/picture_1.png,0,"[11.733433509789462, -11.733433509789466]",11.733433509789462,-11.733433509789464,images/picture_2.png,1,"[11.733433509789464, 11.733433509789462]",11.733433509789464,11.733433509789462,images/picture_3.png,2,"[-11.733433509789466, -11.733433509789462]",-11.733433509789464,-11.733433509789462,0,1,1,0.9308612642825864,1.9308612642825864,1.0691387357174134,3.0,1,1.6808612642825866,0,4.0,3.0,1,2,2,0,2,0,0,0,0,0,,,,,,,232.5072730830002,232.5072730830002,233.513536917,234.1998160830001,234.43319266700018,234.43319266700018,234.43319266700018,235.51397758300004,235.51397758300004,235.51397758300004,235.50012058300013,236.53315416700002,200007,004,2023-04-11_09h21.49.003,DMS_et_12-36,2022.2.4,None,
26,PRED,12,0.9308612642825864,2,images/picture_3.png,images/picture_1.png,0,"[11.733433509789464, 11.733433509789462]",11.733433509789464,11.733433509789462,images/picture_2.png,1,"[-11.733433509789466, -11.733433509789462]",-11.733433509789464,-11.733433509789462,images/picture_3.png,2,"[11.733433509789462, -11.733433509789466]",11.733433509789462,-11.733433509789464,0,1,1,0.9308612642825864,1.9308612642825864,1.0691387357174134,3.0,1,1.6808612642825866,0,4.0,3.0,1,2,2,0,2,0,0,1,1,8,,,,,,,236.53315416700002,236.53315416700002,237.54716362500017,238.2138943750001,238.44711229200016,238.44711229200016,238.44711229200016,239.5138568330001,239.5138568330001,239.5138568330001,239.5138568330001,240.53238920800004,200007,004,2023-04-11_09h21.49.003,DMS_et_12-36,2022.2.4,None,
25,PRED,12,0.9308612642825864,2,images/picture_3.png,images/picture_1.png,0,"[11.733433509789462, -11.733433509789466]",11.733433509789462,-11.733433509789464,images/picture_2.png,1,"[11.733433509789464, 11.733433509789462]",11.733433509789464,11.733433509789462,images/picture_3.png,2,"[-11.733433509789466, -11.733433509789462]",-11.733433509789464,-11.733433509789462,0,1,1,0.9308612642825864,1.9308612642825864,1.0691387357174134,3.0,1,1.6808612642825866,0,4.0,3.0,1,2,2,0,2,0,0,2,2,7,,,,,,,240.53238920800004,240.53238920800004,241.54710645800014,242.21386762500015,242.44715987500012,242.44715987500012,242.44715987500012,243.51351354200006,243.51351354200006,243.51351354200006,243.51351354200006,244.53246591700008,200007,004,2023-04-11_09h21.49.003,DMS_et_12-36,2022.2.4,None,
22,PRED,12,0.9308612642825864,2,images/picture_3.png,images/picture_1.png,0,"[-11.733433509789466, -11.733433509789462]",-11.733433509789464,-11.733433509789462,images/picture_2.png,1,"[11.733433509789462, -11.733433509789466]",11.733433509789462,-11.733433509789464,images/picture_3.png,2,"[-11.733433509789462, 11.733433509789464]",-11.733433509789462,11.733433509789464,0,1,1,0.9308612642825864,1.9308612642825864,1.0691387357174134,3.0,1,1.6808612642825866,0,4.0,3.0,1,2,2,0,2,0,0,3,3,4,,,,,,,244.53246591700008,244.53246591700008,245.54714400000012,246.21391158300003,246.44721325,246.44721325,246.44721325,247.51385800000003,247.51385800000003,247.51385800000003,247.51385800000003,248.53239604200007,200007,004,2023-04-11_09h21.49.003,DMS_et_12-36,2022.2.4,None,
24,PRED,12,0.9308612642825864,2,images/picture_3.png,images/picture_1.png,0,"[-11.733433509789462, 11.733433509789464]",-11.733433509789462,11.733433509789464,images/picture_2.png,1,"[-11.733433509789466, -11.733433509789462]",-11.733433509789464,-11.733433509789462,images/picture_3.png,2,"[11.733433509789464, 11.733433509789462]",11.733433509789464,11.733433509789462,0,1,1,0.9308612642825864,1.9308612642825864,1.0691387357174134,3.0,1,1.6808612642825866,0,4.0,3.0,1,2,2,0,2,0,0,4,4,6,,,,,,,248.53239604200007,248.53239604200007,249.54716875000008,250.21387466700003,250.44716295800004,250.44716295800004,250.44716295800004,251.51388600000018,251.51388600000018,251.51388600000018,251.51388600000018,252.53259245800018,200007,004,2023-04-11_09h21.49.003,DMS_et_12-36,2022.2.4,None,
21,PRED,12,0.9308612642825864,2,images/picture_3.png,images/picture_1.png,0,"[11.733433509789464, 11.733433509789462]",11.733433509789464,11.733433509789462,images/picture_2.png,1,"[-11.733433509789466, -11.733433509789462]",-11.733433509789464,-11.733433509789462,images/picture_3.png,2,"[-11.733433509789462, 11.733433509789464]",-11.733433509789462,11.733433509789464,0,1,1,0.9308612642825864,1.9308612642825864,1.0691387357174134,3.0,1,1.6808612642825866,0,4.0,3.0,1,2,2,0,2,0,0,5,5,3,,,,,,,252.53259245800018,252.53259245800018,253.54683991700017,254.21349525000005,254.4472044170002,254.4472044170002,254.4472044170002,255.5139048330002,255.5139048330002,255.5139048330002,255.5139048330002,256.53287891700006,200007,004,2023-04-11_09h21.49.003,DMS_et_12-36,2022.2.4,None,
20,PRED,12,0.9308612642825864,2,images/picture_3.png,images/picture_1.png,0,"[11.733433509789464, 11.733433509789462]",11.733433509789464,11.733433509789462,images/picture_2.png,1,"[11.733433509789462, -11.733433509789466]",11.733433509789462,-11.733433509789464,images/picture_3.png,2,"[-11.733433509789466, -11.733433509789462]",-11.733433509789464,-11.733433509789462,0,1,1,0.9308612642825864,1.9308612642825864,1.0691387357174134,3.0,1,1.6808612642825866,0,4.0,3.0,1,2,2,0,2,0,0,6,6,2,,,,,,,256.53287891700006,256.53287891700006,257.54715554200016,258.2138838330002,258.4471539580002,258.4471539580002,258.4471539580002,259.51383575,259.51383575,259.51383575,259.51383575,260.5322855420002,200007,004,2023-04-11_09h21.49.003,DMS_et_12-36,2022.2.4,None,
19,PRED,12,0.9308612642825864,2,images/picture_3.png,images/picture_1.png,0,"[11.733433509789464, 11.733433509789462]",11.733433509789464,11.733433509789462,images/picture_2.png,1,"[11.733433509789462, -11.733433509789466]",11.733433509789462,-11.733433509789464,images/picture_3.png,2,"[-11.733433509789462, 11.733433509789464]",-11.733433509789462,11.733433509789464,0,1,1,0.9308612642825864,1.9308612642825864,1.0691387357174134,3.0,1,1.6808612642825866,0,4.0,3.0,1,2,2,0,2,0,0,7,7,1,,,,,,,260.5322855420002,260.5322855420002,261.5471332080001,262.21381120800015,262.447203167,262.447203167,262.447203167,263.5134817080002,263.5134817080002,263.5134817080002,263.5134817080002,264.514354208,200007,004,2023-04-11_09h21.49.003,DMS_et_12-36,2022.2.4,None,
23,PRED,12,0.9308612642825864,2,images/picture_3.png,images/picture_1.png,0,"[11.733433509789462, -11.733433509789466]",11.733433509789462,-11.733433509789464,images/picture_2.png,1,"[-11.733433509789462, 11.733433509789464]",-11.733433509789462,11.733433509789464,images/picture_3.png,2,"[11.733433509789464, 11.733433509789462]",11.733433509789464,11.733433509789462,0,1,1,0.9308612642825864,1.9308612642825864,1.0691387357174134,3.0,1,1.6808612642825866,0,4.0,3.0,1,2,2,0,2,0,0,8,8,5,,,,,,,264.514354208,264.514354208,265.5138757500001,266.199854792,266.43315762500015,266.43315762500015,266.43315762500015,267.51386704200013,267.51386704200013,267.51386704200013,267.51386704200013,268.55675758300004,200007,004,2023-04-11_09h21.49.003,DMS_et_12-36,2022.2.4,None,
,,,,,,,,,,,,,,,,,,,,,,,,,,,,,,,,,,,2,0,2,0,,,,,,,,,268.55675758300004,280.579746417,,,,,,,,,,,,,200007,004,2023-04-11_09h21.49.003,DMS_et_12-36,2022.2.4,None,
35,UNPRED,12,0.9308612642825864,1,images/picture_2.png,images/picture_1.png,0,"[11.733433509789462, -11.733433509789466]",11.733433509789462,-11.733433509789464,images/picture_2.png,1,"[-11.733433509789466, -11.733433509789462]",-11.733433509789464,-11.733433509789462,images/picture_3.png,2,"[-11.733433509789462, 11.733433509789464]",-11.733433509789462,11.733433509789464,0,1,1,0.9308612642825864,1.9308612642825864,1.0691387357174134,3.0,1,1.6808612642825866,0,4.0,3.0,1,2,3,0,3,0,0,0,0,8,,,,,,,280.579746417,280.579746417,281.5804258750002,282.26794804200017,282.51387750000004,282.51387750000004,282.51387750000004,283.5804716670002,283.5804716670002,283.5804716670002,283.5804716670002,284.5801711670001,200007,004,2023-04-11_09h21.49.003,DMS_et_12-36,2022.2.4,None,
32,UNPRED,12,0.9308612642825864,0,images/picture_1.png,images/picture_1.png,0,"[-11.733433509789462, 11.733433509789464]",-11.733433509789462,11.733433509789464,images/picture_2.png,1,"[11.733433509789462, -11.733433509789466]",11.733433509789462,-11.733433509789464,images/picture_3.png,2,"[11.733433509789464, 11.733433509789462]",11.733433509789464,11.733433509789462,0,1,1,0.9308612642825864,1.9308612642825864,1.0691387357174134,3.0,1,1.6808612642825866,0,4.0,3.0,1,2,3,0,3,0,0,1,1,5,,,,,,,284.5801711670001,284.5801711670001,285.58063000000016,286.2663231670001,286.4997775420002,286.4997775420002,286.4997775420002,287.58065391700006,287.58065391700006,287.58065391700006,287.58065391700006,288.580211792,200007,004,2023-04-11_09h21.49.003,DMS_et_12-36,2022.2.4,None,
30,UNPRED,12,0.9308612642825864,0,images/picture_1.png,images/picture_1.png,0,"[11.733433509789462, -11.733433509789466]",11.733433509789462,-11.733433509789464,images/picture_2.png,1,"[11.733433509789464, 11.733433509789462]",11.733433509789464,11.733433509789462,images/picture_3.png,2,"[-11.733433509789466, -11.733433509789462]",-11.733433509789464,-11.733433509789462,0,1,1,0.9308612642825864,1.9308612642825864,1.0691387357174134,3.0,1,1.6808612642825866,0,4.0,3.0,1,2,3,0,3,0,0,2,2,3,,,,,,,288.580211792,288.580211792,289.58040962500013,290.2667666250002,290.51387883300004,290.51387883300004,290.51387883300004,291.5804015000001,291.5804015000001,291.5804015000001,291.5804015000001,292.580499292,200007,004,2023-04-11_09h21.49.003,DMS_et_12-36,2022.2.4,None,
28,UNPRED,12,0.9308612642825864,1,images/picture_2.png,images/picture_1.png,0,"[11.733433509789462, -11.733433509789466]",11.733433509789462,-11.733433509789464,images/picture_2.png,1,"[-11.733433509789466, -11.733433509789462]",-11.733433509789464,-11.733433509789462,images/picture_3.png,2,"[-11.733433509789462, 11.733433509789464]",-11.733433509789462,11.733433509789464,0,1,1,0.9308612642825864,1.9308612642825864,1.0691387357174134,3.0,1,1.6808612642825866,0,4.0,3.0,1,2,3,0,3,0,0,3,3,1,,,,,,,292.580499292,292.580499292,293.5806170000001,294.266380583,294.5135455420002,294.5135455420002,294.5135455420002,295.58080362500004,295.58080362500004,295.58080362500004,295.58080362500004,296.5798563330002,200007,004,2023-04-11_09h21.49.003,DMS_et_12-36,2022.2.4,None,
34,UNPRED,12,0.9308612642825864,0,images/picture_1.png,images/picture_1.png,0,"[11.733433509789464, 11.733433509789462]",11.733433509789464,11.733433509789462,images/picture_2.png,1,"[-11.733433509789466, -11.733433509789462]",-11.733433509789464,-11.733433509789462,images/picture_3.png,2,"[-11.733433509789462, 11.733433509789464]",-11.733433509789462,11.733433509789464,0,1,1,0.9308612642825864,1.9308612642825864,1.0691387357174134,3.0,1,1.6808612642825866,0,4.0,3.0,1,2,3,0,3,0,0,4,4,7,,,,,,,296.5798563330002,296.5798563330002,297.5806496250002,298.26642837500003,298.5139236250002,298.5139236250002,298.5139236250002,299.5806331250001,299.5806331250001,299.5806331250001,299.5806331250001,300.5793607500002,200007,004,2023-04-11_09h21.49.003,DMS_et_12-36,2022.2.4,None,
27,UNPRED,12,0.9308612642825864,1,images/picture_2.png,images/picture_1.png,0,"[-11.733433509789466, -11.733433509789462]",-11.733433509789464,-11.733433509789462,images/picture_2.png,1,"[11.733433509789462, -11.733433509789466]",11.733433509789462,-11.733433509789464,images/picture_3.png,2,"[11.733433509789464, 11.733433509789462]",11.733433509789464,11.733433509789462,0,1,1,0.9308612642825864,1.9308612642825864,1.0691387357174134,3.0,1,1.6808612642825866,0,4.0,3.0,1,2,3,0,3,0,0,5,5,0,,,,,,,300.5793607500002,300.5793607500002,301.5806603750002,302.2671666250001,302.513846458,302.513846458,302.513846458,303.58050470800003,303.58050470800003,303.58050470800003,303.58050470800003,304.580178875,200007,004,2023-04-11_09h21.49.003,DMS_et_12-36,2022.2.4,None,
29,UNPRED,12,0.9308612642825864,0,images/picture_1.png,images/picture_1.png,0,"[-11.733433509789462, 11.733433509789464]",-11.733433509789462,11.733433509789464,images/picture_2.png,1,"[-11.733433509789466, -11.733433509789462]",-11.733433509789464,-11.733433509789462,images/picture_3.png,2,"[11.733433509789462, -11.733433509789466]",11.733433509789462,-11.733433509789464,0,1,1,0.9308612642825864,1.9308612642825864,1.0691387357174134,3.0,1,1.6808612642825866,0,4.0,3.0,1,2,3,0,3,0,0,6,6,2,,,,,,,304.580178875,304.580178875,305.5802523750001,306.26671283300016,306.5003468330001,306.5003468330001,306.5003468330001,307.5806146250002,307.5806146250002,307.5806146250002,307.5806146250002,308.57997116700017,200007,004,2023-04-11_09h21.49.003,DMS_et_12-36,2022.2.4,None,
33,UNPRED,12,0.9308612642825864,0,images/picture_1.png,images/picture_1.png,0,"[-11.733433509789466, -11.733433509789462]",-11.733433509789464,-11.733433509789462,images/picture_2.png,1,"[11.733433509789462, -11.733433509789466]",11.733433509789462,-11.733433509789464,images/picture_3.png,2,"[11.733433509789464, 11.733433509789462]",11.733433509789464,11.733433509789462,0,1,1,0.9308612642825864,1.9308612642825864,1.0691387357174134,3.0,1,1.6808612642825866,0,4.0,3.0,1,2,3,0,3,0,0,7,7,6,,,,,,,308.57997116700017,308.57997116700017,309.58057733300006,310.266838667,310.51386037500015,310.51386037500015,310.51386037500015,311.5806163750001,311.5806163750001,311.5806163750001,311.5806163750001,312.5803870420002,200007,004,2023-04-11_09h21.49.003,DMS_et_12-36,2022.2.4,None,
31,UNPRED,12,0.9308612642825864,1,images/picture_2.png,images/picture_1.png,0,"[-11.733433509789466, -11.733433509789462]",-11.733433509789464,-11.733433509789462,images/picture_2.png,1,"[11.733433509789462, -11.733433509789466]",11.733433509789462,-11.733433509789464,images/picture_3.png,2,"[-11.733433509789462, 11.733433509789464]",-11.733433509789462,11.733433509789464,0,1,1,0.9308612642825864,1.9308612642825864,1.0691387357174134,3.0,1,1.6808612642825866,0,4.0,3.0,1,2,3,0,3,0,0,8,8,4,,,,,,,312.5803870420002,312.5803870420002,313.58060845800014,314.2664975,314.5138863330001,314.5138863330001,314.5138863330001,315.58030287500014,315.58030287500014,315.58030287500014,315.58030287500014,316.635175292,200007,004,2023-04-11_09h21.49.003,DMS_et_12-36,2022.2.4,None,
,,,,,,,,,,,,,,,,,,,,,,,,,,,,,,,,,,,3,0,3,0,,,,,,,,,316.635175292,328.6655948750001,,,,,,,,,,,,,200007,004,2023-04-11_09h21.49.003,DMS_et_12-36,2022.2.4,None,
39,PRED,12,0.9308612642825864,1,images/picture_2.png,images/picture_1.png,0,"[11.733433509789464, 11.733433509789462]",11.733433509789464,11.733433509789462,images/picture_2.png,1,"[-11.733433509789462, 11.733433509789464]",-11.733433509789462,11.733433509789464,images/picture_3.png,2,"[11.733433509789462, -11.733433509789466]",11.733433509789462,-11.733433509789464,0,1,1,0.9308612642825864,1.9308612642825864,1.0691387357174134,3.0,1,1.6808612642825866,0,4.0,3.0,1,2,4,0,4,0,0,0,0,3,,,,,,,328.6655948750001,328.6655948750001,329.680623167,330.34734037500016,330.5999576250001,330.5999576250001,330.5999576250001,331.68061550000016,331.68061550000016,331.68061550000016,331.6670207500001,332.6804342080002,200007,004,2023-04-11_09h21.49.003,DMS_et_12-36,2022.2.4,None,
37,PRED,12,0.9308612642825864,1,images/picture_2.png,images/picture_1.png,0,"[-11.733433509789466, -11.733433509789462]",-11.733433509789464,-11.733433509789462,images/picture_2.png,1,"[11.733433509789462, -11.733433509789466]",11.733433509789462,-11.733433509789464,images/picture_3.png,2,"[11.733433509789464, 11.733433509789462]",11.733433509789464,11.733433509789462,0,1,1,0.9308612642825864,1.9308612642825864,1.0691387357174134,3.0,1,1.6808612642825866,0,4.0,3.0,1,2,4,0,4,0,0,1,1,1,,,,,,,332.6804342080002,332.6804342080002,333.6806482920001,334.3669002920001,334.61392083300007,334.61392083300007,334.61392083300007,335.6802508330002,335.6802508330002,335.6802508330002,335.6802508330002,336.6807755000002,200007,004,2023-04-11_09h21.49.003,DMS_et_12-36,2022.2.4,None,
40,PRED,12,0.9308612642825864,1,images/picture_2.png,images/picture_1.png,0,"[-11.733433509789462, 11.733433509789464]",-11.733433509789462,11.733433509789464,images/picture_2.png,1,"[11.733433509789464, 11.733433509789462]",11.733433509789464,11.733433509789462,images/picture_3.png,2,"[-11.733433509789466, -11.733433509789462]",-11.733433509789464,-11.733433509789462,0,1,1,0.9308612642825864,1.9308612642825864,1.0691387357174134,3.0,1,1.6808612642825866,0,4.0,3.0,1,2,4,0,4,0,0,2,2,4,,,,,,,336.6807755000002,336.6807755000002,337.68064500000014,338.3670577920002,338.6138900830001,338.6138900830001,338.6138900830001,339.680793083,339.680793083,339.680793083,339.680793083,340.6799711670001,200007,004,2023-04-11_09h21.49.003,DMS_et_12-36,2022.2.4,None,
43,PRED,12,0.9308612642825864,1,images/picture_2.png,images/picture_1.png,0,"[11.733433509789464, 11.733433509789462]",11.733433509789464,11.733433509789462,images/picture_2.png,1,"[-11.733433509789462, 11.733433509789464]",-11.733433509789462,11.733433509789464,images/picture_3.png,2,"[-11.733433509789466, -11.733433509789462]",-11.733433509789464,-11.733433509789462,0,1,1,0.9308612642825864,1.9308612642825864,1.0691387357174134,3.0,1,1.6808612642825866,0,4.0,3.0,1,2,4,0,4,0,0,3,3,7,,,,,,,340.6799711670001,340.6799711670001,341.6806176670002,342.3668206670002,342.613887042,342.613887042,342.613887042,343.68059204200017,343.68059204200017,343.68059204200017,343.68059204200017,344.6801485000001,200007,004,2023-04-11_09h21.49.003,DMS_et_12-36,2022.2.4,None,
36,PRED,12,0.9308612642825864,1,images/picture_2.png,images/picture_1.png,0,"[11.733433509789462, -11.733433509789466]",11.733433509789462,-11.733433509789464,images/picture_2.png,1,"[-11.733433509789462, 11.733433509789464]",-11.733433509789462,11.733433509789464,images/picture_3.png,2,"[11.733433509789464, 11.733433509789462]",11.733433509789464,11.733433509789462,0,1,1,0.9308612642825864,1.9308612642825864,1.0691387357174134,3.0,1,1.6808612642825866,0,4.0,3.0,1,2,4,0,4,0,0,4,4,0,,,,,,,344.6801485000001,344.6801485000001,345.680325542,346.3658015000001,346.61402045800014,346.61402045800014,346.61402045800014,347.6806461670001,347.6806461670001,347.6806461670001,347.6806461670001,348.6801290830001,200007,004,2023-04-11_09h21.49.003,DMS_et_12-36,2022.2.4,None,
42,PRED,12,0.9308612642825864,1,images/picture_2.png,images/picture_1.png,0,"[-11.733433509789466, -11.733433509789462]",-11.733433509789464,-11.733433509789462,images/picture_2.png,1,"[11.733433509789462, -11.733433509789466]",11.733433509789462,-11.733433509789464,images/picture_3.png,2,"[-11.733433509789462, 11.733433509789464]",-11.733433509789462,11.733433509789464,0,1,1,0.9308612642825864,1.9308612642825864,1.0691387357174134,3.0,1,1.6808612642825866,0,4.0,3.0,1,2,4,0,4,0,0,5,5,6,,,,,,,348.6801290830001,348.6801290830001,349.6805991250001,350.3666930830002,350.61393620800004,350.61393620800004,350.61393620800004,351.68065112500017,351.68065112500017,351.68065112500017,351.68065112500017,352.67986904200006,200007,004,2023-04-11_09h21.49.003,DMS_et_12-36,2022.2.4,None,
41,PRED,12,0.9308612642825864,1,images/picture_2.png,images/picture_1.png,0,"[11.733433509789462, -11.733433509789466]",11.733433509789462,-11.733433509789464,images/picture_2.png,1,"[-11.733433509789466, -11.733433509789462]",-11.733433509789464,-11.733433509789462,images/picture_3.png,2,"[-11.733433509789462, 11.733433509789464]",-11.733433509789462,11.733433509789464,0,1,1,0.9308612642825864,1.9308612642825864,1.0691387357174134,3.0,1,1.6808612642825866,0,4.0,3.0,1,2,4,0,4,0,0,6,6,5,,,,,,,352.67986904200006,352.67986904200006,353.68059300000004,354.3666895000001,354.61396945800016,354.61396945800016,354.61396945800016,355.680639208,355.680639208,355.680639208,355.680639208,356.68029012500006,200007,004,2023-04-11_09h21.49.003,DMS_et_12-36,2022.2.4,None,
38,PRED,12,0.9308612642825864,1,images/picture_2.png,images/picture_1.png,0,"[11.733433509789464, 11.733433509789462]",11.733433509789464,11.733433509789462,images/picture_2.png,1,"[-11.733433509789462, 11.733433509789464]",-11.733433509789462,11.733433509789464,images/picture_3.png,2,"[11.733433509789462, -11.733433509789466]",11.733433509789462,-11.733433509789464,0,1,1,0.9308612642825864,1.9308612642825864,1.0691387357174134,3.0,1,1.6808612642825866,0,4.0,3.0,1,2,4,0,4,0,0,7,7,2,,,,,,,356.68029012500006,356.68029012500006,357.68072066700006,358.36676720800006,358.60000333300013,358.60000333300013,358.60000333300013,359.680635833,359.680635833,359.680635833,359.680635833,360.680084417,200007,004,2023-04-11_09h21.49.003,DMS_et_12-36,2022.2.4,None,
44,PRED,12,0.9308612642825864,1,images/picture_2.png,images/picture_1.png,0,"[-11.733433509789462, 11.733433509789464]",-11.733433509789462,11.733433509789464,images/picture_2.png,1,"[-11.733433509789466, -11.733433509789462]",-11.733433509789464,-11.733433509789462,images/picture_3.png,2,"[11.733433509789464, 11.733433509789462]",11.733433509789464,11.733433509789462,0,1,1,0.9308612642825864,1.9308612642825864,1.0691387357174134,3.0,1,1.6808612642825866,0,4.0,3.0,1,2,4,0,4,0,0,8,8,8,,,,,,,360.680084417,360.680084417,361.6807080000001,362.3666611670001,362.61387779200004,362.61387779200004,362.61387779200004,363.6806125830001,363.6806125830001,363.6806125830001,363.6806125830001,364.7426411250001,200007,004,2023-04-11_09h21.49.003,DMS_et_12-36,2022.2.4,None,
,,,,,,,,,,,,,,,,,,,,,,,,,,,,,,,,,,,4,0,4,0,,,,,,,,,364.7426411250001,376.76559025000006,,,,,,,,,,,,,200007,004,2023-04-11_09h21.49.003,DMS_et_12-36,2022.2.4,None,
50,UNPRED,12,0.9308612642825864,0,images/picture_1.png,images/picture_1.png,0,"[11.733433509789462, -11.733433509789466]",11.733433509789462,-11.733433509789464,images/picture_2.png,1,"[11.733433509789464, 11.733433509789462]",11.733433509789464,11.733433509789462,images/picture_3.png,2,"[-11.733433509789466, -11.733433509789462]",-11.733433509789464,-11.733433509789462,0,1,1,0.9308612642825864,1.9308612642825864,1.0691387357174134,3.0,1,1.6808612642825866,0,4.0,3.0,1,2,5,0,5,0,0,0,0,5,,,,,,,376.76559025000006,376.76559025000006,377.7806561670002,378.44735441700004,378.6806368750001,378.6806368750001,378.6806368750001,379.7472922500001,379.7472922500001,379.7472922500001,379.7472922500001,380.74684179200017,200007,004,2023-04-11_09h21.49.003,DMS_et_12-36,2022.2.4,None,
53,UNPRED,12,0.9308612642825864,0,images/picture_1.png,images/picture_1.png,0,"[11.733433509789464, 11.733433509789462]",11.733433509789464,11.733433509789462,images/picture_2.png,1,"[-11.733433509789462, 11.733433509789464]",-11.733433509789462,11.733433509789464,images/picture_3.png,2,"[-11.733433509789466, -11.733433509789462]",-11.733433509789464,-11.733433509789462,0,1,1,0.9308612642825864,1.9308612642825864,1.0691387357174134,3.0,1,1.6808612642825866,0,4.0,3.0,1,2,5,0,5,0,0,1,1,8,,,,,,,380.74684179200017,380.74684179200017,381.74719833300014,382.4331768750001,382.68067220800003,382.68067220800003,382.68067220800003,383.7473943750001,383.7473943750001,383.7473943750001,383.7473943750001,384.767022667,200007,004,2023-04-11_09h21.49.003,DMS_et_12-36,2022.2.4,None,
45,UNPRED,12,0.9308612642825864,2,images/picture_3.png,images/picture_1.png,0,"[-11.733433509789462, 11.733433509789464]",-11.733433509789462,11.733433509789464,images/picture_2.png,1,"[-11.733433509789466, -11.733433509789462]",-11.733433509789464,-11.733433509789462,images/picture_3.png,2,"[11.733433509789464, 11.733433509789462]",11.733433509789464,11.733433509789462,0,1,1,0.9308612642825864,1.9308612642825864,1.0691387357174134,3.0,1,1.6808612642825866,0,4.0,3.0,1,2,5,0,5,0,0,2,2,0,,,,,,,384.767022667,384.767022667,385.78073795800015,386.4473432080001,386.6804228750002,386.6804228750002,386.6804228750002,387.7471096250001,387.7471096250001,387.7471096250001,387.7471096250001,388.7475414580001,200007,004,2023-04-11_09h21.49.003,DMS_et_12-36,2022.2.4,None,
51,UNPRED,12,0.9308612642825864,1,images/picture_2.png,images/picture_1.png,0,"[-11.733433509789462, 11.733433509789464]",-11.733433509789462,11.733433509789464,images/picture_2.png,1,"[-11.733433509789466, -11.733433509789462]",-11.733433509789464,-11.733433509789462,images/picture_3.png,2,"[11.733433509789464, 11.733433509789462]",11.733433509789464,11.733433509789462,0,1,1,0.9308612642825864,1.9308612642825864,1.0691387357174134,3.0,1,1.6808612642825866,0,4.0,3.0,1,2,5,0,5,0,0,3,3,6,,,,,,,388.7475414580001,388.7475414580001,389.74740529200017,390.4336826670001,390.680633875,390.680633875,390.680633875,391.74738479200005,391.74738479200005,391.74738479200005,391.74738479200005,392.7466481250001,200007,004,2023-04-11_09h21.49.003,DMS_et_12-36,2022.2.4,None,
47,UNPRED,12,0.9308612642825864,0,images/picture_1.png,images/picture_1.png,0,"[11.733433509789464, 11.733433509789462]",11.733433509789464,11.733433509789462,images/picture_2.png,1,"[11.733433509789462, -11.733433509789466]",11.733433509789462,-11.733433509789464,images/picture_3.png,2,"[-11.733433509789466, -11.733433509789462]",-11.733433509789464,-11.733433509789462,0,1,1,0.9308612642825864,1.9308612642825864,1.0691387357174134,3.0,1,1.6808612642825866,0,4.0,3.0,1,2,5,0,5,0,0,4,4,2,,,,,,,392.7466481250001,392.7466481250001,393.74733408300017,394.433245167,394.6806128750002,394.6806128750002,394.6806128750002,395.74735454200004,395.74735454200004,395.74735454200004,395.74735454200004,396.74721720800017,200007,004,2023-04-11_09h21.49.003,DMS_et_12-36,2022.2.4,None,
52,UNPRED,12,0.9308612642825864,0,images/picture_1.png,images/picture_1.png,0,"[-11.733433509789462, 11.733433509789464]",-11.733433509789462,11.733433509789464,images/picture_2.png,1,"[-11.733433509789466, -11.733433509789462]",-11.733433509789464,-11.733433509789462,images/picture_3.png,2,"[11.733433509789462, -11.733433509789466]",11.733433509789462,-11.733433509789464,0,1,1,0.9308612642825864,1.9308612642825864,1.0691387357174134,3.0,1,1.6808612642825866,0,4.0,3.0,1,2,5,0,5,0,0,5,5,7,,,,,,,396.74721720800017,396.74721720800017,397.747044083,398.4332698750002,398.6806116250002,398.6806116250002,398.6806116250002,399.74714300000005,399.74714300000005,399.74714300000005,399.74714300000005,400.746725833,200007,004,2023-04-11_09h21.49.003,DMS_et_12-36,2022.2.4,None,
49,UNPRED,12,0.9308612642825864,0,images/picture_1.png,images/picture_1.png,0,"[11.733433509789464, 11.733433509789462]",11.733433509789464,11.733433509789462,images/picture_2.png,1,"[-11.733433509789462, 11.733433509789464]",-11.733433509789462,11.733433509789464,images/picture_3.png,2,"[-11.733433509789466, -11.733433509789462]",-11.733433509789464,-11.733433509789462,0,1,1,0.9308612642825864,1.9308612642825864,1.0691387357174134,3.0,1,1.6808612642825866,0,4.0,3.0,1,2,5,0,5,0,0,6,6,4,,,,,,,400.746725833,400.746725833,401.7474392920001,402.4334562920001,402.6806610000001,402.6806610000001,402.6806610000001,403.7473858330002,403.7473858330002,403.7473858330002,403.7473858330002,404.7469456670001,200007,004,2023-04-11_09h21.49.003,DMS_et_12-36,2022.2.4,None,
48,UNPRED,12,0.9308612642825864,1,images/picture_2.png,images/picture_1.png,0,"[-11.733433509789462, 11.733433509789464]",-11.733433509789462,11.733433509789464,images/picture_2.png,1,"[-11.733433509789466, -11.733433509789462]",-11.733433509789464,-11.733433509789462,images/picture_3.png,2,"[11.733433509789464, 11.733433509789462]",11.733433509789464,11.733433509789462,0,1,1,0.9308612642825864,1.9308612642825864,1.0691387357174134,3.0,1,1.6808612642825866,0,4.0,3.0,1,2,5,0,5,0,0,7,7,3,,,,,,,404.7469456670001,404.7469456670001,405.747400167,406.4338787920001,406.68064170800017,406.68064170800017,406.68064170800017,407.7470262920001,407.7470262920001,407.7470262920001,407.7470262920001,408.7663788750001,200007,004,2023-04-11_09h21.49.003,DMS_et_12-36,2022.2.4,None,
46,UNPRED,12,0.9308612642825864,2,images/picture_3.png,images/picture_1.png,0,"[11.733433509789464, 11.733433509789462]",11.733433509789464,11.733433509789462,images/picture_2.png,1,"[11.733433509789462, -11.733433509789466]",11.733433509789462,-11.733433509789464,images/picture_3.png,2,"[-11.733433509789466, -11.733433509789462]",-11.733433509789464,-11.733433509789462,0,1,1,0.9308612642825864,1.9308612642825864,1.0691387357174134,3.0,1,1.6808612642825866,0,4.0,3.0,1,2,5,0,5,0,0,8,8,1,,,,,,,408.7663788750001,408.7663788750001,409.7807475000002,410.44738291700014,410.680710417,410.680710417,410.680710417,411.747437083,411.747437083,411.747437083,411.747437083,412.815353167,200007,004,2023-04-11_09h21.49.003,DMS_et_12-36,2022.2.4,None,
,,,,,,,,,,,,,,,,,,,,,,,,,,,,,,,,,,,5,0,5,0,,,,,,,,,412.815353167,424.8428657080001,,,,,,,,,,,,,200007,004,2023-04-11_09h21.49.003,DMS_et_12-36,2022.2.4,None,
59,PRED,12,0.9308612642825864,2,images/picture_3.png,images/picture_1.png,0,"[-11.733433509789462, 11.733433509789464]",-11.733433509789462,11.733433509789464,images/picture_2.png,1,"[11.733433509789462, -11.733433509789466]",11.733433509789462,-11.733433509789464,images/picture_3.png,2,"[-11.733433509789466, -11.733433509789462]",-11.733433509789464,-11.733433509789462,0,1,1,0.9308612642825864,1.9308612642825864,1.0691387357174134,3.0,1,1.6808612642825866,0,4.0,3.0,1,2,6,0,6,0,0,0,0,5,,,,,,,424.8428657080001,424.8428657080001,425.847384958,426.5332675000002,426.76725729200007,426.76725729200007,426.76725729200007,427.847136458,427.847136458,427.847136458,427.832638375,428.86618762500007,200007,004,2023-04-11_09h21.49.003,DMS_et_12-36,2022.2.4,None,
57,PRED,12,0.9308612642825864,2,images/picture_3.png,images/picture_1.png,0,"[11.733433509789462, -11.733433509789466]",11.733433509789462,-11.733433509789464,images/picture_2.png,1,"[11.733433509789464, 11.733433509789462]",11.733433509789464,11.733433509789462,images/picture_3.png,2,"[-11.733433509789462, 11.733433509789464]",-11.733433509789462,11.733433509789464,0,1,1,0.9308612642825864,1.9308612642825864,1.0691387357174134,3.0,1,1.6808612642825866,0,4.0,3.0,1,2,6,0,6,0,0,1,1,3,,,,,,,428.86618762500007,428.86618762500007,429.8806425,430.54743225000016,430.7806753750001,430.7806753750001,430.7806753750001,431.84737229200005,431.84737229200005,431.84737229200005,431.84737229200005,432.8658790000002,200007,004,2023-04-11_09h21.49.003,DMS_et_12-36,2022.2.4,None,
55,PRED,12,0.9308612642825864,2,images/picture_3.png,images/picture_1.png,0,"[-11.733433509789466, -11.733433509789462]",-11.733433509789464,-11.733433509789462,images/picture_2.png,1,"[11.733433509789464, 11.733433509789462]",11.733433509789464,11.733433509789462,images/picture_3.png,2,"[-11.733433509789462, 11.733433509789464]",-11.733433509789462,11.733433509789464,0,1,1,0.9308612642825864,1.9308612642825864,1.0691387357174134,3.0,1,1.6808612642825866,0,4.0,3.0,1,2,6,0,6,0,0,2,2,1,,,,,,,432.8658790000002,432.8658790000002,433.8806531250002,434.54736475000004,434.780630792,434.780630792,434.780630792,435.84721583300006,435.84721583300006,435.84721583300006,435.84721583300006,436.86615491700013,200007,004,2023-04-11_09h21.49.003,DMS_et_12-36,2022.2.4,None,
58,PRED,12,0.9308612642825864,2,images/picture_3.png,images/picture_1.png,0,"[-11.733433509789462, 11.733433509789464]",-11.733433509789462,11.733433509789464,images/picture_2.png,1,"[11.733433509789462, -11.733433509789466]",11.733433509789462,-11.733433509789464,images/picture_3.png,2,"[-11.733433509789466, -11.733433509789462]",-11.733433509789464,-11.733433509789462,0,1,1,0.9308612642825864,1.9308612642825864,1.0691387357174134,3.0,1,1.6808612642825866,0,4.0,3.0,1,2,6,0,6,0,0,3,3,4,,,,,,,436.86615491700013,436.86615491700013,437.880401958,438.547039583,438.78055770800006,438.78055770800006,438.78055770800006,439.84720333300015,439.84720333300015,439.84720333300015,439.84720333300015,440.8659580000001,200007,004,2023-04-11_09h21.49.003,DMS_et_12-36,2022.2.4,None,
62,PRED,12,0.9308612642825864,2,images/picture_3.png,images/picture_1.png,0,"[11.733433509789464, 11.733433509789462]",11.733433509789464,11.733433509789462,images/picture_2.png,1,"[-11.733433509789462, 11.733433509789464]",-11.733433509789462,11.733433509789464,images/picture_3.png,2,"[-11.733433509789466, -11.733433509789462]",-11.733433509789464,-11.733433509789462,0,1,1,0.9308612642825864,1.9308612642825864,1.0691387357174134,3.0,1,1.6808612642825866,0,4.0,3.0,1,2,6,0,6,0,0,4,4,8,,,,,,,440.8659580000001,440.8659580000001,441.88070433300004,442.547400292,442.7806853750001,442.7806853750001,442.7806853750001,443.8473817920001,443.8473817920001,443.8473817920001,443.8473817920001,444.86633429200015,200007,004,2023-04-11_09h21.49.003,DMS_et_12-36,2022.2.4,None,
54,PRED,12,0.9308612642825864,2,images/picture_3.png,images/picture_1.png,0,"[-11.733433509789466, -11.733433509789462]",-11.733433509789464,-11.733433509789462,images/picture_2.png,1,"[11.733433509789462, -11.733433509789466]",11.733433509789462,-11.733433509789464,images/picture_3.png,2,"[-11.733433509789462, 11.733433509789464]",-11.733433509789462,11.733433509789464,0,1,1,0.9308612642825864,1.9308612642825864,1.0691387357174134,3.0,1,1.6808612642825866,0,4.0,3.0,1,2,6,0,6,0,0,5,5,0,,,,,,,444.86633429200015,444.86633429200015,445.8806018330001,446.5473971250001,446.7809017500001,446.7809017500001,446.7809017500001,447.847097417,447.847097417,447.847097417,447.847097417,448.84769833300015,200007,004,2023-04-11_09h21.49.003,DMS_et_12-36,2022.2.4,None,
61,PRED,12,0.9308612642825864,2,images/picture_3.png,images/picture_1.png,0,"[11.733433509789462, -11.733433509789466]",11.733433509789462,-11.733433509789464,images/picture_2.png,1,"[11.733433509789464, 11.733433509789462]",11.733433509789464,11.733433509789462,images/picture_3.png,2,"[-11.733433509789466, -11.733433509789462]",-11.733433509789464,-11.733433509789462,0,1,1,0.9308612642825864,1.9308612642825864,1.0691387357174134,3.0,1,1.6808612642825866,0,4.0,3.0,1,2,6,0,6,0,0,6,6,7,,,,,,,448.84769833300015,448.84769833300015,449.8474076250002,450.5335889580001,450.7667745420001,450.7667745420001,450.7667745420001,451.84738595800013,451.84738595800013,451.84738595800013,451.84738595800013,452.86617850000016,200007,004,2023-04-11_09h21.49.003,DMS_et_12-36,2022.2.4,None,
60,PRED,12,0.9308612642825864,2,images/picture_3.png,images/picture_1.png,0,"[11.733433509789462, -11.733433509789466]",11.733433509789462,-11.733433509789464,images/picture_2.png,1,"[-11.733433509789462, 11.733433509789464]",-11.733433509789462,11.733433509789464,images/picture_3.png,2,"[-11.733433509789466, -11.733433509789462]",-11.733433509789464,-11.733433509789462,0,1,1,0.9308612642825864,1.9308612642825864,1.0691387357174134,3.0,1,1.6808612642825866,0,4.0,3.0,1,2,6,0,6,0,0,7,7,6,,,,,,,452.86617850000016,452.86617850000016,453.8806259170001,454.54742016700015,454.780665,454.780665,454.780665,455.84742125,455.84742125,455.84742125,455.84742125,456.8659842920001,200007,004,2023-04-11_09h21.49.003,DMS_et_12-36,2022.2.4,None,
56,PRED,12,0.9308612642825864,2,images/picture_3.png,images/picture_1.png,0,"[11.733433509789464, 11.733433509789462]",11.733433509789464,11.733433509789462,images/picture_2.png,1,"[11.733433509789462, -11.733433509789466]",11.733433509789462,-11.733433509789464,images/picture_3.png,2,"[-11.733433509789466, -11.733433509789462]",-11.733433509789464,-11.733433509789462,0,1,1,0.9308612642825864,1.9308612642825864,1.0691387357174134,3.0,1,1.6808612642825866,0,4.0,3.0,1,2,6,0,6,0,0,8,8,2,,,,,,,456.8659842920001,456.8659842920001,457.880683375,458.54706545800013,458.78044220800007,458.78044220800007,458.78044220800007,459.84695412500014,459.84695412500014,459.84695412500014,459.84695412500014,460.927354292,200007,004,2023-04-11_09h21.49.003,DMS_et_12-36,2022.2.4,None,
,,,,,,,,,,,,,,,,,,,,,,,,,,,,,,,,,,,6,0,6,0,,,,,,,,,460.927354292,472.9501223750001,,,,,,,,,,,,,200007,004,2023-04-11_09h21.49.003,DMS_et_12-36,2022.2.4,None,
64,UNPRED,12,0.9308612642825864,0,images/picture_1.png,images/picture_1.png,0,"[-11.733433509789466, -11.733433509789462]",-11.733433509789464,-11.733433509789462,images/picture_2.png,1,"[11.733433509789464, 11.733433509789462]",11.733433509789464,11.733433509789462,images/picture_3.png,2,"[-11.733433509789462, 11.733433509789464]",-11.733433509789462,11.733433509789464,0,1,1,0.9308612642825864,1.9308612642825864,1.0691387357174134,3.0,1,1.6808612642825866,0,4.0,3.0,1,2,7,0,7,0,0,0,0,1,,,,,,,472.9501223750001,472.9501223750001,473.9474112500002,474.63380733300005,474.88048816700007,474.88048816700007,474.88048816700007,475.94744641700004,475.94744641700004,475.94744641700004,475.94744641700004,476.946835125,200007,004,2023-04-11_09h21.49.003,DMS_et_12-36,2022.2.4,None,
67,UNPRED,12,0.9308612642825864,0,images/picture_1.png,images/picture_1.png,0,"[-11.733433509789462, 11.733433509789464]",-11.733433509789462,11.733433509789464,images/picture_2.png,1,"[11.733433509789464, 11.733433509789462]",11.733433509789464,11.733433509789462,images/picture_3.png,2,"[11.733433509789462, -11.733433509789466]",11.733433509789462,-11.733433509789464,0,1,1,0.9308612642825864,1.9308612642825864,1.0691387357174134,3.0,1,1.6808612642825866,0,4.0,3.0,1,2,7,0,7,0,0,1,1,4,,,,,,,476.946835125,476.946835125,477.9475596670002,478.6335699580002,478.8808008330002,478.8808008330002,478.8808008330002,479.9471773330001,479.9471773330001,479.9471773330001,479.9471773330001,480.9470942500002,200007,004,2023-04-11_09h21.49.003,DMS_et_12-36,2022.2.4,None,
69,UNPRED,12,0.9308612642825864,0,images/picture_1.png,images/picture_1.png,0,"[11.733433509789462, -11.733433509789466]",11.733433509789462,-11.733433509789464,images/picture_2.png,1,"[-11.733433509789466, -11.733433509789462]",-11.733433509789464,-11.733433509789462,images/picture_3.png,2,"[11.733433509789464, 11.733433509789462]",11.733433509789464,11.733433509789462,0,1,1,0.9308612642825864,1.9308612642825864,1.0691387357174134,3.0,1,1.6808612642825866,0,4.0,3.0,1,2,7,0,7,0,0,2,2,6,,,,,,,480.9470942500002,480.9470942500002,481.94752641700006,482.633589625,482.880683417,482.880683417,482.880683417,483.94747762500015,483.94747762500015,483.94747762500015,483.94747762500015,484.94702733300005,200007,004,2023-04-11_09h21.49.003,DMS_et_12-36,2022.2.4,None,
63,UNPRED,12,0.9308612642825864,0,images/picture_1.png,images/picture_1.png,0,"[11.733433509789464, 11.733433509789462]",11.733433509789464,11.733433509789462,images/picture_2.png,1,"[-11.733433509789466, -11.733433509789462]",-11.733433509789464,-11.733433509789462,images/picture_3.png,2,"[-11.733433509789462, 11.733433509789464]",-11.733433509789462,11.733433509789464,0,1,1,0.9308612642825864,1.9308612642825864,1.0691387357174134,3.0,1,1.6808612642825866,0,4.0,3.0,1,2,7,0,7,0,0,3,3,0,,,,,,,484.94702733300005,484.94702733300005,485.94740508300015,486.6334423330002,486.88048566700013,486.88048566700013,486.88048566700013,487.9473565420001,487.9473565420001,487.9473565420001,487.9473565420001,488.94673054200007,200007,004,2023-04-11_09h21.49.003,DMS_et_12-36,2022.2.4,None,
65,UNPRED,12,0.9308612642825864,1,images/picture_2.png,images/picture_1.png,0,"[11.733433509789464, 11.733433509789462]",11.733433509789464,11.733433509789462,images/picture_2.png,1,"[-11.733433509789466, -11.733433509789462]",-11.733433509789464,-11.733433509789462,images/picture_3.png,2,"[-11.733433509789462, 11.733433509789464]",-11.733433509789462,11.733433509789464,0,1,1,0.9308612642825864,1.9308612642825864,1.0691387357174134,3.0,1,1.6808612642825866,0,4.0,3.0,1,2,7,0,7,0,0,4,4,2,,,,,,,488.94673054200007,488.94673054200007,489.94727245800004,490.63340729200013,490.88067350000006,490.88067350000006,490.88067350000006,491.9474357920001,491.9474357920001,491.9474357920001,491.9474357920001,492.96629191700004,200007,004,2023-04-11_09h21.49.003,DMS_et_12-36,2022.2.4,None,
68,UNPRED,12,0.9308612642825864,2,images/picture_3.png,images/picture_1.png,0,"[11.733433509789462, -11.733433509789466]",11.733433509789462,-11.733433509789464,images/picture_2.png,1,"[-11.733433509789466, -11.733433509789462]",-11.733433509789464,-11.733433509789462,images/picture_3.png,2,"[11.733433509789464, 11.733433509789462]",11.733433509789464,11.733433509789462,0,1,1,0.9308612642825864,1.9308612642825864,1.0691387357174134,3.0,1,1.6808612642825866,0,4.0,3.0,1,2,7,0,7,0,0,5,5,5,,,,,,,492.96629191700004,492.96629191700004,493.98081841700014,494.64742783300017,494.8667441250002,494.8667441250002,494.8667441250002,495.947438208,495.947438208,495.947438208,495.947438208,496.947357042,200007,004,2023-04-11_09h21.49.003,DMS_et_12-36,2022.2.4,None,
66,UNPRED,12,0.9308612642825864,1,images/picture_2.png,images/picture_1.png,0,"[-11.733433509789462, 11.733433509789464]",-11.733433509789462,11.733433509789464,images/picture_2.png,1,"[11.733433509789464, 11.733433509789462]",11.733433509789464,11.733433509789462,images/picture_3.png,2,"[11.733433509789462, -11.733433509789466]",11.733433509789462,-11.733433509789464,0,1,1,0.9308612642825864,1.9308612642825864,1.0691387357174134,3.0,1,1.6808612642825866,0,4.0,3.0,1,2,7,0,7,0,0,6,6,3,,,,,,,496.947357042,496.947357042,497.94741283300004,498.6335058330001,498.88043833300003,498.88043833300003,498.88043833300003,499.94731141700004,499.94731141700004,499.94731141700004,499.94731141700004,500.94699470800015,200007,004,2023-04-11_09h21.49.003,DMS_et_12-36,2022.2.4,None,
71,UNPRED,12,0.9308612642825864,0,images/picture_1.png,images/picture_1.png,0,"[-11.733433509789462, 11.733433509789464]",-11.733433509789462,11.733433509789464,images/picture_2.png,1,"[-11.733433509789466, -11.733433509789462]",-11.733433509789464,-11.733433509789462,images/picture_3.png,2,"[11.733433509789462, -11.733433509789466]",11.733433509789462,-11.733433509789464,0,1,1,0.9308612642825864,1.9308612642825864,1.0691387357174134,3.0,1,1.6808612642825866,0,4.0,3.0,1,2,7,0,7,0,0,7,7,8,,,,,,,500.94699470800015,500.94699470800015,501.94741216700004,502.6335583750001,502.880868167,502.880868167,502.880868167,503.94740341700003,503.94740341700003,503.94740341700003,503.94740341700003,504.9468017920001,200007,004,2023-04-11_09h21.49.003,DMS_et_12-36,2022.2.4,None,
70,UNPRED,12,0.9308612642825864,1,images/picture_2.png,images/picture_1.png,0,"[11.733433509789462, -11.733433509789466]",11.733433509789462,-11.733433509789464,images/picture_2.png,1,"[-11.733433509789466, -11.733433509789462]",-11.733433509789464,-11.733433509789462,images/picture_3.png,2,"[-11.733433509789462, 11.733433509789464]",-11.733433509789462,11.733433509789464,0,1,1,0.9308612642825864,1.9308612642825864,1.0691387357174134,3.0,1,1.6808612642825866,0,4.0,3.0,1,2,7,0,7,0,0,8,8,7,,,,,,,504.9468017920001,504.9468017920001,505.9473694170001,506.6341735830001,506.880697458,506.880697458,506.880697458,507.9474166250002,507.9474166250002,507.9474166250002,507.9474166250002,509.034386542,200007,004,2023-04-11_09h21.49.003,DMS_et_12-36,2022.2.4,None,
,,,,,,,,,,,,,,,,,,,,,,,,,,,,,,,,,,,7,0,7,0,,,,,,,,,509.034386542,521.0746732919999,,,,,,,,,,,,,200007,004,2023-04-11_09h21.49.003,DMS_et_12-36,2022.2.4,None,
74,PRED,12,0.9308612642825864,0,images/picture_1.png,images/picture_1.png,0,"[11.733433509789462, -11.733433509789466]",11.733433509789462,-11.733433509789464,images/picture_2.png,1,"[-11.733433509789462, 11.733433509789464]",-11.733433509789462,11.733433509789464,images/picture_3.png,2,"[-11.733433509789466, -11.733433509789462]",-11.733433509789464,-11.733433509789462,0,1,1,0.9308612642825864,1.9308612642825864,1.0691387357174134,3.0,1,1.6808612642825866,0,4.0,3.0,1,2,8,0,8,0,0,0,0,2,,,,,,,521.0746732919999,521.0746732919999,522.080937083,522.766790417,523.0000465420001,523.0000465420001,523.0000465420001,524.0808487920001,524.0808487920001,524.0808487920001,524.0665606250002,525.0802502920003,200007,004,2023-04-11_09h21.49.003,DMS_et_12-36,2022.2.4,None,
79,PRED,12,0.9308612642825864,0,images/picture_1.png,images/picture_1.png,0,"[-11.733433509789462, 11.733433509789464]",-11.733433509789462,11.733433509789464,images/picture_2.png,1,"[11.733433509789462, -11.733433509789466]",11.733433509789462,-11.733433509789464,images/picture_3.png,2,"[-11.733433509789466, -11.733433509789462]",-11.733433509789464,-11.733433509789462,0,1,1,0.9308612642825864,1.9308612642825864,1.0691387357174134,3.0,1,1.6808612642825866,0,4.0,3.0,1,2,8,0,8,0,0,1,1,7,,,,,,,525.0802502920003,525.0802502920003,526.0809053330001,526.7673565420002,527.0141820830002,527.0141820830002,527.0141820830002,528.080848625,528.080848625,528.080848625,528.080848625,529.0804740830001,200007,004,2023-04-11_09h21.49.003,DMS_et_12-36,2022.2.4,None,
80,PRED,12,0.9308612642825864,0,images/picture_1.png,images/picture_1.png,0,"[-11.733433509789462, 11.733433509789464]",-11.733433509789462,11.733433509789464,images/picture_2.png,1,"[11.733433509789462, -11.733433509789466]",11.733433509789462,-11.733433509789464,images/picture_3.png,2,"[11.733433509789464, 11.733433509789462]",11.733433509789464,11.733433509789462,0,1,1,0.9308612642825864,1.9308612642825864,1.0691387357174134,3.0,1,1.6808612642825866,0,4.0,3.0,1,2,8,0,8,0,0,2,2,8,,,,,,,529.0804740830001,529.0804740830001,530.0805290420001,530.7662668330001,531.0138775000003,531.0138775000003,531.0138775000003,532.0807097919999,532.0807097919999,532.0807097919999,532.0807097919999,533.0802487080002,200007,004,2023-04-11_09h21.49.003,DMS_et_12-36,2022.2.4,None,
72,PRED,12,0.9308612642825864,0,images/picture_1.png,images/picture_1.png,0,"[11.733433509789464, 11.733433509789462]",11.733433509789464,11.733433509789462,images/picture_2.png,1,"[11.733433509789462, -11.733433509789466]",11.733433509789462,-11.733433509789464,images/picture_3.png,2,"[-11.733433509789462, 11.733433509789464]",-11.733433509789462,11.733433509789464,0,1,1,0.9308612642825864,1.9308612642825864,1.0691387357174134,3.0,1,1.6808612642825866,0,4.0,3.0,1,2,8,0,8,0,0,3,3,0,,,,,,,533.0802487080002,533.0802487080002,534.0808827080002,534.7671900830003,535.0141650000003,535.0141650000003,535.0141650000003,536.080848542,536.080848542,536.080848542,536.080848542,537.0803977920002,200007,004,2023-04-11_09h21.49.003,DMS_et_12-36,2022.2.4,None,
75,PRED,12,0.9308612642825864,0,images/picture_1.png,images/picture_1.png,0,"[11.733433509789462, -11.733433509789466]",11.733433509789462,-11.733433509789464,images/picture_2.png,1,"[-11.733433509789462, 11.733433509789464]",-11.733433509789462,11.733433509789464,images/picture_3.png,2,"[11.733433509789464, 11.733433509789462]",11.733433509789464,11.733433509789462,0,1,1,0.9308612642825864,1.9308612642825864,1.0691387357174134,3.0,1,1.6808612642825866,0,4.0,3.0,1,2,8,0,8,0,0,4,4,3,,,,,,,537.0803977920002,537.0803977920002,538.080868583,538.7671763330002,539.0141581670002,539.0141581670002,539.0141581670002,540.080922458,540.080922458,540.080922458,540.080922458,541.0804936669999,200007,004,2023-04-11_09h21.49.003,DMS_et_12-36,2022.2.4,None,
76,PRED,12,0.9308612642825864,0,images/picture_1.png,images/picture_1.png,0,"[11.733433509789464, 11.733433509789462]",11.733433509789464,11.733433509789462,images/picture_2.png,1,"[11.733433509789462, -11.733433509789466]",11.733433509789462,-11.733433509789464,images/picture_3.png,2,"[-11.733433509789462, 11.733433509789464]",-11.733433509789462,11.733433509789464,0,1,1,0.9308612642825864,1.9308612642825864,1.0691387357174134,3.0,1,1.6808612642825866,0,4.0,3.0,1,2,8,0,8,0,0,5,5,4,,,,,,,541.0804936669999,541.0804936669999,542.080871375,542.7670392920002,543.0007952080002,543.0007952080002,543.0007952080002,544.0810652920002,544.0810652920002,544.0810652920002,544.0810652920002,545.0802537500001,200007,004,2023-04-11_09h21.49.003,DMS_et_12-36,2022.2.4,None,
78,PRED,12,0.9308612642825864,0,images/picture_1.png,images/picture_1.png,0,"[11.733433509789462, -11.733433509789466]",11.733433509789462,-11.733433509789464,images/picture_2.png,1,"[11.733433509789464, 11.733433509789462]",11.733433509789464,11.733433509789462,images/picture_3.png,2,"[-11.733433509789466, -11.733433509789462]",-11.733433509789464,-11.733433509789462,0,1,1,0.9308612642825864,1.9308612642825864,1.0691387357174134,3.0,1,1.6808612642825866,0,4.0,3.0,1,2,8,0,8,0,0,6,6,6,,,,,,,545.0802537500001,545.0802537500001,546.0808770830001,546.7674572080002,547.0141900000001,547.0141900000001,547.0141900000001,548.0808534999999,548.0808534999999,548.0808534999999,548.0808534999999,549.0804477080003,200007,004,2023-04-11_09h21.49.003,DMS_et_12-36,2022.2.4,None,
73,PRED,12,0.9308612642825864,0,images/picture_1.png,images/picture_1.png,0,"[11.733433509789462, -11.733433509789466]",11.733433509789462,-11.733433509789464,images/picture_2.png,1,"[-11.733433509789462, 11.733433509789464]",-11.733433509789462,11.733433509789464,images/picture_3.png,2,"[11.733433509789464, 11.733433509789462]",11.733433509789464,11.733433509789462,0,1,1,0.9308612642825864,1.9308612642825864,1.0691387357174134,3.0,1,1.6808612642825866,0,4.0,3.0,1,2,8,0,8,0,0,7,7,1,,,,,,,549.0804477080003,549.0804477080003,550.0809140419999,550.7658485,551.0137120830002,551.0137120830002,551.0137120830002,552.080898167,552.080898167,552.080898167,552.080898167,553.0806097080001,200007,004,2023-04-11_09h21.49.003,DMS_et_12-36,2022.2.4,None,
77,PRED,12,0.9308612642825864,0,images/picture_1.png,images/picture_1.png,0,"[-11.733433509789466, -11.733433509789462]",-11.733433509789464,-11.733433509789462,images/picture_2.png,1,"[11.733433509789464, 11.733433509789462]",11.733433509789464,11.733433509789462,images/picture_3.png,2,"[-11.733433509789462, 11.733433509789464]",-11.733433509789462,11.733433509789464,0,1,1,0.9308612642825864,1.9308612642825864,1.0691387357174134,3.0,1,1.6808612642825866,0,4.0,3.0,1,2,8,0,8,0,0,8,8,5,,,,,,,553.0806097080001,553.0806097080001,554.081056667,554.76745,555.0141192080002,555.0141192080002,555.0141192080002,556.0809233749999,556.0809233749999,556.0809233749999,556.0809233749999,557.1811448330002,200007,004,2023-04-11_09h21.49.003,DMS_et_12-36,2022.2.4,None,
,,,,,,,,,,,,,,,,,,,,,,,,,,,,,,,,,,,8,0,8,0,,,,,,,,,557.1811448330002,569.2053076250002,,,,,,,,,,,,,200007,004,2023-04-11_09h21.49.003,DMS_et_12-36,2022.2.4,None,
87,UNPRED,12,0.9308612642825864,0,images/picture_1.png,images/picture_1.png,0,"[11.733433509789464, 11.733433509789462]",11.733433509789464,11.733433509789462,images/picture_2.png,1,"[-11.733433509789466, -11.733433509789462]",-11.733433509789464,-11.733433509789462,images/picture_3.png,2,"[11.733433509789462, -11.733433509789466]",11.733433509789462,-11.733433509789464,0,1,1,0.9308612642825864,1.9308612642825864,1.0691387357174134,3.0,1,1.6808612642825866,0,4.0,3.0,1,2,9,0,9,0,0,0,0,6,,,,,,,569.2053076250002,569.2053076250002,570.2141880830002,570.9002337080003,571.132661417,571.132661417,571.132661417,572.213808667,572.213808667,572.213808667,572.199239417,573.213903958,200007,004,2023-04-11_09h21.49.003,DMS_et_12-36,2022.2.4,None,
83,UNPRED,12,0.9308612642825864,0,images/picture_1.png,images/picture_1.png,0,"[-11.733433509789462, 11.733433509789464]",-11.733433509789462,11.733433509789464,images/picture_2.png,1,"[-11.733433509789466, -11.733433509789462]",-11.733433509789464,-11.733433509789462,images/picture_3.png,2,"[11.733433509789462, -11.733433509789466]",11.733433509789462,-11.733433509789464,0,1,1,0.9308612642825864,1.9308612642825864,1.0691387357174134,3.0,1,1.6808612642825866,0,4.0,3.0,1,2,9,0,9,0,0,1,1,2,,,,,,,573.213903958,573.213903958,574.2143422500001,574.900252958,575.1476180000002,575.1476180000002,575.1476180000002,576.2141843330003,576.2141843330003,576.2141843330003,576.2141843330003,577.2135620420001,200007,004,2023-04-11_09h21.49.003,DMS_et_12-36,2022.2.4,None,
85,UNPRED,12,0.9308612642825864,0,images/picture_1.png,images/picture_1.png,0,"[11.733433509789462, -11.733433509789466]",11.733433509789462,-11.733433509789464,images/picture_2.png,1,"[-11.733433509789466, -11.733433509789462]",-11.733433509789464,-11.733433509789462,images/picture_3.png,2,"[11.733433509789464, 11.733433509789462]",11.733433509789464,11.733433509789462,0,1,1,0.9308612642825864,1.9308612642825864,1.0691387357174134,3.0,1,1.6808612642825866,0,4.0,3.0,1,2,9,0,9,0,0,2,2,4,,,,,,,577.2135620420001,577.2135620420001,578.2143358750002,578.9003685,579.1476074170002,579.1476074170002,579.1476074170002,580.214293667,580.214293667,580.214293667,580.214293667,581.2132064580003,200007,004,2023-04-11_09h21.49.003,DMS_et_12-36,2022.2.4,None,
84,UNPRED,12,0.9308612642825864,1,images/picture_2.png,images/picture_1.png,0,"[11.733433509789464, 11.733433509789462]",11.733433509789464,11.733433509789462,images/picture_2.png,1,"[-11.733433509789462, 11.733433509789464]",-11.733433509789462,11.733433509789464,images/picture_3.png,2,"[11.733433509789462, -11.733433509789466]",11.733433509789462,-11.733433509789464,0,1,1,0.9308612642825864,1.9308612642825864,1.0691387357174134,3.0,1,1.6808612642825866,0,4.0,3.0,1,2,9,0,9,0,0,3,3,3,,,,,,,581.2132064580003,581.2132064580003,582.2139276250002,582.899553208,583.1475942919999,583.1475942919999,583.1475942919999,584.2141614170002,584.2141614170002,584.2141614170002,584.2141614170002,585.2136204169999,200007,004,2023-04-11_09h21.49.003,DMS_et_12-36,2022.2.4,None,
82,UNPRED,12,0.9308612642825864,0,images/picture_1.png,images/picture_1.png,0,"[11.733433509789462, -11.733433509789466]",11.733433509789462,-11.733433509789464,images/picture_2.png,1,"[-11.733433509789462, 11.733433509789464]",-11.733433509789462,11.733433509789464,images/picture_3.png,2,"[-11.733433509789466, -11.733433509789462]",-11.733433509789464,-11.733433509789462,0,1,1,0.9308612642825864,1.9308612642825864,1.0691387357174134,3.0,1,1.6808612642825866,0,4.0,3.0,1,2,9,0,9,0,0,4,4,1,,,,,,,585.2136204169999,585.2136204169999,586.2143759580001,586.9009197500002,587.1476104999999,587.1476104999999,587.1476104999999,588.2141927079999,588.2141927079999,588.2141927079999,588.2141927079999,589.2135464999999,200007,004,2023-04-11_09h21.49.003,DMS_et_12-36,2022.2.4,None,
89,UNPRED,12,0.9308612642825864,1,images/picture_2.png,images/picture_1.png,0,"[-11.733433509789466, -11.733433509789462]",-11.733433509789464,-11.733433509789462,images/picture_2.png,1,"[11.733433509789464, 11.733433509789462]",11.733433509789464,11.733433509789462,images/picture_3.png,2,"[11.733433509789462, -11.733433509789466]",11.733433509789462,-11.733433509789464,0,1,1,0.9308612642825864,1.9308612642825864,1.0691387357174134,3.0,1,1.6808612642825866,0,4.0,3.0,1,2,9,0,9,0,0,5,5,8,,,,,,,589.2135464999999,589.2135464999999,590.2141785000001,590.9004686670003,591.1476075420003,591.1476075420003,591.1476075420003,592.2139979169999,592.2139979169999,592.2139979169999,592.2139979169999,593.233610167,200007,004,2023-04-11_09h21.49.003,DMS_et_12-36,2022.2.4,None,
88,UNPRED,12,0.9308612642825864,2,images/picture_3.png,images/picture_1.png,0,"[-11.733433509789462, 11.733433509789464]",-11.733433509789462,11.733433509789464,images/picture_2.png,1,"[-11.733433509789466, -11.733433509789462]",-11.733433509789464,-11.733433509789462,images/picture_3.png,2,"[11.733433509789464, 11.733433509789462]",11.733433509789464,11.733433509789462,0,1,1,0.9308612642825864,1.9308612642825864,1.0691387357174134,3.0,1,1.6808612642825866,0,4.0,3.0,1,2,9,0,9,0,0,6,6,7,,,,,,,593.233610167,593.233610167,594.2475943750003,594.9141633750003,595.147585042,595.147585042,595.147585042,596.2141624580001,596.2141624580001,596.2141624580001,596.2141624580001,597.2335438749999,200007,004,2023-04-11_09h21.49.003,DMS_et_12-36,2022.2.4,None,
81,UNPRED,12,0.9308612642825864,2,images/picture_3.png,images/picture_1.png,0,"[11.733433509789464, 11.733433509789462]",11.733433509789464,11.733433509789462,images/picture_2.png,1,"[-11.733433509789466, -11.733433509789462]",-11.733433509789464,-11.733433509789462,images/picture_3.png,2,"[11.733433509789462, -11.733433509789466]",11.733433509789462,-11.733433509789464,0,1,1,0.9308612642825864,1.9308612642825864,1.0691387357174134,3.0,1,1.6808612642825866,0,4.0,3.0,1,2,9,0,9,0,0,7,7,0,,,,,,,597.2335438749999,597.2335438749999,598.24760575,598.9142198750003,599.147307208,599.147307208,599.147307208,600.2142301250003,600.2142301250003,600.2142301250003,600.2142301250003,601.2138520420001,200007,004,2023-04-11_09h21.49.003,DMS_et_12-36,2022.2.4,None,
86,UNPRED,12,0.9308612642825864,1,images/picture_2.png,images/picture_1.png,0,"[11.733433509789464, 11.733433509789462]",11.733433509789464,11.733433509789462,images/picture_2.png,1,"[11.733433509789462, -11.733433509789466]",11.733433509789462,-11.733433509789464,images/picture_3.png,2,"[-11.733433509789462, 11.733433509789464]",-11.733433509789462,11.733433509789464,0,1,1,0.9308612642825864,1.9308612642825864,1.0691387357174134,3.0,1,1.6808612642825866,0,4.0,3.0,1,2,9,0,9,0,0,8,8,5,,,,,,,601.2138520420001,601.2138520420001,602.2138390420002,602.899527708,603.14796,603.14796,603.14796,604.2141399580003,604.2141399580003,604.2141399580003,604.2141399580003,605.3167972500003,200007,004,2023-04-11_09h21.49.003,DMS_et_12-36,2022.2.4,None,
,,,,,,,,,,,,,,,,,,,,,,,,,,,,,,,,,,,9,0,9,0,,,,,,,,,605.3167972500003,617.3504714170001,,,,,,,,,,,,,200007,004,2023-04-11_09h21.49.003,DMS_et_12-36,2022.2.4,None,
95,PRED,12,0.9308612642825864,2,images/picture_3.png,images/picture_1.png,0,"[11.733433509789464, 11.733433509789462]",11.733433509789464,11.733433509789462,images/picture_2.png,1,"[11.733433509789462, -11.733433509789466]",11.733433509789462,-11.733433509789464,images/picture_3.png,2,"[-11.733433509789466, -11.733433509789462]",-11.733433509789464,-11.733433509789462,0,1,1,0.9308612642825864,1.9308612642825864,1.0691387357174134,3.0,1,1.6808612642825866,0,4.0,3.0,1,2,10,0,10,0,0,0,0,5,,,,,,,617.3504714170001,617.3504714170001,618.3476673329999,619.0336311670001,619.267575958,619.267575958,619.267575958,620.3476062500001,620.3476062500001,620.3476062500001,620.3476062500001,621.367117083,200007,004,2023-04-11_09h21.49.003,DMS_et_12-36,2022.2.4,None,
96,PRED,12,0.9308612642825864,2,images/picture_3.png,images/picture_1.png,0,"[-11.733433509789466, -11.733433509789462]",-11.733433509789464,-11.733433509789462,images/picture_2.png,1,"[11.733433509789462, -11.733433509789466]",11.733433509789462,-11.733433509789464,images/picture_3.png,2,"[-11.733433509789462, 11.733433509789464]",-11.733433509789462,11.733433509789464,0,1,1,0.9308612642825864,1.9308612642825864,1.0691387357174134,3.0,1,1.6808612642825866,0,4.0,3.0,1,2,10,0,10,0,0,1,1,6,,,,,,,621.367117083,621.367117083,622.3809851670001,623.0473731670002,623.2807502080002,623.2807502080002,623.2807502080002,624.3476173750003,624.3476173750003,624.3476173750003,624.3476173750003,625.366454625,200007,004,2023-04-11_09h21.49.003,DMS_et_12-36,2022.2.4,None,
94,PRED,12,0.9308612642825864,2,images/picture_3.png,images/picture_1.png,0,"[11.733433509789464, 11.733433509789462]",11.733433509789464,11.733433509789462,images/picture_2.png,1,"[-11.733433509789466, -11.733433509789462]",-11.733433509789464,-11.733433509789462,images/picture_3.png,2,"[11.733433509789462, -11.733433509789466]",11.733433509789462,-11.733433509789464,0,1,1,0.9308612642825864,1.9308612642825864,1.0691387357174134,3.0,1,1.6808612642825866,0,4.0,3.0,1,2,10,0,10,0,0,2,2,4,,,,,,,625.366454625,625.366454625,626.3809663750001,627.0476300830003,627.2809385000003,627.2809385000003,627.2809385000003,628.3477058330002,628.3477058330002,628.3477058330002,628.3477058330002,629.3664249169999,200007,004,2023-04-11_09h21.49.003,DMS_et_12-36,2022.2.4,None,
97,PRED,12,0.9308612642825864,2,images/picture_3.png,images/picture_1.png,0,"[-11.733433509789466, -11.733433509789462]",-11.733433509789464,-11.733433509789462,images/picture_2.png,1,"[11.733433509789464, 11.733433509789462]",11.733433509789464,11.733433509789462,images/picture_3.png,2,"[-11.733433509789462, 11.733433509789464]",-11.733433509789462,11.733433509789464,0,1,1,0.9308612642825864,1.9308612642825864,1.0691387357174134,3.0,1,1.6808612642825866,0,4.0,3.0,1,2,10,0,10,0,0,3,3,7,,,,,,,629.3664249169999,629.3664249169999,630.3808878750003,631.047734,631.280884,631.280884,631.280884,632.34763425,632.34763425,632.34763425,632.34763425,633.3477836250001,200007,004,2023-04-11_09h21.49.003,DMS_et_12-36,2022.2.4,None,
92,PRED,12,0.9308612642825864,2,images/picture_3.png,images/picture_1.png,0,"[11.733433509789462, -11.733433509789466]",11.733433509789462,-11.733433509789464,images/picture_2.png,1,"[11.733433509789464, 11.733433509789462]",11.733433509789464,11.733433509789462,images/picture_3.png,2,"[-11.733433509789462, 11.733433509789464]",-11.733433509789462,11.733433509789464,0,1,1,0.9308612642825864,1.9308612642825864,1.0691387357174134,3.0,1,1.6808612642825866,0,4.0,3.0,1,2,10,0,10,0,0,4,4,2,,,,,,,633.3477836250001,633.3477836250001,634.3477367920002,635.0335360830002,635.2667536250003,635.2667536250003,635.2667536250003,636.347644875,636.347644875,636.347644875,636.347644875,637.366524625,200007,004,2023-04-11_09h21.49.003,DMS_et_12-36,2022.2.4,None,
91,PRED,12,0.9308612642825864,2,images/picture_3.png,images/picture_1.png,0,"[11.733433509789462, -11.733433509789466]",11.733433509789462,-11.733433509789464,images/picture_2.png,1,"[-11.733433509789466, -11.733433509789462]",-11.733433509789464,-11.733433509789462,images/picture_3.png,2,"[-11.733433509789462, 11.733433509789464]",-11.733433509789462,11.733433509789464,0,1,1,0.9308612642825864,1.9308612642825864,1.0691387357174134,3.0,1,1.6808612642825866,0,4.0,3.0,1,2,10,0,10,0,0,5,5,1,,,,,,,637.366524625,637.366524625,638.3809374170003,639.0477591670003,639.280880042,639.280880042,639.280880042,640.347681,640.347681,640.347681,640.347681,641.366984125,200007,004,2023-04-11_09h21.49.003,DMS_et_12-36,2022.2.4,None,
93,PRED,12,0.9308612642825864,2,images/picture_3.png,images/picture_1.png,0,"[-11.733433509789466, -11.733433509789462]",-11.733433509789464,-11.733433509789462,images/picture_2.png,1,"[11.733433509789462, -11.733433509789466]",11.733433509789462,-11.733433509789464,images/picture_3.png,2,"[-11.733433509789462, 11.733433509789464]",-11.733433509789462,11.733433509789464,0,1,1,0.9308612642825864,1.9308612642825864,1.0691387357174134,3.0,1,1.6808612642825866,0,4.0,3.0,1,2,10,0,10,0,0,6,6,3,,,,,,,641.366984125,641.366984125,642.3809194580001,643.0474113329999,643.2806410000001,643.2806410000001,643.2806410000001,644.3476948330001,644.3476948330001,644.3476948330001,644.3476948330001,645.366831,200007,004,2023-04-11_09h21.49.003,DMS_et_12-36,2022.2.4,None,
98,PRED,12,0.9308612642825864,2,images/picture_3.png,images/picture_1.png,0,"[-11.733433509789462, 11.733433509789464]",-11.733433509789462,11.733433509789464,images/picture_2.png,1,"[11.733433509789462, -11.733433509789466]",11.733433509789462,-11.733433509789464,images/picture_3.png,2,"[11.733433509789464, 11.733433509789462]",11.733433509789464,11.733433509789462,0,1,1,0.9308612642825864,1.9308612642825864,1.0691387357174134,3.0,1,1.6808612642825866,0,4.0,3.0,1,2,10,0,10,0,0,7,7,8,,,,,,,645.366831,645.366831,646.3809816670002,647.0476608750002,647.2809007500002,647.2809007500002,647.2809007500002,648.3477328330002,648.3477328330002,648.3477328330002,648.3477328330002,649.366885792,200007,004,2023-04-11_09h21.49.003,DMS_et_12-36,2022.2.4,None,
90,PRED,12,0.9308612642825864,2,images/picture_3.png,images/picture_1.png,0,"[11.733433509789462, -11.733433509789466]",11.733433509789462,-11.733433509789464,images/picture_2.png,1,"[11.733433509789464, 11.733433509789462]",11.733433509789464,11.733433509789462,images/picture_3.png,2,"[-11.733433509789462, 11.733433509789464]",-11.733433509789462,11.733433509789464,0,1,1,0.9308612642825864,1.9308612642825864,1.0691387357174134,3.0,1,1.6808612642825866,0,4.0,3.0,1,2,10,0,10,0,0,8,8,0,,,,,,,649.366885792,649.366885792,650.380938,651.0476652079999,651.2809392080001,651.2809392080001,651.2809392080001,652.3476471250003,652.3476471250003,652.3476471250003,652.3476471250003,653.4424240830001,200007,004,2023-04-11_09h21.49.003,DMS_et_12-36,2022.2.4,None,
,,,,,,,,,,,,,,,,,,,,,,,,,,,,,,,,,,,10,0,10,0,,,,,,,,,653.4424240830001,665.4816773330001,,,,,,,,,,,,,200007,004,2023-04-11_09h21.49.003,DMS_et_12-36,2022.2.4,None,
101,UNPRED,12,0.9308612642825864,2,images/picture_3.png,images/picture_1.png,0,"[11.733433509789462, -11.733433509789466]",11.733433509789462,-11.733433509789464,images/picture_2.png,1,"[11.733433509789464, 11.733433509789462]",11.733433509789464,11.733433509789462,images/picture_3.png,2,"[-11.733433509789466, -11.733433509789462]",-11.733433509789464,-11.733433509789462,0,1,1,0.9308612642825864,1.9308612642825864,1.0691387357174134,3.0,1,1.6808612642825866,0,4.0,3.0,1,2,11,0,11,0,0,0,0,2,,,,,,,665.4816773330001,665.4816773330001,666.4809550000002,667.166799542,667.4001997500002,667.4001997500002,667.4001997500002,668.4809318330001,668.4809318330001,668.4809318330001,668.4672362500003,669.4798814170001,200007,004,2023-04-11_09h21.49.003,DMS_et_12-36,2022.2.4,None,
106,UNPRED,12,0.9308612642825864,0,images/picture_1.png,images/picture_1.png,0,"[11.733433509789462, -11.733433509789466]",11.733433509789462,-11.733433509789464,images/picture_2.png,1,"[-11.733433509789466, -11.733433509789462]",-11.733433509789464,-11.733433509789462,images/picture_3.png,2,"[-11.733433509789462, 11.733433509789464]",-11.733433509789462,11.733433509789464,0,1,1,0.9308612642825864,1.9308612642825864,1.0691387357174134,3.0,1,1.6808612642825866,0,4.0,3.0,1,2,11,0,11,0,0,1,1,7,,,,,,,669.4798814170001,669.4798814170001,670.4809015420003,671.167663042,671.4143621670003,671.4143621670003,671.4143621670003,672.4811226670001,672.4811226670001,672.4811226670001,672.4811226670001,673.4803103750003,200007,004,2023-04-11_09h21.49.003,DMS_et_12-36,2022.2.4,None,
99,UNPRED,12,0.9308612642825864,1,images/picture_2.png,images/picture_1.png,0,"[11.733433509789462, -11.733433509789466]",11.733433509789462,-11.733433509789464,images/picture_2.png,1,"[-11.733433509789466, -11.733433509789462]",-11.733433509789464,-11.733433509789462,images/picture_3.png,2,"[-11.733433509789462, 11.733433509789464]",-11.733433509789462,11.733433509789464,0,1,1,0.9308612642825864,1.9308612642825864,1.0691387357174134,3.0,1,1.6808612642825866,0,4.0,3.0,1,2,11,0,11,0,0,2,2,0,,,,,,,673.4803103750003,673.4803103750003,674.4806931250002,675.1667090000003,675.4144168330001,675.4144168330001,675.4144168330001,676.4809535420002,676.4809535420002,676.4809535420002,676.4809535420002,677.4806148330001,200007,004,2023-04-11_09h21.49.003,DMS_et_12-36,2022.2.4,None,
100,UNPRED,12,0.9308612642825864,1,images/picture_2.png,images/picture_1.png,0,"[-11.733433509789462, 11.733433509789464]",-11.733433509789462,11.733433509789464,images/picture_2.png,1,"[11.733433509789462, -11.733433509789466]",11.733433509789462,-11.733433509789464,images/picture_3.png,2,"[-11.733433509789466, -11.733433509789462]",-11.733433509789464,-11.733433509789462,0,1,1,0.9308612642825864,1.9308612642825864,1.0691387357174134,3.0,1,1.6808612642825866,0,4.0,3.0,1,2,11,0,11,0,0,3,3,1,,,,,,,677.4806148330001,677.4806148330001,678.481150375,679.1668255830002,679.4144952500003,679.4144952500003,679.4144952500003,680.4811241250002,680.4811241250002,680.4811241250002,680.4811241250002,681.4803938749999,200007,004,2023-04-11_09h21.49.003,DMS_et_12-36,2022.2.4,None,
104,UNPRED,12,0.9308612642825864,1,images/picture_2.png,images/picture_1.png,0,"[-11.733433509789462, 11.733433509789464]",-11.733433509789462,11.733433509789464,images/picture_2.png,1,"[11.733433509789462, -11.733433509789466]",11.733433509789462,-11.733433509789464,images/picture_3.png,2,"[-11.733433509789466, -11.733433509789462]",-11.733433509789464,-11.733433509789462,0,1,1,0.9308612642825864,1.9308612642825864,1.0691387357174134,3.0,1,1.6808612642825866,0,4.0,3.0,1,2,11,0,11,0,0,4,4,5,,,,,,,681.4803938749999,681.4803938749999,682.4809537500003,683.166831625,683.4143725830002,683.4143725830002,683.4143725830002,684.4807012920003,684.4807012920003,684.4807012920003,684.4807012920003,685.480892667,200007,004,2023-04-11_09h21.49.003,DMS_et_12-36,2022.2.4,None,
105,UNPRED,12,0.9308612642825864,1,images/picture_2.png,images/picture_1.png,0,"[11.733433509789462, -11.733433509789466]",11.733433509789462,-11.733433509789464,images/picture_2.png,1,"[-11.733433509789462, 11.733433509789464]",-11.733433509789462,11.733433509789464,images/picture_3.png,2,"[11.733433509789464, 11.733433509789462]",11.733433509789464,11.733433509789462,0,1,1,0.9308612642825864,1.9308612642825864,1.0691387357174134,3.0,1,1.6808612642825866,0,4.0,3.0,1,2,11,0,11,0,0,5,5,6,,,,,,,685.480892667,685.480892667,686.4810997500001,687.1669077080003,687.4143636670003,687.4143636670003,687.4143636670003,688.4811077080001,688.4811077080001,688.4811077080001,688.4811077080001,689.4800554169999,200007,004,2023-04-11_09h21.49.003,DMS_et_12-36,2022.2.4,None,
102,UNPRED,12,0.9308612642825864,0,images/picture_1.png,images/picture_1.png,0,"[-11.733433509789462, 11.733433509789464]",-11.733433509789462,11.733433509789464,images/picture_2.png,1,"[11.733433509789462, -11.733433509789466]",11.733433509789462,-11.733433509789464,images/picture_3.png,2,"[-11.733433509789466, -11.733433509789462]",-11.733433509789464,-11.733433509789462,0,1,1,0.9308612642825864,1.9308612642825864,1.0691387357174134,3.0,1,1.6808612642825866,0,4.0,3.0,1,2,11,0,11,0,0,6,6,3,,,,,,,689.4800554169999,689.4800554169999,690.481111583,691.167598542,691.4144189169999,691.4144189169999,691.4144189169999,692.481145,692.481145,692.481145,692.481145,693.4805583330001,200007,004,2023-04-11_09h21.49.003,DMS_et_12-36,2022.2.4,None,
103,UNPRED,12,0.9308612642825864,0,images/picture_1.png,images/picture_1.png,0,"[11.733433509789462, -11.733433509789466]",11.733433509789462,-11.733433509789464,images/picture_2.png,1,"[-11.733433509789462, 11.733433509789464]",-11.733433509789462,11.733433509789464,images/picture_3.png,2,"[-11.733433509789466, -11.733433509789462]",-11.733433509789464,-11.733433509789462,0,1,1,0.9308612642825864,1.9308612642825864,1.0691387357174134,3.0,1,1.6808612642825866,0,4.0,3.0,1,2,11,0,11,0,0,7,7,4,,,,,,,693.4805583330001,693.4805583330001,694.4807277500001,695.166219125,695.4141508330001,695.4141508330001,695.4141508330001,696.481108875,696.481108875,696.481108875,696.481108875,697.4805117080002,200007,004,2023-04-11_09h21.49.003,DMS_et_12-36,2022.2.4,None,
107,UNPRED,12,0.9308612642825864,0,images/picture_1.png,images/picture_1.png,0,"[11.733433509789462, -11.733433509789466]",11.733433509789462,-11.733433509789464,images/picture_2.png,1,"[11.733433509789464, 11.733433509789462]",11.733433509789464,11.733433509789462,images/picture_3.png,2,"[-11.733433509789462, 11.733433509789464]",-11.733433509789462,11.733433509789464,0,1,1,0.9308612642825864,1.9308612642825864,1.0691387357174134,3.0,1,1.6808612642825866,0,4.0,3.0,1,2,11,0,11,0,0,8,8,8,,,,,,,697.4805117080002,697.4805117080002,698.4809642500002,699.1669260420001,699.4143907079999,699.4143907079999,699.4143907079999,700.4811109170003,700.4811109170003,700.4811109170003,700.4811109170003,701.6460548329999,200007,004,2023-04-11_09h21.49.003,DMS_et_12-36,2022.2.4,None,
,,,,,,,,,,,,,,,,,,,,,,,,,,,,,,,,,,,11,0,11,0,,,,,,,,,701.6460548329999,713.7778075829999,,,,,,,,,,,,,200007,004,2023-04-11_09h21.49.003,DMS_et_12-36,2022.2.4,None,
,,,,,,,,,,,,,,,,,,,,,,,,,,,,,,,,,,,,,,,,,,,,,,,713.7778075829999,726.3068317499999,,,,,,,,,,,,,,,,,,,
