trial_count,blockType,blockNum,delay_time,stimImage_i,stimImage,responseImage1,responseImage1_i,responseImage1_pos,responseImage1_X,responseImage1_Y,responseImage2,responseImage2_i,responseImage2_pos,responseImage2_X,responseImage2_Y,responseImage3,responseImage3_i,responseImage3_pos,responseImage3_X,responseImage3_Y,cue_onset,cue_dur,delay_onset,delay_dur,resp_onset,resp_dur,rest_onset,rest_dur,circle_dur,circle_onset,blocks.thisRepN,blocks.thisTrialN,blocks.thisN,blocks.thisIndex,trials.thisRepN,trials.thisTrialN,trials.thisN,trials.thisIndex,key_resp.started,text.started,key_resp.keys,key_resp.rt,text_2.started,text_2.stopped,etRecord.started,sample.started,Delay.started,sample.stopped,Delay.stopped,Response_1.started,Response_2.started,Response_3.started,polygon.started,Response_1.stopped,Response_2.stopped,Response_3.stopped,etRecord.stopped,polygon.stopped,participant,session,date,expName,psychopyVersion,frameRate,
,,,,,,,,,,,,,,,,,,,,,,,,,,,,,,,,,,,,,,,16.088192709023133,16.088192709023133,t,47.782708709011786,,,,,,,,,,,,,,,,,200002,204,2023-03-21_16h07.24.523,DMS_BEST_eyetracking_DAN_base_12-36_looped_10minWORKING,2022.2.4,None,
5,PRED,12,1.0632817976249642,0,images/picture_1.png,images/picture_1.png,0,"[11.733433509789462, -11.733433509789466]",11.733433509789462,-11.733433509789464,images/picture_2.png,1,"[-11.733433509789466, -11.733433509789462]",-11.733433509789464,-11.733433509789462,images/picture_3.png,2,"[-11.733433509789462, 11.733433509789464]",-11.733433509789462,11.733433509789464,0,1,1,1.0632817976249642,2.063281797624964,0.9367182023750359,3,1,1.813281797624964,0,0,0,0,0,0,0,0,5,,,,,63.8820195000153,75.9081455420237,,,,,,,,,,,,,,,200002,204,2023-03-21_16h07.24.523,DMS_BEST_eyetracking_DAN_base_12-36_looped_10minWORKING,2022.2.4,None,
5,PRED,12,1.0632817976249642,0,images/picture_1.png,images/picture_1.png,0,"[11.733433509789462, -11.733433509789466]",11.733433509789462,-11.733433509789464,images/picture_2.png,1,"[-11.733433509789466, -11.733433509789462]",-11.733433509789464,-11.733433509789462,images/picture_3.png,2,"[-11.733433509789462, 11.733433509789464]",-11.733433509789462,11.733433509789464,0,1,1,1.0632817976249642,2.063281797624964,0.9367182023750359,3,1,1.813281797624964,0,0,0,0,0,0,0,0,5,,,,,,,0.004694624920375645,75.9081455420237,75.9081455420237,76.91576154192444,77.7345822090283,77.9672732920153,77.9672732920153,77.9672732920153,78.90161570894998,78.91582487500273,78.91582487500273,78.91582487500273,4.0075778749305755,79.9153497919906,200002,204,2023-03-21_16h07.24.523,DMS_BEST_eyetracking_DAN_base_12-36_looped_10minWORKING,2022.2.4,None,
4,PRED,12,1.1380910875317434,0,images/picture_1.png,images/picture_1.png,0,"[-11.733433509789462, 11.733433509789464]",-11.733433509789462,11.733433509789464,images/picture_2.png,1,"[11.733433509789464, 11.733433509789462]",11.733433509789464,11.733433509789462,images/picture_3.png,2,"[-11.733433509789466, -11.733433509789462]",-11.733433509789464,-11.733433509789462,0,1,1,1.1380910875317434,2.138091087531744,0.8619089124682566,3,1,1.8880910875317436,0,0,0,0,0,0,1,1,4,,,,,,,,,,,,,,,,,,,,,200002,204,2023-03-21_16h07.24.523,DMS_BEST_eyetracking_DAN_base_12-36_looped_10minWORKING,2022.2.4,None,
4,PRED,12,1.1380910875317434,0,images/picture_1.png,images/picture_1.png,0,"[-11.733433509789462, 11.733433509789464]",-11.733433509789462,11.733433509789464,images/picture_2.png,1,"[11.733433509789464, 11.733433509789462]",11.733433509789464,11.733433509789462,images/picture_3.png,2,"[-11.733433509789466, -11.733433509789462]",-11.733433509789464,-11.733433509789462,0,1,1,1.1380910875317434,2.138091087531744,0.8619089124682566,3,1,1.8880910875317436,0,0,0,0,0,0,1,1,4,,,,,,,0.0013317499542608857,79.9153497919906,79.9153497919906,80.91575974994339,81.815945041948,82.0489913339261,82.0489913339261,82.0489913339261,82.91583691700362,82.91583691700362,82.91583691700362,82.91583691700362,3.9990393749903888,83.91687520896085,200002,204,2023-03-21_16h07.24.523,DMS_BEST_eyetracking_DAN_base_12-36_looped_10minWORKING,2022.2.4,None,
6,PRED,12,1.0602053933437792,0,images/picture_1.png,images/picture_1.png,0,"[-11.733433509789462, 11.733433509789464]",-11.733433509789462,11.733433509789464,images/picture_2.png,1,"[11.733433509789464, 11.733433509789462]",11.733433509789464,11.733433509789462,images/picture_3.png,2,"[-11.733433509789466, -11.733433509789462]",-11.733433509789464,-11.733433509789462,0,1,1,1.0602053933437792,2.060205393343779,0.9397946066562208,3,1,1.8102053933437792,0,0,0,0,0,0,2,2,6,,,,,,,,,,,,,,,,,,,,,200002,204,2023-03-21_16h07.24.523,DMS_BEST_eyetracking_DAN_base_12-36_looped_10minWORKING,2022.2.4,None,
6,PRED,12,1.0602053933437792,0,images/picture_1.png,images/picture_1.png,0,"[-11.733433509789462, 11.733433509789464]",-11.733433509789462,11.733433509789464,images/picture_2.png,1,"[11.733433509789464, 11.733433509789462]",11.733433509789464,11.733433509789462,images/picture_3.png,2,"[-11.733433509789466, -11.733433509789462]",-11.733433509789464,-11.733433509789462,0,1,1,1.0602053933437792,2.060205393343779,0.9397946066562208,3,1,1.8102053933437792,0,0,0,0,0,0,2,2,6,,,,,,,0.003510375041514635,83.91687520896085,83.91687520896085,84.91557824995834,85.73494033399038,85.96865858393721,85.96865858393721,85.96865858393721,86.91574958397541,86.91574958397541,86.91574958397541,86.91574958397541,3.9966302920365706,87.91551491699647,200002,204,2023-03-21_16h07.24.523,DMS_BEST_eyetracking_DAN_base_12-36_looped_10minWORKING,2022.2.4,None,
7,PRED,12,1.1714055848800362,0,images/picture_1.png,images/picture_1.png,0,"[-11.733433509789462, 11.733433509789464]",-11.733433509789462,11.733433509789464,images/picture_2.png,1,"[-11.733433509789466, -11.733433509789462]",-11.733433509789464,-11.733433509789462,images/picture_3.png,2,"[11.733433509789464, 11.733433509789462]",11.733433509789464,11.733433509789462,0,1,1,1.1714055848800362,2.171405584880036,0.8285944151199638,3,1,1.9214055848800358,0,0,0,0,0,0,3,3,7,,,,,,,,,,,,,,,,,,,,,200002,204,2023-03-21_16h07.24.523,DMS_BEST_eyetracking_DAN_base_12-36_looped_10minWORKING,2022.2.4,None,
7,PRED,12,1.1714055848800362,0,images/picture_1.png,images/picture_1.png,0,"[-11.733433509789462, 11.733433509789464]",-11.733433509789462,11.733433509789464,images/picture_2.png,1,"[-11.733433509789466, -11.733433509789462]",-11.733433509789464,-11.733433509789462,images/picture_3.png,2,"[11.733433509789464, 11.733433509789462]",11.733433509789464,11.733433509789462,0,1,1,1.1714055848800362,2.171405584880036,0.8285944151199638,3,1,1.9214055848800358,0,0,0,0,0,0,3,3,7,,,,,,,0.0026891669258475304,87.91551491699647,87.91551491699647,88.91565574996639,89.8487488339888,90.08232445898466,90.08232445898466,90.08232445898466,90.9158327919431,90.9158327919431,90.9158327919431,90.9158327919431,3.9977644169703126,91.91657054203097,200002,204,2023-03-21_16h07.24.523,DMS_BEST_eyetracking_DAN_base_12-36_looped_10minWORKING,2022.2.4,None,
3,PRED,12,0.9290292211218996,0,images/picture_1.png,images/picture_1.png,0,"[11.733433509789464, 11.733433509789462]",11.733433509789464,11.733433509789462,images/picture_2.png,1,"[11.733433509789462, -11.733433509789466]",11.733433509789462,-11.733433509789464,images/picture_3.png,2,"[-11.733433509789462, 11.733433509789464]",-11.733433509789462,11.733433509789464,0,1,1,0.9290292211218996,1.9290292211219,1.0709707788781004,3,1,1.6790292211218996,0,0,0,0,0,0,4,4,3,,,,,,,,,,,,,,,,,,,,,200002,204,2023-03-21_16h07.24.523,DMS_BEST_eyetracking_DAN_base_12-36_looped_10minWORKING,2022.2.4,None,
3,PRED,12,0.9290292211218996,0,images/picture_1.png,images/picture_1.png,0,"[11.733433509789464, 11.733433509789462]",11.733433509789464,11.733433509789462,images/picture_2.png,1,"[11.733433509789462, -11.733433509789466]",11.733433509789462,-11.733433509789464,images/picture_3.png,2,"[-11.733433509789462, 11.733433509789464]",-11.733433509789462,11.733433509789464,0,1,1,0.9290292211218996,1.9290292211219,1.0709707788781004,3,1,1.6790292211218996,0,0,0,0,0,0,4,4,3,,,,,,,0.0034692910267040133,91.91657054203097,91.91657054203097,92.91574266692623,93.601782792015,93.84867487498559,93.84867487498559,93.84867487498559,94.91564675001428,94.93514549999963,94.93514549999963,94.93514549999963,3.996993000037037,95.91625808400568,200002,204,2023-03-21_16h07.24.523,DMS_BEST_eyetracking_DAN_base_12-36_looped_10minWORKING,2022.2.4,None,
0,PRED,12,0.6586497089578092,0,images/picture_1.png,images/picture_1.png,0,"[-11.733433509789466, -11.733433509789462]",-11.733433509789464,-11.733433509789462,images/picture_2.png,1,"[11.733433509789464, 11.733433509789462]",11.733433509789464,11.733433509789462,images/picture_3.png,2,"[11.733433509789462, -11.733433509789466]",11.733433509789462,-11.733433509789464,0,1,1,0.6586497089578092,1.6586497089578092,1.3413502910421908,3,1,1.4086497089578092,0,0,0,0,0,0,5,5,0,,,,,,,,,,,,,,,,,,,,,200002,204,2023-03-21_16h07.24.523,DMS_BEST_eyetracking_DAN_base_12-36_looped_10minWORKING,2022.2.4,None,
0,PRED,12,0.6586497089578092,0,images/picture_1.png,images/picture_1.png,0,"[-11.733433509789466, -11.733433509789462]",-11.733433509789464,-11.733433509789462,images/picture_2.png,1,"[11.733433509789464, 11.733433509789462]",11.733433509789464,11.733433509789462,images/picture_3.png,2,"[11.733433509789462, -11.733433509789466]",11.733433509789462,-11.733433509789464,0,1,1,0.6586497089578092,1.6586497089578092,1.3413502910421908,3,1,1.4086497089578092,0,0,0,0,0,0,5,5,0,,,,,,,0.003545040963217616,95.91625808400568,95.91625808400568,96.91579691693187,97.3351164170308,97.56903166696429,97.56903166696429,97.56903166696429,98.91587770893238,98.91587770893238,98.91587770893238,98.91587770893238,3.9961805830243975,99.91528733400628,200002,204,2023-03-21_16h07.24.523,DMS_BEST_eyetracking_DAN_base_12-36_looped_10minWORKING,2022.2.4,None,
2,PRED,12,0.5140724306343205,0,images/picture_1.png,images/picture_1.png,0,"[11.733433509789464, 11.733433509789462]",11.733433509789464,11.733433509789462,images/picture_2.png,1,"[11.733433509789462, -11.733433509789466]",11.733433509789462,-11.733433509789464,images/picture_3.png,2,"[-11.733433509789462, 11.733433509789464]",-11.733433509789462,11.733433509789464,0,1,1,0.5140724306343205,1.5140724306343205,1.4859275693656795,3,1,1.2640724306343205,0,0,0,0,0,0,6,6,2,,,,,,,,,,,,,,,,,,,,,200002,204,2023-03-21_16h07.24.523,DMS_BEST_eyetracking_DAN_base_12-36_looped_10minWORKING,2022.2.4,None,
2,PRED,12,0.5140724306343205,0,images/picture_1.png,images/picture_1.png,0,"[11.733433509789464, 11.733433509789462]",11.733433509789464,11.733433509789462,images/picture_2.png,1,"[11.733433509789462, -11.733433509789466]",11.733433509789462,-11.733433509789464,images/picture_3.png,2,"[-11.733433509789462, 11.733433509789464]",-11.733433509789462,11.733433509789464,0,1,1,0.5140724306343205,1.5140724306343205,1.4859275693656795,3,1,1.2640724306343205,0,0,0,0,0,0,6,6,2,,,,,,,0.0014072500634938478,99.91528733400628,99.91528733400628,100.91555679193698,101.1823146250099,101.41564133402426,101.41564133402426,101.41564133402426,102.91574662493076,102.91574662493076,102.91574662493076,102.91574662493076,3.9998159169917926,103.91648904199246,200002,204,2023-03-21_16h07.24.523,DMS_BEST_eyetracking_DAN_base_12-36_looped_10minWORKING,2022.2.4,None,
1,PRED,12,0.6974361598862409,0,images/picture_1.png,images/picture_1.png,0,"[11.733433509789464, 11.733433509789462]",11.733433509789464,11.733433509789462,images/picture_2.png,1,"[-11.733433509789466, -11.733433509789462]",-11.733433509789464,-11.733433509789462,images/picture_3.png,2,"[11.733433509789462, -11.733433509789466]",11.733433509789462,-11.733433509789464,0,1,1,0.6974361598862409,1.6974361598862409,1.3025638401137591,3,1,1.4474361598862409,0,0,0,0,0,0,7,7,1,,,,,,,,,,,,,,,,,,,,,200002,204,2023-03-21_16h07.24.523,DMS_BEST_eyetracking_DAN_base_12-36_looped_10minWORKING,2022.2.4,None,
1,PRED,12,0.6974361598862409,0,images/picture_1.png,images/picture_1.png,0,"[11.733433509789464, 11.733433509789462]",11.733433509789464,11.733433509789462,images/picture_2.png,1,"[-11.733433509789466, -11.733433509789462]",-11.733433509789464,-11.733433509789462,images/picture_3.png,2,"[11.733433509789462, -11.733433509789466]",11.733433509789462,-11.733433509789464,0,1,1,0.6974361598862409,1.6974361598862409,1.3025638401137591,3,1,1.4474361598862409,0,0,0,0,0,0,7,7,1,,,,,,,0.0034933750284835696,103.91648904199246,103.91648904199246,104.91579845896922,105.36854125000536,105.61553029192146,105.61553029192146,105.61553029192146,106.91577454202343,106.91577454202343,106.91577454202343,106.91577454202343,3.9978086249902844,107.91818670893554,200002,204,2023-03-21_16h07.24.523,DMS_BEST_eyetracking_DAN_base_12-36_looped_10minWORKING,2022.2.4,None,
8,PRED,12,0.8229198148221741,0,images/picture_1.png,images/picture_1.png,0,"[11.733433509789462, -11.733433509789466]",11.733433509789462,-11.733433509789464,images/picture_2.png,1,"[-11.733433509789462, 11.733433509789464]",-11.733433509789462,11.733433509789464,images/picture_3.png,2,"[11.733433509789464, 11.733433509789462]",11.733433509789464,11.733433509789462,0,1,1,0.8229198148221741,1.822919814822174,1.177080185177826,3,1,1.572919814822174,0,0,0,0,0,0,8,8,8,,,,,,,,,,,,,,,,,,,,,200002,204,2023-03-21_16h07.24.523,DMS_BEST_eyetracking_DAN_base_12-36_looped_10minWORKING,2022.2.4,None,
8,PRED,12,0.8229198148221741,0,images/picture_1.png,images/picture_1.png,0,"[11.733433509789462, -11.733433509789466]",11.733433509789462,-11.733433509789464,images/picture_2.png,1,"[-11.733433509789462, 11.733433509789464]",-11.733433509789462,11.733433509789464,images/picture_3.png,2,"[11.733433509789464, 11.733433509789462]",11.733433509789464,11.733433509789462,0,1,1,0.8229198148221741,1.822919814822174,1.177080185177826,3,1,1.572919814822174,0,0,0,0,0,0,8,8,8,,,,,,,0.0034288748865947127,107.91818670893554,107.91818670893554,108.91580962494481,109.5017903749831,109.7343305000104,109.7343305000104,109.7343305000104,110.91546979197301,110.91546979197301,110.91546979197301,110.91546979197301,3.995976207894273,111.93869812495541,200002,204,2023-03-21_16h07.24.523,DMS_BEST_eyetracking_DAN_base_12-36_looped_10minWORKING,2022.2.4,None,
,,,,,,,,,,,,,,,,,,,,,,,,,,,,,,,0,0,0,0,,,,,,,,,111.93869812495541,123.96873629197944,,,,,,,,,,,,,,,200002,204,2023-03-21_16h07.24.523,DMS_BEST_eyetracking_DAN_base_12-36_looped_10minWORKING,2022.2.4,None,
9,UNPRED,12,0.5233288089740887,2,images/picture_3.png,images/picture_1.png,0,"[11.733433509789464, 11.733433509789462]",11.733433509789464,11.733433509789462,images/picture_2.png,1,"[-11.733433509789462, 11.733433509789464]",-11.733433509789462,11.733433509789464,images/picture_3.png,2,"[11.733433509789462, -11.733433509789466]",11.733433509789462,-11.733433509789464,0,1,1,0.5233288089740887,1.5233288089740888,1.4766711910259112,3,1,1.2733288089740888,0,1,0,1,0,0,0,0,0,,,,,,,,,,,,,,,,,,,,,200002,204,2023-03-21_16h07.24.523,DMS_BEST_eyetracking_DAN_base_12-36_looped_10minWORKING,2022.2.4,None,
9,UNPRED,12,0.5233288089740887,2,images/picture_3.png,images/picture_1.png,0,"[11.733433509789464, 11.733433509789462]",11.733433509789464,11.733433509789462,images/picture_2.png,1,"[-11.733433509789462, 11.733433509789464]",-11.733433509789462,11.733433509789464,images/picture_3.png,2,"[11.733433509789462, -11.733433509789466]",11.733433509789462,-11.733433509789464,0,1,1,0.5233288089740887,1.5233288089740888,1.4766711910259112,3,1,1.2733288089740888,0,1,0,1,0,0,0,0,0,,,,,,,0.003551541012711823,123.96873629197944,123.96873629197944,124.98282554198522,125.24919549992774,125.48225245892536,125.48225245892536,125.48225245892536,126.9683697919827,126.9683697919827,126.9683697919827,126.9683697919827,4.011344707920216,128.00116512493696,200002,204,2023-03-21_16h07.24.523,DMS_BEST_eyetracking_DAN_base_12-36_looped_10minWORKING,2022.2.4,None,
16,UNPRED,12,0.7543952384922248,0,images/picture_1.png,images/picture_1.png,0,"[11.733433509789464, 11.733433509789462]",11.733433509789464,11.733433509789462,images/picture_2.png,1,"[-11.733433509789466, -11.733433509789462]",-11.733433509789464,-11.733433509789462,images/picture_3.png,2,"[-11.733433509789462, 11.733433509789464]",-11.733433509789462,11.733433509789464,0,1,1,0.7543952384922248,1.7543952384922248,1.2456047615077752,3,1,1.5043952384922248,0,1,0,1,0,0,1,1,7,,,,,,,,,,,,,,,,,,,,,200002,204,2023-03-21_16h07.24.523,DMS_BEST_eyetracking_DAN_base_12-36_looped_10minWORKING,2022.2.4,None,
16,UNPRED,12,0.7543952384922248,0,images/picture_1.png,images/picture_1.png,0,"[11.733433509789464, 11.733433509789462]",11.733433509789464,11.733433509789462,images/picture_2.png,1,"[-11.733433509789466, -11.733433509789462]",-11.733433509789464,-11.733433509789462,images/picture_3.png,2,"[-11.733433509789462, 11.733433509789464]",-11.733433509789462,11.733433509789464,0,1,1,0.7543952384922248,1.7543952384922248,1.2456047615077752,3,1,1.5043952384922248,0,1,0,1,0,0,1,1,7,,,,,,,0.004488792037591338,128.00116512493696,128.00116512493696,129.01584033400286,129.51588149997406,129.73497874999885,129.73497874999885,129.73497874999885,130.98233008396346,130.98233008396346,130.98233008396346,130.98233008396346,4.030578500009142,131.98247379192617,200002,204,2023-03-21_16h07.24.523,DMS_BEST_eyetracking_DAN_base_12-36_looped_10minWORKING,2022.2.4,None,
14,UNPRED,12,0.8885487048690979,2,images/picture_3.png,images/picture_1.png,0,"[-11.733433509789462, 11.733433509789464]",-11.733433509789462,11.733433509789464,images/picture_2.png,1,"[11.733433509789462, -11.733433509789466]",11.733433509789462,-11.733433509789464,images/picture_3.png,2,"[-11.733433509789466, -11.733433509789462]",-11.733433509789464,-11.733433509789462,0,1,1,0.8885487048690979,1.8885487048690976,1.111451295130902,3,1,1.638548704869098,0,1,0,1,0,0,2,2,5,,,,,,,,,,,,,,,,,,,,,200002,204,2023-03-21_16h07.24.523,DMS_BEST_eyetracking_DAN_base_12-36_looped_10minWORKING,2022.2.4,None,
14,UNPRED,12,0.8885487048690979,2,images/picture_3.png,images/picture_1.png,0,"[-11.733433509789462, 11.733433509789464]",-11.733433509789462,11.733433509789464,images/picture_2.png,1,"[11.733433509789462, -11.733433509789466]",11.733433509789462,-11.733433509789464,images/picture_3.png,2,"[-11.733433509789466, -11.733433509789462]",-11.733433509789464,-11.733433509789462,0,1,1,0.8885487048690979,1.8885487048690976,1.111451295130902,3,1,1.638548704869098,0,1,0,1,0,0,2,2,5,,,,,,,0.004173041903413832,132.0343515839195,132.0343515839195,133.04905091691762,133.68250749993604,133.9015434589237,133.9015434589237,133.9015434589237,135.01574458403047,135.01574458403047,135.01574458403047,135.01574458403047,4.029771457891911,136.01561066694558,200002,204,2023-03-21_16h07.24.523,DMS_BEST_eyetracking_DAN_base_12-36_looped_10minWORKING,2022.2.4,None,
11,UNPRED,12,0.5038725920386842,1,images/picture_2.png,images/picture_1.png,0,"[11.733433509789462, -11.733433509789466]",11.733433509789462,-11.733433509789464,images/picture_2.png,1,"[-11.733433509789462, 11.733433509789464]",-11.733433509789462,11.733433509789464,images/picture_3.png,2,"[-11.733433509789466, -11.733433509789462]",-11.733433509789464,-11.733433509789462,0,1,1,0.5038725920386842,1.5038725920386842,1.4961274079613158,3,1,1.2538725920386842,0,1,0,1,0,0,3,3,2,,,,,,,,,,,,,,,,,,,,,200002,204,2023-03-21_16h07.24.523,DMS_BEST_eyetracking_DAN_base_12-36_looped_10minWORKING,2022.2.4,None,
11,UNPRED,12,0.5038725920386842,1,images/picture_2.png,images/picture_1.png,0,"[11.733433509789462, -11.733433509789466]",11.733433509789462,-11.733433509789464,images/picture_2.png,1,"[-11.733433509789462, 11.733433509789464]",-11.733433509789462,11.733433509789464,images/picture_3.png,2,"[-11.733433509789466, -11.733433509789462]",-11.733433509789464,-11.733433509789462,0,1,1,0.5038725920386842,1.5038725920386842,1.4961274079613158,3,1,1.2538725920386842,0,1,0,1,0,0,3,3,2,,,,,,,0.006177375093102455,136.0675707089249,136.0675707089249,137.08247433393262,137.3350612919312,137.54878858395386,137.54878858395386,137.54878858395386,139.04903616697993,139.04903616697993,139.04903616697993,139.04903616697993,4.030501041095704,140.0490070419619,200002,204,2023-03-21_16h07.24.523,DMS_BEST_eyetracking_DAN_base_12-36_looped_10minWORKING,2022.2.4,None,
15,UNPRED,12,0.5219691263594481,2,images/picture_3.png,images/picture_1.png,0,"[11.733433509789464, 11.733433509789462]",11.733433509789464,11.733433509789462,images/picture_2.png,1,"[-11.733433509789462, 11.733433509789464]",-11.733433509789462,11.733433509789464,images/picture_3.png,2,"[11.733433509789462, -11.733433509789466]",11.733433509789462,-11.733433509789464,0,1,1,0.5219691263594481,1.521969126359448,1.478030873640552,3,1,1.271969126359448,0,1,0,1,0,0,4,4,6,,,,,,,,,,,,,,,,,,,,,200002,204,2023-03-21_16h07.24.523,DMS_BEST_eyetracking_DAN_base_12-36_looped_10minWORKING,2022.2.4,None,
15,UNPRED,12,0.5219691263594481,2,images/picture_3.png,images/picture_1.png,0,"[11.733433509789464, 11.733433509789462]",11.733433509789464,11.733433509789462,images/picture_2.png,1,"[-11.733433509789462, 11.733433509789464]",-11.733433509789462,11.733433509789464,images/picture_3.png,2,"[11.733433509789462, -11.733433509789466]",11.733433509789462,-11.733433509789464,0,1,1,0.5219691263594481,1.521969126359448,1.478030873640552,3,1,1.271969126359448,0,1,0,1,0,0,4,4,6,,,,,,,0.0031891250982880592,140.08248266694136,140.08248266694136,141.08207929192577,141.36822579195723,141.6008090840187,141.6008090840187,141.6008090840187,143.08245858398732,143.08245858398732,143.08245858398732,143.08245858398732,3.997080666013062,144.08285066694953,200002,204,2023-03-21_16h07.24.523,DMS_BEST_eyetracking_DAN_base_12-36_looped_10minWORKING,2022.2.4,None,
10,UNPRED,12,0.738486154165823,0,images/picture_1.png,images/picture_1.png,0,"[11.733433509789464, 11.733433509789462]",11.733433509789464,11.733433509789462,images/picture_2.png,1,"[11.733433509789462, -11.733433509789466]",11.733433509789462,-11.733433509789464,images/picture_3.png,2,"[-11.733433509789462, 11.733433509789464]",-11.733433509789462,11.733433509789464,0,1,1,0.738486154165823,1.7384861541658232,1.261513845834177,3,1,1.4884861541658232,0,1,0,1,0,0,5,5,1,,,,,,,,,,,,,,,,,,,,,200002,204,2023-03-21_16h07.24.523,DMS_BEST_eyetracking_DAN_base_12-36_looped_10minWORKING,2022.2.4,None,
10,UNPRED,12,0.738486154165823,0,images/picture_1.png,images/picture_1.png,0,"[11.733433509789464, 11.733433509789462]",11.733433509789464,11.733433509789462,images/picture_2.png,1,"[11.733433509789462, -11.733433509789466]",11.733433509789462,-11.733433509789464,images/picture_3.png,2,"[-11.733433509789462, 11.733433509789464]",-11.733433509789462,11.733433509789464,0,1,1,0.738486154165823,1.7384861541658232,1.261513845834177,3,1,1.4884861541658232,0,1,0,1,0,0,5,5,1,,,,,,,0.004420457989908755,144.08285066694953,144.08285066694953,145.08252229192294,145.58255516702775,145.81552429194562,145.81552429194562,145.81552429194562,147.0825896669412,147.0825896669412,147.0825896669412,147.0825896669412,3.997848041006364,148.1008688339498,200002,204,2023-03-21_16h07.24.523,DMS_BEST_eyetracking_DAN_base_12-36_looped_10minWORKING,2022.2.4,None,
17,UNPRED,12,0.7068837869121617,1,images/picture_2.png,images/picture_1.png,0,"[11.733433509789462, -11.733433509789466]",11.733433509789462,-11.733433509789464,images/picture_2.png,1,"[-11.733433509789462, 11.733433509789464]",-11.733433509789462,11.733433509789464,images/picture_3.png,2,"[11.733433509789464, 11.733433509789462]",11.733433509789464,11.733433509789462,0,1,1,0.7068837869121617,1.7068837869121616,1.2931162130878384,3,1,1.4568837869121616,0,1,0,1,0,0,6,6,8,,,,,,,,,,,,,,,,,,,,,200002,204,2023-03-21_16h07.24.523,DMS_BEST_eyetracking_DAN_base_12-36_looped_10minWORKING,2022.2.4,None,
17,UNPRED,12,0.7068837869121617,1,images/picture_2.png,images/picture_1.png,0,"[11.733433509789462, -11.733433509789466]",11.733433509789462,-11.733433509789464,images/picture_2.png,1,"[-11.733433509789462, 11.733433509789464]",-11.733433509789462,11.733433509789464,images/picture_3.png,2,"[11.733433509789464, 11.733433509789462]",11.733433509789464,11.733433509789462,0,1,1,0.7068837869121617,1.7068837869121616,1.2931162130878384,3,1,1.4568837869121616,0,1,0,1,0,0,6,6,8,,,,,,,0.005578833050094545,148.1008688339498,148.1008688339498,149.11580887495074,149.56835037493147,149.7821803749539,149.7821803749539,149.7821803749539,151.08216608397197,151.08216608397197,151.08216608397197,151.08216608397197,4.030769250006415,152.08274645893835,200002,204,2023-03-21_16h07.24.523,DMS_BEST_eyetracking_DAN_base_12-36_looped_10minWORKING,2022.2.4,None,
13,UNPRED,12,0.7360962493742021,1,images/picture_2.png,images/picture_1.png,0,"[-11.733433509789466, -11.733433509789462]",-11.733433509789464,-11.733433509789462,images/picture_2.png,1,"[11.733433509789462, -11.733433509789466]",11.733433509789462,-11.733433509789464,images/picture_3.png,2,"[11.733433509789464, 11.733433509789462]",11.733433509789464,11.733433509789462,0,1,1,0.7360962493742021,1.7360962493742018,1.2639037506257977,3,1,1.4860962493742018,0,1,0,1,0,0,7,7,4,,,,,,,,,,,,,,,,,,,,,200002,204,2023-03-21_16h07.24.523,DMS_BEST_eyetracking_DAN_base_12-36_looped_10minWORKING,2022.2.4,None,
13,UNPRED,12,0.7360962493742021,1,images/picture_2.png,images/picture_1.png,0,"[-11.733433509789466, -11.733433509789462]",-11.733433509789464,-11.733433509789462,images/picture_2.png,1,"[11.733433509789462, -11.733433509789466]",11.733433509789462,-11.733433509789464,images/picture_3.png,2,"[11.733433509789464, 11.733433509789462]",11.733433509789464,11.733433509789462,0,1,1,0.7360962493742021,1.7360962493742018,1.2639037506257977,3,1,1.4860962493742018,0,1,0,1,0,0,7,7,4,,,,,,,0.003578083007596433,152.11505858402234,152.11505858402234,153.11590945895296,153.61609895899892,153.84909945901018,153.84909945901018,153.84909945901018,155.11582133395132,155.11582133395132,155.11582133395132,155.11582133395132,3.9971809999551624,156.11592837492935,200002,204,2023-03-21_16h07.24.523,DMS_BEST_eyetracking_DAN_base_12-36_looped_10minWORKING,2022.2.4,None,
12,UNPRED,12,1.0789478072148226,0,images/picture_1.png,images/picture_1.png,0,"[11.733433509789462, -11.733433509789466]",11.733433509789462,-11.733433509789464,images/picture_2.png,1,"[-11.733433509789466, -11.733433509789462]",-11.733433509789464,-11.733433509789462,images/picture_3.png,2,"[-11.733433509789462, 11.733433509789464]",-11.733433509789462,11.733433509789464,0,1,1,1.0789478072148226,2.0789478072148224,0.9210521927851774,3,1,1.8289478072148224,0,1,0,1,0,0,8,8,3,,,,,,,,,,,,,,,,,,,,,200002,204,2023-03-21_16h07.24.523,DMS_BEST_eyetracking_DAN_base_12-36_looped_10minWORKING,2022.2.4,None,
12,UNPRED,12,1.0789478072148226,0,images/picture_1.png,images/picture_1.png,0,"[11.733433509789462, -11.733433509789466]",11.733433509789462,-11.733433509789464,images/picture_2.png,1,"[-11.733433509789466, -11.733433509789462]",-11.733433509789464,-11.733433509789462,images/picture_3.png,2,"[-11.733433509789462, 11.733433509789464]",-11.733433509789462,11.733433509789464,0,1,1,1.0789478072148226,2.0789478072148224,0.9210521927851774,3,1,1.8289478072148224,0,1,0,1,0,0,8,8,3,,,,,,,0.0023997080279514194,156.11592837492935,156.11592837492935,157.11569391691592,157.94927729200572,158.18228254199494,158.18228254199494,158.18228254199494,159.11573349998798,159.11573349998798,159.11573349998798,159.11573349998798,3.997170792077668,160.15941441699397,200002,204,2023-03-21_16h07.24.523,DMS_BEST_eyetracking_DAN_base_12-36_looped_10minWORKING,2022.2.4,None,
,,,,,,,,,,,,,,,,,,,,,,,,,,,,,,,1,0,1,0,,,,,,,,,160.15941441699397,172.17004595894832,,,,,,,,,,,,,,,200002,204,2023-03-21_16h07.24.523,DMS_BEST_eyetracking_DAN_base_12-36_looped_10minWORKING,2022.2.4,None,
20,PRED,12,1.1764126141624809,1,images/picture_2.png,images/picture_1.png,0,"[11.733433509789462, -11.733433509789466]",11.733433509789462,-11.733433509789464,images/picture_2.png,1,"[-11.733433509789466, -11.733433509789462]",-11.733433509789464,-11.733433509789462,images/picture_3.png,2,"[-11.733433509789462, 11.733433509789464]",-11.733433509789462,11.733433509789464,0,1,1,1.1764126141624809,2.176412614162481,0.8235873858375189,3,1,1.9264126141624809,0,2,0,2,0,0,0,0,2,,,,,,,,,,,,,,,,,,,,,200002,204,2023-03-21_16h07.24.523,DMS_BEST_eyetracking_DAN_base_12-36_looped_10minWORKING,2022.2.4,None,
20,PRED,12,1.1764126141624809,1,images/picture_2.png,images/picture_1.png,0,"[11.733433509789462, -11.733433509789466]",11.733433509789462,-11.733433509789464,images/picture_2.png,1,"[-11.733433509789466, -11.733433509789462]",-11.733433509789464,-11.733433509789462,images/picture_3.png,2,"[-11.733433509789462, 11.733433509789464]",-11.733433509789462,11.733433509789464,0,1,1,1.1764126141624809,2.176412614162481,0.8235873858375189,3,1,1.9264126141624809,0,2,0,2,0,0,0,0,2,,,,,,,0.0027784170815721154,172.17004595894832,172.17004595894832,173.18249854200985,174.10075766697992,174.34886016696692,174.34886016696692,174.34886016696692,175.16846995893866,175.18251287494786,175.18251287494786,175.18251287494786,4.008546167053282,176.2018018339295,200002,204,2023-03-21_16h07.24.523,DMS_BEST_eyetracking_DAN_base_12-36_looped_10minWORKING,2022.2.4,None,
18,PRED,12,0.5557002137535537,1,images/picture_2.png,images/picture_1.png,0,"[-11.733433509789462, 11.733433509789464]",-11.733433509789462,11.733433509789464,images/picture_2.png,1,"[-11.733433509789466, -11.733433509789462]",-11.733433509789464,-11.733433509789462,images/picture_3.png,2,"[11.733433509789464, 11.733433509789462]",11.733433509789464,11.733433509789462,0,1,1,0.5557002137535537,1.5557002137535538,1.4442997862464462,3,1,1.3057002137535538,0,2,0,2,0,0,1,1,0,,,,,,,,,,,,,,,,,,,,,200002,204,2023-03-21_16h07.24.523,DMS_BEST_eyetracking_DAN_base_12-36_looped_10minWORKING,2022.2.4,None,
18,PRED,12,0.5557002137535537,1,images/picture_2.png,images/picture_1.png,0,"[-11.733433509789462, 11.733433509789464]",-11.733433509789462,11.733433509789464,images/picture_2.png,1,"[-11.733433509789466, -11.733433509789462]",-11.733433509789464,-11.733433509789462,images/picture_3.png,2,"[11.733433509789464, 11.733433509789462]",11.733433509789464,11.733433509789462,0,1,1,0.5557002137535537,1.5557002137535538,1.4442997862464462,3,1,1.3057002137535538,0,2,0,2,0,0,1,1,0,,,,,,,0.004975124960765243,176.2018018339295,176.2018018339295,177.21581754193176,177.51569979195483,177.73572966700885,177.73572966700885,177.73572966700885,179.1825216669822,179.1825216669822,179.1825216669822,179.1825216669822,4.030346082989126,180.18246029200964,200002,204,2023-03-21_16h07.24.523,DMS_BEST_eyetracking_DAN_base_12-36_looped_10minWORKING,2022.2.4,None,
22,PRED,12,0.6261289926731158,1,images/picture_2.png,images/picture_1.png,0,"[-11.733433509789466, -11.733433509789462]",-11.733433509789464,-11.733433509789462,images/picture_2.png,1,"[11.733433509789464, 11.733433509789462]",11.733433509789464,11.733433509789462,images/picture_3.png,2,"[-11.733433509789462, 11.733433509789464]",-11.733433509789462,11.733433509789464,0,1,1,0.6261289926731158,1.6261289926731155,1.3738710073268845,3,1,1.3761289926731155,0,2,0,2,0,0,2,2,4,,,,,,,,,,,,,,,,,,,,,200002,204,2023-03-21_16h07.24.523,DMS_BEST_eyetracking_DAN_base_12-36_looped_10minWORKING,2022.2.4,None,
22,PRED,12,0.6261289926731158,1,images/picture_2.png,images/picture_1.png,0,"[-11.733433509789466, -11.733433509789462]",-11.733433509789464,-11.733433509789462,images/picture_2.png,1,"[11.733433509789464, 11.733433509789462]",11.733433509789464,11.733433509789462,images/picture_3.png,2,"[-11.733433509789462, 11.733433509789464]",-11.733433509789462,11.733433509789464,0,1,1,0.6261289926731158,1.6261289926731155,1.3738710073268845,3,1,1.3761289926731155,0,2,0,2,0,0,2,2,4,,,,,,,0.004790999926626682,180.2351617499953,180.2351617499953,181.24916841695085,181.61551691696513,181.83429745899048,181.83429745899048,181.83429745899048,183.21581654192414,183.21581654192414,183.21581654192414,183.21581654192414,4.030292624956928,184.2160572919529,200002,204,2023-03-21_16h07.24.523,DMS_BEST_eyetracking_DAN_base_12-36_looped_10minWORKING,2022.2.4,None,
23,PRED,12,0.7564479080303496,1,images/picture_2.png,images/picture_1.png,0,"[11.733433509789464, 11.733433509789462]",11.733433509789464,11.733433509789462,images/picture_2.png,1,"[-11.733433509789462, 11.733433509789464]",-11.733433509789462,11.733433509789464,images/picture_3.png,2,"[-11.733433509789466, -11.733433509789462]",-11.733433509789464,-11.733433509789462,0,1,1,0.7564479080303496,1.7564479080303497,1.2435520919696503,3,1,1.5064479080303497,0,2,0,2,0,0,3,3,5,,,,,,,,,,,,,,,,,,,,,200002,204,2023-03-21_16h07.24.523,DMS_BEST_eyetracking_DAN_base_12-36_looped_10minWORKING,2022.2.4,None,
23,PRED,12,0.7564479080303496,1,images/picture_2.png,images/picture_1.png,0,"[11.733433509789464, 11.733433509789462]",11.733433509789464,11.733433509789462,images/picture_2.png,1,"[-11.733433509789462, 11.733433509789464]",-11.733433509789462,11.733433509789464,images/picture_3.png,2,"[-11.733433509789466, -11.733433509789462]",-11.733433509789464,-11.733433509789462,0,1,1,0.7564479080303496,1.7564479080303497,1.2435520919696503,3,1,1.5064479080303497,0,2,0,2,0,0,3,3,5,,,,,,,0.005084750009700656,184.26910725003108,184.26910725003108,185.28254149993882,185.78254179202486,186.00192995893303,186.00192995893303,186.00192995893303,187.2491697089281,187.2491697089281,187.2491697089281,187.2491697089281,4.029875208041631,188.24897658394184,200002,204,2023-03-21_16h07.24.523,DMS_BEST_eyetracking_DAN_base_12-36_looped_10minWORKING,2022.2.4,None,
25,PRED,12,0.8477933416034382,1,images/picture_2.png,images/picture_1.png,0,"[11.733433509789462, -11.733433509789466]",11.733433509789462,-11.733433509789464,images/picture_2.png,1,"[-11.733433509789462, 11.733433509789464]",-11.733433509789462,11.733433509789464,images/picture_3.png,2,"[-11.733433509789466, -11.733433509789462]",-11.733433509789464,-11.733433509789462,0,1,1,0.8477933416034382,1.8477933416034384,1.1522066583965618,3,1,1.5977933416034382,0,2,0,2,0,0,4,4,7,,,,,,,,,,,,,,,,,,,,,200002,204,2023-03-21_16h07.24.523,DMS_BEST_eyetracking_DAN_base_12-36_looped_10minWORKING,2022.2.4,None,
25,PRED,12,0.8477933416034382,1,images/picture_2.png,images/picture_1.png,0,"[11.733433509789462, -11.733433509789466]",11.733433509789462,-11.733433509789464,images/picture_2.png,1,"[-11.733433509789462, 11.733433509789464]",-11.733433509789462,11.733433509789464,images/picture_3.png,2,"[-11.733433509789466, -11.733433509789462]",-11.733433509789464,-11.733433509789462,0,1,1,0.8477933416034382,1.8477933416034384,1.1522066583965618,3,1,1.5977933416034382,0,2,0,2,0,0,4,4,7,,,,,,,0.004904958070255816,188.30164158402476,188.30164158402476,189.31578562501818,189.90149479196407,190.13522299996112,190.13522299996112,190.13522299996112,191.28260129201226,191.30172091699205,191.30172091699205,191.30172091699205,4.0295306670013815,192.28234008396976,200002,204,2023-03-21_16h07.24.523,DMS_BEST_eyetracking_DAN_base_12-36_looped_10minWORKING,2022.2.4,None,
26,PRED,12,1.160227418391686,1,images/picture_2.png,images/picture_1.png,0,"[11.733433509789464, 11.733433509789462]",11.733433509789464,11.733433509789462,images/picture_2.png,1,"[-11.733433509789462, 11.733433509789464]",-11.733433509789462,11.733433509789464,images/picture_3.png,2,"[-11.733433509789466, -11.733433509789462]",-11.733433509789464,-11.733433509789462,0,1,1,1.160227418391686,2.160227418391686,0.8397725816083139,3,1,1.910227418391686,0,2,0,2,0,0,5,5,8,,,,,,,,,,,,,,,,,,,,,200002,204,2023-03-21_16h07.24.523,DMS_BEST_eyetracking_DAN_base_12-36_looped_10minWORKING,2022.2.4,None,
26,PRED,12,1.160227418391686,1,images/picture_2.png,images/picture_1.png,0,"[11.733433509789464, 11.733433509789462]",11.733433509789464,11.733433509789462,images/picture_2.png,1,"[-11.733433509789462, 11.733433509789464]",-11.733433509789462,11.733433509789464,images/picture_3.png,2,"[-11.733433509789466, -11.733433509789462]",-11.733433509789464,-11.733433509789462,0,1,1,1.160227418391686,2.160227418391686,0.8397725816083139,3,1,1.910227418391686,0,2,0,2,0,0,5,5,8,,,,,,,0.0019122909288853407,192.31567187502515,192.31567187502515,193.31585591693874,194.23497274995316,194.4683504999848,194.4683504999848,194.4683504999848,195.31589537498076,195.31589537498076,195.31589537498076,195.31589537498076,3.99784899991937,196.33514916698914,200002,204,2023-03-21_16h07.24.523,DMS_BEST_eyetracking_DAN_base_12-36_looped_10minWORKING,2022.2.4,None,
21,PRED,12,0.7588903387807651,1,images/picture_2.png,images/picture_1.png,0,"[-11.733433509789466, -11.733433509789462]",-11.733433509789464,-11.733433509789462,images/picture_2.png,1,"[11.733433509789462, -11.733433509789466]",11.733433509789462,-11.733433509789464,images/picture_3.png,2,"[11.733433509789464, 11.733433509789462]",11.733433509789464,11.733433509789462,0,1,1,0.7588903387807651,1.7588903387807648,1.2411096612192352,3,1,1.5088903387807648,0,2,0,2,0,0,6,6,3,,,,,,,,,,,,,,,,,,,,,200002,204,2023-03-21_16h07.24.523,DMS_BEST_eyetracking_DAN_base_12-36_looped_10minWORKING,2022.2.4,None,
21,PRED,12,0.7588903387807651,1,images/picture_2.png,images/picture_1.png,0,"[-11.733433509789466, -11.733433509789462]",-11.733433509789464,-11.733433509789462,images/picture_2.png,1,"[11.733433509789462, -11.733433509789466]",11.733433509789462,-11.733433509789464,images/picture_3.png,2,"[11.733433509789464, 11.733433509789462]",11.733433509789464,11.733433509789462,0,1,1,0.7588903387807651,1.7588903387807648,1.2411096612192352,3,1,1.5088903387807648,0,2,0,2,0,0,6,6,3,,,,,,,0.004772292100824416,196.33514916698914,196.33514916698914,197.34878537501208,197.8495167089859,198.06871883396525,198.06871883396525,198.06871883396525,199.3158262919169,199.3158262919169,199.3158262919169,199.3158262919169,4.0292187090963125,200.315991209005,200002,204,2023-03-21_16h07.24.523,DMS_BEST_eyetracking_DAN_base_12-36_looped_10minWORKING,2022.2.4,None,
19,PRED,12,0.6940833207135712,1,images/picture_2.png,images/picture_1.png,0,"[11.733433509789464, 11.733433509789462]",11.733433509789464,11.733433509789462,images/picture_2.png,1,"[11.733433509789462, -11.733433509789466]",11.733433509789462,-11.733433509789464,images/picture_3.png,2,"[-11.733433509789466, -11.733433509789462]",-11.733433509789464,-11.733433509789462,0,1,1,0.6940833207135712,1.6940833207135713,1.3059166792864287,3,1,1.4440833207135713,0,2,0,2,0,0,7,7,1,,,,,,,,,,,,,,,,,,,,,200002,204,2023-03-21_16h07.24.523,DMS_BEST_eyetracking_DAN_base_12-36_looped_10minWORKING,2022.2.4,None,
19,PRED,12,0.6940833207135712,1,images/picture_2.png,images/picture_1.png,0,"[11.733433509789464, 11.733433509789462]",11.733433509789464,11.733433509789462,images/picture_2.png,1,"[11.733433509789462, -11.733433509789466]",11.733433509789462,-11.733433509789464,images/picture_3.png,2,"[-11.733433509789466, -11.733433509789462]",-11.733433509789464,-11.733433509789462,0,1,1,0.6940833207135712,1.6940833207135713,1.3059166792864287,3,1,1.4440833207135713,0,2,0,2,0,0,7,7,1,,,,,,,0.004942834028042853,200.3692179589998,200.3692179589998,201.38256829197053,201.81594137498178,202.0488186669536,202.0488186669536,202.0488186669536,203.34867283399217,203.3685817499645,203.3685817499645,203.3685817499645,4.027842249954119,204.34924308396876,200002,204,2023-03-21_16h07.24.523,DMS_BEST_eyetracking_DAN_base_12-36_looped_10minWORKING,2022.2.4,None,
24,PRED,12,1.0986304671550948,1,images/picture_2.png,images/picture_1.png,0,"[-11.733433509789462, 11.733433509789464]",-11.733433509789462,11.733433509789464,images/picture_2.png,1,"[11.733433509789464, 11.733433509789462]",11.733433509789464,11.733433509789462,images/picture_3.png,2,"[11.733433509789462, -11.733433509789466]",11.733433509789462,-11.733433509789464,0,1,1,1.0986304671550948,2.098630467155095,0.9013695328449052,3,1,1.848630467155095,0,2,0,2,0,0,8,8,6,,,,,,,,,,,,,,,,,,,,,200002,204,2023-03-21_16h07.24.523,DMS_BEST_eyetracking_DAN_base_12-36_looped_10minWORKING,2022.2.4,None,
24,PRED,12,1.0986304671550948,1,images/picture_2.png,images/picture_1.png,0,"[-11.733433509789462, 11.733433509789464]",-11.733433509789462,11.733433509789464,images/picture_2.png,1,"[11.733433509789464, 11.733433509789462]",11.733433509789464,11.733433509789462,images/picture_3.png,2,"[11.733433509789462, -11.733433509789466]",11.733433509789462,-11.733433509789464,0,1,1,1.0986304671550948,2.098630467155095,0.9013695328449052,3,1,1.848630467155095,0,2,0,2,0,0,8,8,6,,,,,,,0.004926124936901033,204.4019836669322,204.4019836669322,205.41588291700464,206.24898654199205,206.48228866700083,206.48228866700083,206.48228866700083,207.38254145893734,207.38254145893734,207.38254145893734,207.38254145893734,4.030890791909769,208.38259866693988,200002,204,2023-03-21_16h07.24.523,DMS_BEST_eyetracking_DAN_base_12-36_looped_10minWORKING,2022.2.4,None,
,,,,,,,,,,,,,,,,,,,,,,,,,,,,,,,2,0,2,0,,,,,,,,,208.47108512499835,220.50230720895343,,,,,,,,,,,,,,,200002,204,2023-03-21_16h07.24.523,DMS_BEST_eyetracking_DAN_base_12-36_looped_10minWORKING,2022.2.4,None,
32,UNPRED,12,1.0249500844384312,2,images/picture_3.png,images/picture_1.png,0,"[-11.733433509789462, 11.733433509789464]",-11.733433509789462,11.733433509789464,images/picture_2.png,1,"[-11.733433509789466, -11.733433509789462]",-11.733433509789464,-11.733433509789462,images/picture_3.png,2,"[11.733433509789464, 11.733433509789462]",11.733433509789464,11.733433509789462,0,1,1,1.0249500844384312,2.024950084438431,0.9750499155615688,3,1,1.774950084438431,0,3,0,3,0,0,0,0,5,,,,,,,,,,,,,,,,,,,,,200002,204,2023-03-21_16h07.24.523,DMS_BEST_eyetracking_DAN_base_12-36_looped_10minWORKING,2022.2.4,None,
32,UNPRED,12,1.0249500844384312,2,images/picture_3.png,images/picture_1.png,0,"[-11.733433509789462, 11.733433509789464]",-11.733433509789462,11.733433509789464,images/picture_2.png,1,"[-11.733433509789466, -11.733433509789462]",-11.733433509789464,-11.733433509789462,images/picture_3.png,2,"[11.733433509789464, 11.733433509789462]",11.733433509789464,11.733433509789462,0,1,1,1.0249500844384312,2.024950084438431,0.9750499155615688,3,1,1.774950084438431,0,3,0,3,0,0,0,0,5,,,,,,,0.002880083047784865,220.50230720895343,220.50230720895343,221.51617216703016,222.28271341696382,222.51545129192527,222.51545129192527,222.51545129192527,223.5013664169237,223.5013664169237,223.5013664169237,223.5013664169237,4.0108192909974605,224.53533345891628,200002,204,2023-03-21_16h07.24.523,DMS_BEST_eyetracking_DAN_base_12-36_looped_10minWORKING,2022.2.4,None,
29,UNPRED,12,1.1002353906567404,1,images/picture_2.png,images/picture_1.png,0,"[-11.733433509789462, 11.733433509789464]",-11.733433509789462,11.733433509789464,images/picture_2.png,1,"[11.733433509789462, -11.733433509789466]",11.733433509789462,-11.733433509789464,images/picture_3.png,2,"[11.733433509789464, 11.733433509789462]",11.733433509789464,11.733433509789462,0,1,1,1.1002353906567404,2.1002353906567404,0.8997646093432596,3,1,1.8502353906567404,0,3,0,3,0,0,1,1,2,,,,,,,,,,,,,,,,,,,,,200002,204,2023-03-21_16h07.24.523,DMS_BEST_eyetracking_DAN_base_12-36_looped_10minWORKING,2022.2.4,None,
29,UNPRED,12,1.1002353906567404,1,images/picture_2.png,images/picture_1.png,0,"[-11.733433509789462, 11.733433509789464]",-11.733433509789462,11.733433509789464,images/picture_2.png,1,"[11.733433509789462, -11.733433509789466]",11.733433509789462,-11.733433509789464,images/picture_3.png,2,"[11.733433509789464, 11.733433509789462]",11.733433509789464,11.733433509789462,0,1,1,1.1002353906567404,2.1002353906567404,0.8997646093432596,3,1,1.8502353906567404,0,3,0,3,0,0,1,1,2,,,,,,,0.0062335829716175795,224.53533345891628,224.53533345891628,225.54894570901524,226.38271304196678,226.6155155840097,226.6155155840097,226.6155155840097,227.5160008749226,227.5160008749226,227.5160008749226,227.5160008749226,4.030035707983188,228.5159255840117,200002,204,2023-03-21_16h07.24.523,DMS_BEST_eyetracking_DAN_base_12-36_looped_10minWORKING,2022.2.4,None,
30,UNPRED,12,0.5807216609731647,0,images/picture_1.png,images/picture_1.png,0,"[11.733433509789462, -11.733433509789466]",11.733433509789462,-11.733433509789464,images/picture_2.png,1,"[11.733433509789464, 11.733433509789462]",11.733433509789464,11.733433509789462,images/picture_3.png,2,"[-11.733433509789466, -11.733433509789462]",-11.733433509789464,-11.733433509789462,0,1,1,0.5807216609731647,1.580721660973165,1.419278339026835,3,1,1.330721660973165,0,3,0,3,0,0,2,2,3,,,,,,,,,,,,,,,,,,,,,200002,204,2023-03-21_16h07.24.523,DMS_BEST_eyetracking_DAN_base_12-36_looped_10minWORKING,2022.2.4,None,
30,UNPRED,12,0.5807216609731647,0,images/picture_1.png,images/picture_1.png,0,"[11.733433509789462, -11.733433509789466]",11.733433509789462,-11.733433509789464,images/picture_2.png,1,"[11.733433509789464, 11.733433509789462]",11.733433509789464,11.733433509789462,images/picture_3.png,2,"[-11.733433509789466, -11.733433509789462]",-11.733433509789464,-11.733433509789462,0,1,1,0.5807216609731647,1.580721660973165,1.419278339026835,3,1,1.330721660973165,0,3,0,3,0,0,2,2,3,,,,,,,0.0058810829650610685,228.5684834169224,228.5684834169224,229.58253424998838,229.9018634589156,230.11574187502265,230.11574187502265,230.11574187502265,231.5493209999986,231.5493209999986,231.5493209999986,231.5493209999986,4.030374457943253,232.54906674998347,200002,204,2023-03-21_16h07.24.523,DMS_BEST_eyetracking_DAN_base_12-36_looped_10minWORKING,2022.2.4,None,
31,UNPRED,12,1.113409774699917,1,images/picture_2.png,images/picture_1.png,0,"[-11.733433509789462, 11.733433509789464]",-11.733433509789462,11.733433509789464,images/picture_2.png,1,"[-11.733433509789466, -11.733433509789462]",-11.733433509789464,-11.733433509789462,images/picture_3.png,2,"[11.733433509789462, -11.733433509789466]",11.733433509789462,-11.733433509789464,0,1,1,1.113409774699917,2.113409774699917,0.886590225300083,3,1,1.8634097746999172,0,3,0,3,0,0,3,3,4,,,,,,,,,,,,,,,,,,,,,200002,204,2023-03-21_16h07.24.523,DMS_BEST_eyetracking_DAN_base_12-36_looped_10minWORKING,2022.2.4,None,
31,UNPRED,12,1.113409774699917,1,images/picture_2.png,images/picture_1.png,0,"[-11.733433509789462, 11.733433509789464]",-11.733433509789462,11.733433509789464,images/picture_2.png,1,"[-11.733433509789466, -11.733433509789462]",-11.733433509789464,-11.733433509789462,images/picture_3.png,2,"[11.733433509789462, -11.733433509789466]",11.733433509789462,-11.733433509789464,0,1,1,1.113409774699917,2.113409774699917,0.886590225300083,3,1,1.8634097746999172,0,3,0,3,0,0,3,3,4,,,,,,,0.003373707993887365,232.58186945901252,232.58186945901252,233.58242433401756,234.4491512089735,234.68238045892213,234.68238045892213,234.68238045892213,235.58257033396512,235.58257033396512,235.58257033396512,235.58257033396512,3.9984048750484362,236.60204337502364,200002,204,2023-03-21_16h07.24.523,DMS_BEST_eyetracking_DAN_base_12-36_looped_10minWORKING,2022.2.4,None,
28,UNPRED,12,1.0567528106404516,0,images/picture_1.png,images/picture_1.png,0,"[11.733433509789464, 11.733433509789462]",11.733433509789464,11.733433509789462,images/picture_2.png,1,"[11.733433509789462, -11.733433509789466]",11.733433509789462,-11.733433509789464,images/picture_3.png,2,"[-11.733433509789462, 11.733433509789464]",-11.733433509789462,11.733433509789464,0,1,1,1.0567528106404516,2.056752810640452,0.9432471893595484,3,1,1.806752810640452,0,3,0,3,0,0,4,4,1,,,,,,,,,,,,,,,,,,,,,200002,204,2023-03-21_16h07.24.523,DMS_BEST_eyetracking_DAN_base_12-36_looped_10minWORKING,2022.2.4,None,
28,UNPRED,12,1.0567528106404516,0,images/picture_1.png,images/picture_1.png,0,"[11.733433509789464, 11.733433509789462]",11.733433509789464,11.733433509789462,images/picture_2.png,1,"[11.733433509789462, -11.733433509789466]",11.733433509789462,-11.733433509789464,images/picture_3.png,2,"[-11.733433509789462, 11.733433509789464]",-11.733433509789462,11.733433509789464,0,1,1,1.0567528106404516,2.056752810640452,0.9432471893595484,3,1,1.806752810640452,0,3,0,3,0,0,4,4,1,,,,,,,0.004658250021748245,236.60204337502364,236.60204337502364,237.61574229202233,238.41573558398522,238.63516016700305,238.63516016700305,238.63516016700305,239.58253291691653,239.58253291691653,239.58253291691653,239.58253291691653,4.029628874966875,240.58350787498057,200002,204,2023-03-21_16h07.24.523,DMS_BEST_eyetracking_DAN_base_12-36_looped_10minWORKING,2022.2.4,None,
27,UNPRED,12,1.0959322601241714,0,images/picture_1.png,images/picture_1.png,0,"[-11.733433509789462, 11.733433509789464]",-11.733433509789462,11.733433509789464,images/picture_2.png,1,"[-11.733433509789466, -11.733433509789462]",-11.733433509789464,-11.733433509789462,images/picture_3.png,2,"[11.733433509789464, 11.733433509789462]",11.733433509789464,11.733433509789462,0,1,1,1.0959322601241714,2.0959322601241714,0.9040677398758286,3,1,1.8459322601241717,0,3,0,3,0,0,5,5,0,,,,,,,,,,,,,,,,,,,,,200002,204,2023-03-21_16h07.24.523,DMS_BEST_eyetracking_DAN_base_12-36_looped_10minWORKING,2022.2.4,None,
27,UNPRED,12,1.0959322601241714,0,images/picture_1.png,images/picture_1.png,0,"[-11.733433509789462, 11.733433509789464]",-11.733433509789462,11.733433509789464,images/picture_2.png,1,"[-11.733433509789466, -11.733433509789462]",-11.733433509789464,-11.733433509789462,images/picture_3.png,2,"[11.733433509789464, 11.733433509789462]",11.733433509789464,11.733433509789462,0,1,1,1.0959322601241714,2.0959322601241714,0.9040677398758286,3,1,1.8459322601241717,0,3,0,3,0,0,5,5,0,,,,,,,0.002892291988246143,240.61505475000013,240.61505475000013,241.61607920902316,242.46832270896994,242.70205262501258,242.70205262501258,242.70205262501258,243.61561112501658,243.61561112501658,243.61561112501658,243.61561112501658,3.9996587919304147,244.6161717500072,200002,204,2023-03-21_16h07.24.523,DMS_BEST_eyetracking_DAN_base_12-36_looped_10minWORKING,2022.2.4,None,
35,UNPRED,12,0.9104255153333896,2,images/picture_3.png,images/picture_1.png,0,"[11.733433509789464, 11.733433509789462]",11.733433509789464,11.733433509789462,images/picture_2.png,1,"[11.733433509789462, -11.733433509789466]",11.733433509789462,-11.733433509789464,images/picture_3.png,2,"[-11.733433509789462, 11.733433509789464]",-11.733433509789462,11.733433509789464,0,1,1,0.9104255153333896,1.9104255153333896,1.0895744846666104,3,1,1.6604255153333896,0,3,0,3,0,0,6,6,8,,,,,,,,,,,,,,,,,,,,,200002,204,2023-03-21_16h07.24.523,DMS_BEST_eyetracking_DAN_base_12-36_looped_10minWORKING,2022.2.4,None,
35,UNPRED,12,0.9104255153333896,2,images/picture_3.png,images/picture_1.png,0,"[11.733433509789464, 11.733433509789462]",11.733433509789464,11.733433509789462,images/picture_2.png,1,"[11.733433509789462, -11.733433509789466]",11.733433509789462,-11.733433509789464,images/picture_3.png,2,"[-11.733433509789462, 11.733433509789464]",-11.733433509789462,11.733433509789464,0,1,1,0.9104255153333896,1.9104255153333896,1.0895744846666104,3,1,1.6604255153333896,0,3,0,3,0,0,6,6,8,,,,,,,0.0021465839818120003,244.6161717500072,244.6161717500072,245.6158140419284,246.28255366696976,246.51563499995973,246.51563499995973,246.51563499995973,247.61626029200852,247.61626029200852,247.61626029200852,247.61626029200852,3.998644583974965,248.6356672089314,200002,204,2023-03-21_16h07.24.523,DMS_BEST_eyetracking_DAN_base_12-36_looped_10minWORKING,2022.2.4,None,
33,UNPRED,12,0.7437557154258749,2,images/picture_3.png,images/picture_1.png,0,"[11.733433509789464, 11.733433509789462]",11.733433509789464,11.733433509789462,images/picture_2.png,1,"[11.733433509789462, -11.733433509789466]",11.733433509789462,-11.733433509789464,images/picture_3.png,2,"[-11.733433509789462, 11.733433509789464]",-11.733433509789462,11.733433509789464,0,1,1,0.7437557154258749,1.743755715425875,1.256244284574125,3,1,1.493755715425875,0,3,0,3,0,0,7,7,6,,,,,,,,,,,,,,,,,,,,,200002,204,2023-03-21_16h07.24.523,DMS_BEST_eyetracking_DAN_base_12-36_looped_10minWORKING,2022.2.4,None,
33,UNPRED,12,0.7437557154258749,2,images/picture_3.png,images/picture_1.png,0,"[11.733433509789464, 11.733433509789462]",11.733433509789464,11.733433509789462,images/picture_2.png,1,"[11.733433509789462, -11.733433509789466]",11.733433509789462,-11.733433509789464,images/picture_3.png,2,"[-11.733433509789462, 11.733433509789464]",-11.733433509789462,11.733433509789464,0,1,1,0.7437557154258749,1.743755715425875,1.256244284574125,3,1,1.493755715425875,0,3,0,3,0,0,7,7,6,,,,,,,0.0033642910420894623,248.6356672089314,248.6356672089314,249.64917541702744,250.1355856669834,250.34961699997075,250.34961699997075,250.34961699997075,251.6159890840063,251.6159890840063,251.6159890840063,251.6159890840063,4.030058708041906,252.61593374994118,200002,204,2023-03-21_16h07.24.523,DMS_BEST_eyetracking_DAN_base_12-36_looped_10minWORKING,2022.2.4,None,
34,UNPRED,12,0.9148135962643192,2,images/picture_3.png,images/picture_1.png,0,"[11.733433509789464, 11.733433509789462]",11.733433509789464,11.733433509789462,images/picture_2.png,1,"[11.733433509789462, -11.733433509789466]",11.733433509789462,-11.733433509789464,images/picture_3.png,2,"[-11.733433509789466, -11.733433509789462]",-11.733433509789464,-11.733433509789462,0,1,1,0.9148135962643192,1.9148135962643191,1.0851864037356809,3,1,1.6648135962643191,0,3,0,3,0,0,8,8,7,,,,,,,,,,,,,,,,,,,,,200002,204,2023-03-21_16h07.24.523,DMS_BEST_eyetracking_DAN_base_12-36_looped_10minWORKING,2022.2.4,None,
34,UNPRED,12,0.9148135962643192,2,images/picture_3.png,images/picture_1.png,0,"[11.733433509789464, 11.733433509789462]",11.733433509789464,11.733433509789462,images/picture_2.png,1,"[11.733433509789462, -11.733433509789466]",11.733433509789462,-11.733433509789464,images/picture_3.png,2,"[-11.733433509789466, -11.733433509789462]",-11.733433509789464,-11.733433509789462,0,1,1,0.9148135962643192,1.9148135962643191,1.0851864037356809,3,1,1.6648135962643191,0,3,0,3,0,0,8,8,7,,,,,,,0.0034329589689150453,252.66851999994833,252.66851999994833,253.68228962493595,254.33553270902485,254.56850874994416,254.56850874994416,254.56850874994416,255.6493881669594,255.66859741695225,255.66859741695225,255.66859741695225,4.029939708998427,256.64966062502936,200002,204,2023-03-21_16h07.24.523,DMS_BEST_eyetracking_DAN_base_12-36_looped_10minWORKING,2022.2.4,None,
,,,,,,,,,,,,,,,,,,,,,,,,,,,,,,,3,0,3,0,,,,,,,,,256.74793641699944,268.76875579194166,,,,,,,,,,,,,,,200002,204,2023-03-21_16h07.24.523,DMS_BEST_eyetracking_DAN_base_12-36_looped_10minWORKING,2022.2.4,None,
44,PRED,12,0.7219827378732422,2,images/picture_3.png,images/picture_1.png,0,"[11.733433509789462, -11.733433509789466]",11.733433509789462,-11.733433509789464,images/picture_2.png,1,"[11.733433509789464, 11.733433509789462]",11.733433509789464,11.733433509789462,images/picture_3.png,2,"[-11.733433509789462, 11.733433509789464]",-11.733433509789462,11.733433509789464,0,1,1,0.7219827378732422,1.7219827378732422,1.2780172621267578,3,1,1.4719827378732422,0,4,0,4,0,0,0,0,8,,,,,,,,,,,,,,,,,,,,,200002,204,2023-03-21_16h07.24.523,DMS_BEST_eyetracking_DAN_base_12-36_looped_10minWORKING,2022.2.4,None,
44,PRED,12,0.7219827378732422,2,images/picture_3.png,images/picture_1.png,0,"[11.733433509789462, -11.733433509789466]",11.733433509789462,-11.733433509789464,images/picture_2.png,1,"[11.733433509789464, 11.733433509789462]",11.733433509789464,11.733433509789462,images/picture_3.png,2,"[-11.733433509789462, 11.733433509789464]",-11.733433509789462,11.733433509789464,0,1,1,0.7219827378732422,1.7219827378732422,1.2780172621267578,3,1,1.4719827378732422,0,4,0,4,0,0,0,0,8,,,,,,,0.002650582930073142,268.76875579194166,268.76875579194166,269.78192029194906,270.2485671249451,270.48195345897693,270.48195345897693,270.48195345897693,271.76787083398085,271.76787083398085,271.76787083398085,271.76787083398085,4.010445832973346,272.7841250000056,200002,204,2023-03-21_16h07.24.523,DMS_BEST_eyetracking_DAN_base_12-36_looped_10minWORKING,2022.2.4,None,
39,PRED,12,0.9114310272496056,2,images/picture_3.png,images/picture_1.png,0,"[-11.733433509789462, 11.733433509789464]",-11.733433509789462,11.733433509789464,images/picture_2.png,1,"[11.733433509789464, 11.733433509789462]",11.733433509789464,11.733433509789462,images/picture_3.png,2,"[-11.733433509789466, -11.733433509789462]",-11.733433509789464,-11.733433509789462,0,1,1,0.9114310272496056,1.9114310272496056,1.0885689727503944,3,1,1.6614310272496056,0,4,0,4,0,0,1,1,3,,,,,,,,,,,,,,,,,,,,,200002,204,2023-03-21_16h07.24.523,DMS_BEST_eyetracking_DAN_base_12-36_looped_10minWORKING,2022.2.4,None,
39,PRED,12,0.9114310272496056,2,images/picture_3.png,images/picture_1.png,0,"[-11.733433509789462, 11.733433509789464]",-11.733433509789462,11.733433509789464,images/picture_2.png,1,"[11.733433509789464, 11.733433509789462]",11.733433509789464,11.733433509789462,images/picture_3.png,2,"[-11.733433509789466, -11.733433509789462]",-11.733433509789464,-11.733433509789462,0,1,1,0.9114310272496056,1.9114310272496056,1.0885689727503944,3,1,1.6614310272496056,0,4,0,4,0,0,1,1,3,,,,,,,0.0032939170487225056,272.7841250000056,272.7841250000056,273.7820452499436,274.44891358399764,274.6820425000042,274.6820425000042,274.6820425000042,275.7823157089297,275.7823157089297,275.7823157089297,275.7823157089297,3.997293416992761,276.802237625001,200002,204,2023-03-21_16h07.24.523,DMS_BEST_eyetracking_DAN_base_12-36_looped_10minWORKING,2022.2.4,None,
41,PRED,12,0.7620472568959882,2,images/picture_3.png,images/picture_1.png,0,"[-11.733433509789462, 11.733433509789464]",-11.733433509789462,11.733433509789464,images/picture_2.png,1,"[-11.733433509789466, -11.733433509789462]",-11.733433509789464,-11.733433509789462,images/picture_3.png,2,"[11.733433509789464, 11.733433509789462]",11.733433509789464,11.733433509789462,0,1,1,0.7620472568959882,1.7620472568959882,1.2379527431040118,3,1,1.5120472568959882,0,4,0,4,0,0,2,2,5,,,,,,,,,,,,,,,,,,,,,200002,204,2023-03-21_16h07.24.523,DMS_BEST_eyetracking_DAN_base_12-36_looped_10minWORKING,2022.2.4,None,
41,PRED,12,0.7620472568959882,2,images/picture_3.png,images/picture_1.png,0,"[-11.733433509789462, 11.733433509789464]",-11.733433509789462,11.733433509789464,images/picture_2.png,1,"[-11.733433509789466, -11.733433509789462]",-11.733433509789464,-11.733433509789462,images/picture_3.png,2,"[11.733433509789464, 11.733433509789462]",11.733433509789464,11.733433509789462,0,1,1,0.7620472568959882,1.7620472568959882,1.2379527431040118,3,1,1.5120472568959882,0,4,0,4,0,0,2,2,5,,,,,,,0.0033742499072104692,276.802237625001,276.802237625001,277.8156744169537,278.31582862499636,278.54888670891523,278.54888670891523,278.54888670891523,279.78236445900984,279.80162804201245,279.80162804201245,279.80162804201245,4.0296860409434885,280.78228787495755,200002,204,2023-03-21_16h07.24.523,DMS_BEST_eyetracking_DAN_base_12-36_looped_10minWORKING,2022.2.4,None,
43,PRED,12,0.7664292643265509,2,images/picture_3.png,images/picture_1.png,0,"[-11.733433509789466, -11.733433509789462]",-11.733433509789464,-11.733433509789462,images/picture_2.png,1,"[-11.733433509789462, 11.733433509789464]",-11.733433509789462,11.733433509789464,images/picture_3.png,2,"[11.733433509789464, 11.733433509789462]",11.733433509789464,11.733433509789462,0,1,1,0.7664292643265509,1.766429264326551,1.233570735673449,3,1,1.516429264326551,0,4,0,4,0,0,3,3,7,,,,,,,,,,,,,,,,,,,,,200002,204,2023-03-21_16h07.24.523,DMS_BEST_eyetracking_DAN_base_12-36_looped_10minWORKING,2022.2.4,None,
43,PRED,12,0.7664292643265509,2,images/picture_3.png,images/picture_1.png,0,"[-11.733433509789466, -11.733433509789462]",-11.733433509789464,-11.733433509789462,images/picture_2.png,1,"[-11.733433509789462, 11.733433509789464]",-11.733433509789462,11.733433509789464,images/picture_3.png,2,"[11.733433509789464, 11.733433509789462]",11.733433509789464,11.733433509789462,0,1,1,0.7664292643265509,1.766429264326551,1.233570735673449,3,1,1.516429264326551,0,4,0,4,0,0,3,3,7,,,,,,,0.0031631659949198365,280.81801820895635,280.81801820895635,281.816063708975,282.3490707089659,282.5821047089994,282.5821047089994,282.5821047089994,283.815283791977,283.815283791977,283.815283791977,283.815283791977,3.9963796250522137,284.8153687919257,200002,204,2023-03-21_16h07.24.523,DMS_BEST_eyetracking_DAN_base_12-36_looped_10minWORKING,2022.2.4,None,
42,PRED,12,0.8932775581492796,2,images/picture_3.png,images/picture_1.png,0,"[11.733433509789462, -11.733433509789466]",11.733433509789462,-11.733433509789464,images/picture_2.png,1,"[-11.733433509789466, -11.733433509789462]",-11.733433509789464,-11.733433509789462,images/picture_3.png,2,"[-11.733433509789462, 11.733433509789464]",-11.733433509789462,11.733433509789464,0,1,1,0.8932775581492796,1.89327755814928,1.1067224418507204,3,1,1.6432775581492796,0,4,0,4,0,0,4,4,6,,,,,,,,,,,,,,,,,,,,,200002,204,2023-03-21_16h07.24.523,DMS_BEST_eyetracking_DAN_base_12-36_looped_10minWORKING,2022.2.4,None,
42,PRED,12,0.8932775581492796,2,images/picture_3.png,images/picture_1.png,0,"[11.733433509789462, -11.733433509789466]",11.733433509789462,-11.733433509789464,images/picture_2.png,1,"[-11.733433509789466, -11.733433509789462]",-11.733433509789464,-11.733433509789462,images/picture_3.png,2,"[-11.733433509789462, 11.733433509789464]",-11.733433509789462,11.733433509789464,0,1,1,0.8932775581492796,1.89327755814928,1.1067224418507204,3,1,1.6432775581492796,0,4,0,4,0,0,4,4,6,,,,,,,0.001547125051729381,284.8153687919257,284.8153687919257,285.81578487495426,286.4687551249517,286.70199737499934,286.70199737499934,286.70199737499934,287.815566958976,287.815566958976,287.815566958976,287.815566958976,3.9975190840195864,288.81792004196905,200002,204,2023-03-21_16h07.24.523,DMS_BEST_eyetracking_DAN_base_12-36_looped_10minWORKING,2022.2.4,None,
40,PRED,12,0.8551996888230179,2,images/picture_3.png,images/picture_1.png,0,"[-11.733433509789466, -11.733433509789462]",-11.733433509789464,-11.733433509789462,images/picture_2.png,1,"[-11.733433509789462, 11.733433509789464]",-11.733433509789462,11.733433509789464,images/picture_3.png,2,"[11.733433509789462, -11.733433509789466]",11.733433509789462,-11.733433509789464,0,1,1,0.8551996888230179,1.855199688823018,1.144800311176982,3,1,1.605199688823018,0,4,0,4,0,0,5,5,4,,,,,,,,,,,,,,,,,,,,,200002,204,2023-03-21_16h07.24.523,DMS_BEST_eyetracking_DAN_base_12-36_looped_10minWORKING,2022.2.4,None,
40,PRED,12,0.8551996888230179,2,images/picture_3.png,images/picture_1.png,0,"[-11.733433509789466, -11.733433509789462]",-11.733433509789464,-11.733433509789462,images/picture_2.png,1,"[-11.733433509789462, 11.733433509789464]",-11.733433509789462,11.733433509789464,images/picture_3.png,2,"[11.733433509789462, -11.733433509789466]",11.733433509789462,-11.733433509789464,0,1,1,0.8551996888230179,1.855199688823018,1.144800311176982,3,1,1.605199688823018,0,4,0,4,0,0,5,5,4,,,,,,,0.0034299169201403856,288.81792004196905,288.81792004196905,289.815666749957,290.4348208749434,290.6680762920296,290.6680762920296,290.6680762920296,291.815734374919,291.815734374919,291.815734374919,291.815734374919,3.996571666910313,292.81592224992346,200002,204,2023-03-21_16h07.24.523,DMS_BEST_eyetracking_DAN_base_12-36_looped_10minWORKING,2022.2.4,None,
37,PRED,12,1.1844109786131565,2,images/picture_3.png,images/picture_1.png,0,"[11.733433509789464, 11.733433509789462]",11.733433509789464,11.733433509789462,images/picture_2.png,1,"[-11.733433509789466, -11.733433509789462]",-11.733433509789464,-11.733433509789462,images/picture_3.png,2,"[11.733433509789462, -11.733433509789466]",11.733433509789462,-11.733433509789464,0,1,1,1.1844109786131565,2.1844109786131565,0.8155890213868435,3,1,1.9344109786131565,0,4,0,4,0,0,6,6,1,,,,,,,,,,,,,,,,,,,,,200002,204,2023-03-21_16h07.24.523,DMS_BEST_eyetracking_DAN_base_12-36_looped_10minWORKING,2022.2.4,None,
37,PRED,12,1.1844109786131565,2,images/picture_3.png,images/picture_1.png,0,"[11.733433509789464, 11.733433509789462]",11.733433509789464,11.733433509789462,images/picture_2.png,1,"[-11.733433509789466, -11.733433509789462]",-11.733433509789464,-11.733433509789462,images/picture_3.png,2,"[11.733433509789462, -11.733433509789466]",11.733433509789462,-11.733433509789464,0,1,1,1.1844109786131565,2.1844109786131565,0.8155890213868435,3,1,1.9344109786131565,0,4,0,4,0,0,6,6,1,,,,,,,0.003169583040289581,292.81592224992346,292.81592224992346,293.8157887919806,294.7488589999266,295.00104541692417,295.00104541692417,295.00104541692417,295.8155479169218,295.8155479169218,295.8155479169218,295.8155479169218,3.9973883329657838,296.81761391693726,200002,204,2023-03-21_16h07.24.523,DMS_BEST_eyetracking_DAN_base_12-36_looped_10minWORKING,2022.2.4,None,
38,PRED,12,0.6754976184439159,2,images/picture_3.png,images/picture_1.png,0,"[-11.733433509789462, 11.733433509789464]",-11.733433509789462,11.733433509789464,images/picture_2.png,1,"[11.733433509789464, 11.733433509789462]",11.733433509789464,11.733433509789462,images/picture_3.png,2,"[-11.733433509789466, -11.733433509789462]",-11.733433509789464,-11.733433509789462,0,1,1,0.6754976184439159,1.675497618443916,1.324502381556084,3,1,1.425497618443916,0,4,0,4,0,0,7,7,2,,,,,,,,,,,,,,,,,,,,,200002,204,2023-03-21_16h07.24.523,DMS_BEST_eyetracking_DAN_base_12-36_looped_10minWORKING,2022.2.4,None,
38,PRED,12,0.6754976184439159,2,images/picture_3.png,images/picture_1.png,0,"[-11.733433509789462, 11.733433509789464]",-11.733433509789462,11.733433509789464,images/picture_2.png,1,"[11.733433509789464, 11.733433509789462]",11.733433509789464,11.733433509789462,images/picture_3.png,2,"[-11.733433509789466, -11.733433509789462]",-11.733433509789464,-11.733433509789462,0,1,1,0.6754976184439159,1.675497618443916,1.324502381556084,3,1,1.425497618443916,0,4,0,4,0,0,7,7,2,,,,,,,0.003000749973580241,296.81761391693726,296.81761391693726,297.8158153749537,298.2489201669814,298.4821549169719,298.4821549169719,298.4821549169719,299.81577324995305,299.81577324995305,299.81577324995305,299.81577324995305,3.99676020804327,300.8346492089331,200002,204,2023-03-21_16h07.24.523,DMS_BEST_eyetracking_DAN_base_12-36_looped_10minWORKING,2022.2.4,None,
36,PRED,12,0.9732834745936559,2,images/picture_3.png,images/picture_1.png,0,"[11.733433509789462, -11.733433509789466]",11.733433509789462,-11.733433509789464,images/picture_2.png,1,"[-11.733433509789462, 11.733433509789464]",-11.733433509789462,11.733433509789464,images/picture_3.png,2,"[-11.733433509789466, -11.733433509789462]",-11.733433509789464,-11.733433509789462,0,1,1,0.9732834745936559,1.973283474593656,1.0267165254063442,3,1,1.723283474593656,0,4,0,4,0,0,8,8,0,,,,,,,,,,,,,,,,,,,,,200002,204,2023-03-21_16h07.24.523,DMS_BEST_eyetracking_DAN_base_12-36_looped_10minWORKING,2022.2.4,None,
36,PRED,12,0.9732834745936559,2,images/picture_3.png,images/picture_1.png,0,"[11.733433509789462, -11.733433509789466]",11.733433509789462,-11.733433509789464,images/picture_2.png,1,"[-11.733433509789462, 11.733433509789464]",-11.733433509789462,11.733433509789464,images/picture_3.png,2,"[-11.733433509789466, -11.733433509789462]",-11.733433509789464,-11.733433509789462,0,1,1,0.9732834745936559,1.973283474593656,1.0267165254063442,3,1,1.723283474593656,0,4,0,4,0,0,8,8,0,,,,,,,0.0034575830213725567,300.8346492089331,300.8346492089331,301.84876787499525,302.5677185419481,302.7822483340278,302.7822483340278,302.7822483340278,303.8155179999303,303.8155179999303,303.8155179999303,303.8155179999303,4.029614040977322,304.81537037494127,200002,204,2023-03-21_16h07.24.523,DMS_BEST_eyetracking_DAN_base_12-36_looped_10minWORKING,2022.2.4,None,
,,,,,,,,,,,,,,,,,,,,,,,,,,,,,,,4,0,4,0,,,,,,,,,304.89096683391836,316.9170770839555,,,,,,,,,,,,,,,200002,204,2023-03-21_16h07.24.523,DMS_BEST_eyetracking_DAN_base_12-36_looped_10minWORKING,2022.2.4,None,
52,UNPRED,12,1.0302658979471844,1,images/picture_2.png,images/picture_1.png,0,"[-11.733433509789466, -11.733433509789462]",-11.733433509789464,-11.733433509789462,images/picture_2.png,1,"[11.733433509789462, -11.733433509789466]",11.733433509789462,-11.733433509789464,images/picture_3.png,2,"[11.733433509789464, 11.733433509789462]",11.733433509789464,11.733433509789462,0,1,1,1.0302658979471844,2.030265897947184,0.9697341020528156,3,1,1.7802658979471842,0,5,0,5,0,0,0,0,7,,,,,,,,,,,,,,,,,,,,,200002,204,2023-03-21_16h07.24.523,DMS_BEST_eyetracking_DAN_base_12-36_looped_10minWORKING,2022.2.4,None,
52,UNPRED,12,1.0302658979471844,1,images/picture_2.png,images/picture_1.png,0,"[-11.733433509789466, -11.733433509789462]",-11.733433509789464,-11.733433509789462,images/picture_2.png,1,"[11.733433509789462, -11.733433509789466]",11.733433509789462,-11.733433509789464,images/picture_3.png,2,"[11.733433509789464, 11.733433509789462]",11.733433509789464,11.733433509789462,0,1,1,1.0302658979471844,2.030265897947184,0.9697341020528156,3,1,1.7802658979471842,0,5,0,5,0,0,0,0,7,,,,,,,0.004185084020718932,316.9170770839555,316.9170770839555,317.91549362498336,318.70155724999495,318.94863216695376,318.94863216695376,318.94863216695376,319.9153495419305,319.9153495419305,319.9153495419305,319.9153495419305,3.996342708938755,320.93511991691776,200002,204,2023-03-21_16h07.24.523,DMS_BEST_eyetracking_DAN_base_12-36_looped_10minWORKING,2022.2.4,None,
48,UNPRED,12,0.8965115701997279,0,images/picture_1.png,images/picture_1.png,0,"[-11.733433509789466, -11.733433509789462]",-11.733433509789464,-11.733433509789462,images/picture_2.png,1,"[11.733433509789462, -11.733433509789466]",11.733433509789462,-11.733433509789464,images/picture_3.png,2,"[-11.733433509789462, 11.733433509789464]",-11.733433509789462,11.733433509789464,0,1,1,0.8965115701997279,1.896511570199728,1.103488429800272,3,1,1.646511570199728,0,5,0,5,0,0,1,1,3,,,,,,,,,,,,,,,,,,,,,200002,204,2023-03-21_16h07.24.523,DMS_BEST_eyetracking_DAN_base_12-36_looped_10minWORKING,2022.2.4,None,
48,UNPRED,12,0.8965115701997279,0,images/picture_1.png,images/picture_1.png,0,"[-11.733433509789466, -11.733433509789462]",-11.733433509789464,-11.733433509789462,images/picture_2.png,1,"[11.733433509789462, -11.733433509789466]",11.733433509789462,-11.733433509789464,images/picture_3.png,2,"[-11.733433509789462, 11.733433509789464]",-11.733433509789462,11.733433509789464,0,1,1,0.8965115701997279,1.896511570199728,1.103488429800272,3,1,1.646511570199728,0,5,0,5,0,0,1,1,3,,,,,,,0.005960374954156578,320.93511991691776,320.93511991691776,321.94880483392626,322.58223979198374,322.81533258396666,322.81533258396666,322.81533258396666,323.9156734169228,323.9156734169228,323.9156734169228,323.9156734169228,4.028929624939337,324.9152179589728,200002,204,2023-03-21_16h07.24.523,DMS_BEST_eyetracking_DAN_base_12-36_looped_10minWORKING,2022.2.4,None,
46,UNPRED,12,0.5653165083818509,2,images/picture_3.png,images/picture_1.png,0,"[-11.733433509789466, -11.733433509789462]",-11.733433509789464,-11.733433509789462,images/picture_2.png,1,"[-11.733433509789462, 11.733433509789464]",-11.733433509789462,11.733433509789464,images/picture_3.png,2,"[11.733433509789462, -11.733433509789466]",11.733433509789462,-11.733433509789464,0,1,1,0.5653165083818509,1.5653165083818508,1.4346834916181492,3,1,1.3153165083818508,0,5,0,5,0,0,2,2,1,,,,,,,,,,,,,,,,,,,,,200002,204,2023-03-21_16h07.24.523,DMS_BEST_eyetracking_DAN_base_12-36_looped_10minWORKING,2022.2.4,None,
46,UNPRED,12,0.5653165083818509,2,images/picture_3.png,images/picture_1.png,0,"[-11.733433509789466, -11.733433509789462]",-11.733433509789464,-11.733433509789462,images/picture_2.png,1,"[-11.733433509789462, 11.733433509789464]",-11.733433509789462,11.733433509789464,images/picture_3.png,2,"[11.733433509789462, -11.733433509789466]",11.733433509789462,-11.733433509789464,0,1,1,0.5653165083818509,1.5653165083818508,1.4346834916181492,3,1,1.3153165083818508,0,5,0,5,0,0,2,2,1,,,,,,,0.0025393340038135648,324.9483942500083,324.9483942500083,325.94875554193277,326.2684480419848,326.515578291961,326.515578291961,326.515578291961,327.948844666942,327.948844666942,327.948844666942,327.948844666942,3.9996933339862153,328.9684397500241,200002,204,2023-03-21_16h07.24.523,DMS_BEST_eyetracking_DAN_base_12-36_looped_10minWORKING,2022.2.4,None,
49,UNPRED,12,0.5548245722527811,2,images/picture_3.png,images/picture_1.png,0,"[11.733433509789462, -11.733433509789466]",11.733433509789462,-11.733433509789464,images/picture_2.png,1,"[-11.733433509789466, -11.733433509789462]",-11.733433509789464,-11.733433509789462,images/picture_3.png,2,"[11.733433509789464, 11.733433509789462]",11.733433509789464,11.733433509789462,0,1,1,0.5548245722527811,1.5548245722527811,1.4451754277472189,3,1,1.3048245722527811,0,5,0,5,0,0,3,3,4,,,,,,,,,,,,,,,,,,,,,200002,204,2023-03-21_16h07.24.523,DMS_BEST_eyetracking_DAN_base_12-36_looped_10minWORKING,2022.2.4,None,
49,UNPRED,12,0.5548245722527811,2,images/picture_3.png,images/picture_1.png,0,"[11.733433509789462, -11.733433509789466]",11.733433509789462,-11.733433509789464,images/picture_2.png,1,"[-11.733433509789466, -11.733433509789462]",-11.733433509789464,-11.733433509789462,images/picture_3.png,2,"[11.733433509789464, 11.733433509789462]",11.733433509789464,11.733433509789462,0,1,1,0.5548245722527811,1.5548245722527811,1.4451754277472189,3,1,1.3048245722527811,0,5,0,5,0,0,3,3,4,,,,,,,0.0034568329574540257,328.9684397500241,328.9684397500241,329.9823307089973,330.28236429195385,330.5016275419621,330.5016275419621,330.5016275419621,331.9490062089171,331.9490062089171,331.9490062089171,331.9490062089171,4.029503208003007,332.9489962089574,200002,204,2023-03-21_16h07.24.523,DMS_BEST_eyetracking_DAN_base_12-36_looped_10minWORKING,2022.2.4,None,
50,UNPRED,12,0.5944499094100191,0,images/picture_1.png,images/picture_1.png,0,"[11.733433509789464, 11.733433509789462]",11.733433509789464,11.733433509789462,images/picture_2.png,1,"[-11.733433509789462, 11.733433509789464]",-11.733433509789462,11.733433509789464,images/picture_3.png,2,"[-11.733433509789466, -11.733433509789462]",-11.733433509789464,-11.733433509789462,0,1,1,0.5944499094100191,1.5944499094100189,1.4055500905899811,3,1,1.3444499094100189,0,5,0,5,0,0,4,4,5,,,,,,,,,,,,,,,,,,,,,200002,204,2023-03-21_16h07.24.523,DMS_BEST_eyetracking_DAN_base_12-36_looped_10minWORKING,2022.2.4,None,
50,UNPRED,12,0.5944499094100191,0,images/picture_1.png,images/picture_1.png,0,"[11.733433509789464, 11.733433509789462]",11.733433509789464,11.733433509789462,images/picture_2.png,1,"[-11.733433509789462, 11.733433509789464]",-11.733433509789462,11.733433509789464,images/picture_3.png,2,"[-11.733433509789466, -11.733433509789462]",-11.733433509789464,-11.733433509789462,0,1,1,0.5944499094100191,1.5944499094100189,1.4055500905899811,3,1,1.3444499094100189,0,5,0,5,0,0,4,4,5,,,,,,,0.0047442500945180655,333.0016675000079,333.0016675000079,334.0151209169999,334.3486454170197,334.5684190839529,334.5684190839529,334.5684190839529,335.98200120893307,335.98200120893307,335.98200120893307,335.98200120893307,4.029549750033766,336.9822443339508,200002,204,2023-03-21_16h07.24.523,DMS_BEST_eyetracking_DAN_base_12-36_looped_10minWORKING,2022.2.4,None,
51,UNPRED,12,0.5627684189482294,2,images/picture_3.png,images/picture_1.png,0,"[11.733433509789464, 11.733433509789462]",11.733433509789464,11.733433509789462,images/picture_2.png,1,"[-11.733433509789466, -11.733433509789462]",-11.733433509789464,-11.733433509789462,images/picture_3.png,2,"[-11.733433509789462, 11.733433509789464]",-11.733433509789462,11.733433509789464,0,1,1,0.5627684189482294,1.5627684189482294,1.4372315810517706,3,1,1.3127684189482294,0,5,0,5,0,0,5,5,6,,,,,,,,,,,,,,,,,,,,,200002,204,2023-03-21_16h07.24.523,DMS_BEST_eyetracking_DAN_base_12-36_looped_10minWORKING,2022.2.4,None,
51,UNPRED,12,0.5627684189482294,2,images/picture_3.png,images/picture_1.png,0,"[11.733433509789464, 11.733433509789462]",11.733433509789464,11.733433509789462,images/picture_2.png,1,"[-11.733433509789466, -11.733433509789462]",-11.733433509789464,-11.733433509789462,images/picture_3.png,2,"[-11.733433509789462, 11.733433509789464]",-11.733433509789462,11.733433509789464,0,1,1,0.5627684189482294,1.5627684189482294,1.4372315810517706,3,1,1.3127684189482294,0,5,0,5,0,0,5,5,6,,,,,,,0.004442041972652078,337.0350029169349,337.0350029169349,338.0489619169384,338.34870137495454,338.582040334004,338.582040334004,338.582040334004,340.0155681249453,340.03493600001093,340.03493600001093,340.03493600001093,4.030597499920987,341.01550683402456,200002,204,2023-03-21_16h07.24.523,DMS_BEST_eyetracking_DAN_base_12-36_looped_10minWORKING,2022.2.4,None,
47,UNPRED,12,0.8060160064909604,0,images/picture_1.png,images/picture_1.png,0,"[-11.733433509789462, 11.733433509789464]",-11.733433509789462,11.733433509789464,images/picture_2.png,1,"[-11.733433509789466, -11.733433509789462]",-11.733433509789464,-11.733433509789462,images/picture_3.png,2,"[11.733433509789464, 11.733433509789462]",11.733433509789464,11.733433509789462,0,1,1,0.8060160064909604,1.8060160064909605,1.1939839935090395,3,1,1.5560160064909605,0,5,0,5,0,0,6,6,2,,,,,,,,,,,,,,,,,,,,,200002,204,2023-03-21_16h07.24.523,DMS_BEST_eyetracking_DAN_base_12-36_looped_10minWORKING,2022.2.4,None,
47,UNPRED,12,0.8060160064909604,0,images/picture_1.png,images/picture_1.png,0,"[-11.733433509789462, 11.733433509789464]",-11.733433509789462,11.733433509789464,images/picture_2.png,1,"[-11.733433509789466, -11.733433509789462]",-11.733433509789464,-11.733433509789462,images/picture_3.png,2,"[11.733433509789464, 11.733433509789462]",11.733433509789464,11.733433509789462,0,1,1,0.8060160064909604,1.8060160064909605,1.1939839935090395,3,1,1.5560160064909605,0,5,0,5,0,0,6,6,2,,,,,,,0.004757332964800298,341.0684696249664,341.0684696249664,342.08236487500835,342.63470937497914,342.8485648339847,342.8485648339847,342.8485648339847,344.04909400001634,344.04909400001634,344.04909400001634,344.04909400001634,4.028763875016011,345.0487561249174,200002,204,2023-03-21_16h07.24.523,DMS_BEST_eyetracking_DAN_base_12-36_looped_10minWORKING,2022.2.4,None,
45,UNPRED,12,0.5545829202164065,1,images/picture_2.png,images/picture_1.png,0,"[-11.733433509789466, -11.733433509789462]",-11.733433509789464,-11.733433509789462,images/picture_2.png,1,"[11.733433509789462, -11.733433509789466]",11.733433509789462,-11.733433509789464,images/picture_3.png,2,"[-11.733433509789462, 11.733433509789464]",-11.733433509789462,11.733433509789464,0,1,1,0.5545829202164065,1.5545829202164063,1.4454170797835937,3,1,1.3045829202164063,0,5,0,5,0,0,7,7,0,,,,,,,,,,,,,,,,,,,,,200002,204,2023-03-21_16h07.24.523,DMS_BEST_eyetracking_DAN_base_12-36_looped_10minWORKING,2022.2.4,None,
45,UNPRED,12,0.5545829202164065,1,images/picture_2.png,images/picture_1.png,0,"[-11.733433509789466, -11.733433509789462]",-11.733433509789464,-11.733433509789462,images/picture_2.png,1,"[11.733433509789462, -11.733433509789466]",11.733433509789462,-11.733433509789464,images/picture_3.png,2,"[-11.733433509789462, 11.733433509789464]",-11.733433509789462,11.733433509789464,0,1,1,0.5545829202164065,1.5545829202164063,1.4454170797835937,3,1,1.3045829202164063,0,5,0,5,0,0,7,7,0,,,,,,,0.0029332080157473683,345.08173383399844,345.08173383399844,346.0819598749513,346.40146137494594,346.63528712501284,346.63528712501284,346.63528712501284,348.0821216669865,348.0821216669865,348.0821216669865,348.0821216669865,3.999442708096467,349.1016362499213,200002,204,2023-03-21_16h07.24.523,DMS_BEST_eyetracking_DAN_base_12-36_looped_10minWORKING,2022.2.4,None,
53,UNPRED,12,0.8894152825225616,0,images/picture_1.png,images/picture_1.png,0,"[11.733433509789462, -11.733433509789466]",11.733433509789462,-11.733433509789464,images/picture_2.png,1,"[-11.733433509789466, -11.733433509789462]",-11.733433509789464,-11.733433509789462,images/picture_3.png,2,"[-11.733433509789462, 11.733433509789464]",-11.733433509789462,11.733433509789464,0,1,1,0.8894152825225616,1.8894152825225616,1.1105847174774384,3,1,1.6394152825225616,0,5,0,5,0,0,8,8,8,,,,,,,,,,,,,,,,,,,,,200002,204,2023-03-21_16h07.24.523,DMS_BEST_eyetracking_DAN_base_12-36_looped_10minWORKING,2022.2.4,None,
53,UNPRED,12,0.8894152825225616,0,images/picture_1.png,images/picture_1.png,0,"[11.733433509789462, -11.733433509789466]",11.733433509789462,-11.733433509789464,images/picture_2.png,1,"[-11.733433509789466, -11.733433509789462]",-11.733433509789464,-11.733433509789462,images/picture_3.png,2,"[-11.733433509789462, 11.733433509789464]",-11.733433509789462,11.733433509789464,0,1,1,0.8894152825225616,1.8894152825225616,1.1105847174774384,3,1,1.6394152825225616,0,5,0,5,0,0,8,8,8,,,,,,,0.004643833031877875,349.1016362499213,349.1016362499213,350.11571908392943,350.74896574998274,350.9687885839958,350.9687885839958,350.9687885839958,352.0822193749482,352.0822193749482,352.0822193749482,352.0822193749482,4.0295682499418035,353.0822910419665,200002,204,2023-03-21_16h07.24.523,DMS_BEST_eyetracking_DAN_base_12-36_looped_10minWORKING,2022.2.4,None,
,,,,,,,,,,,,,,,,,,,,,,,,,,,,,,,5,0,5,0,,,,,,,,,353.1952045420185,365.2185706249438,,,,,,,,,,,,,,,200002,204,2023-03-21_16h07.24.523,DMS_BEST_eyetracking_DAN_base_12-36_looped_10minWORKING,2022.2.4,None,
55,PRED,12,0.7356018774292026,1,images/picture_2.png,images/picture_1.png,0,"[11.733433509789462, -11.733433509789466]",11.733433509789462,-11.733433509789464,images/picture_2.png,1,"[11.733433509789464, 11.733433509789462]",11.733433509789464,11.733433509789462,images/picture_3.png,2,"[-11.733433509789462, 11.733433509789464]",-11.733433509789462,11.733433509789464,0,1,1,0.7356018774292026,1.7356018774292026,1.2643981225707974,3,1,1.4856018774292026,0,6,0,6,0,0,0,0,1,,,,,,,,,,,,,,,,,,,,,200002,204,2023-03-21_16h07.24.523,DMS_BEST_eyetracking_DAN_base_12-36_looped_10minWORKING,2022.2.4,None,
55,PRED,12,0.7356018774292026,1,images/picture_2.png,images/picture_1.png,0,"[11.733433509789462, -11.733433509789466]",11.733433509789462,-11.733433509789464,images/picture_2.png,1,"[11.733433509789464, 11.733433509789462]",11.733433509789464,11.733433509789462,images/picture_3.png,2,"[-11.733433509789462, 11.733433509789464]",-11.733433509789462,11.733433509789464,0,1,1,0.7356018774292026,1.7356018774292026,1.2643981225707974,3,1,1.4856018774292026,0,6,0,6,0,0,0,0,1,,,,,,,0.004737167037092149,365.2185706249438,365.2185706249438,366.21551666699816,366.71558245900087,366.94856633397285,366.94856633397285,366.94856633397285,368.2156062920112,368.2156062920112,368.2156062920112,368.2156062920112,3.995587792014703,369.235445166938,200002,204,2023-03-21_16h07.24.523,DMS_BEST_eyetracking_DAN_base_12-36_looped_10minWORKING,2022.2.4,None,
62,PRED,12,1.0149577671643222,1,images/picture_2.png,images/picture_1.png,0,"[11.733433509789464, 11.733433509789462]",11.733433509789464,11.733433509789462,images/picture_2.png,1,"[-11.733433509789466, -11.733433509789462]",-11.733433509789464,-11.733433509789462,images/picture_3.png,2,"[11.733433509789462, -11.733433509789466]",11.733433509789462,-11.733433509789464,0,1,1,1.0149577671643222,2.0149577671643217,0.9850422328356778,3,1,1.7649577671643222,0,6,0,6,0,0,1,1,8,,,,,,,,,,,,,,,,,,,,,200002,204,2023-03-21_16h07.24.523,DMS_BEST_eyetracking_DAN_base_12-36_looped_10minWORKING,2022.2.4,None,
62,PRED,12,1.0149577671643222,1,images/picture_2.png,images/picture_1.png,0,"[11.733433509789464, 11.733433509789462]",11.733433509789464,11.733433509789462,images/picture_2.png,1,"[-11.733433509789466, -11.733433509789462]",-11.733433509789464,-11.733433509789462,images/picture_3.png,2,"[11.733433509789462, -11.733433509789466]",11.733433509789462,-11.733433509789464,0,1,1,1.0149577671643222,2.0149577671643217,0.9850422328356778,3,1,1.7649577671643222,0,6,0,6,0,0,1,1,8,,,,,,,0.004994958057068288,369.235445166938,369.235445166938,370.24881870893296,371.0154271669453,371.2352427919395,371.2352427919395,371.2352427919395,372.2155801249901,372.23492916696705,372.23492916696705,372.23492916696705,4.029460458084941,373.21562112495303,200002,204,2023-03-21_16h07.24.523,DMS_BEST_eyetracking_DAN_base_12-36_looped_10minWORKING,2022.2.4,None,
57,PRED,12,1.0811872174637784,1,images/picture_2.png,images/picture_1.png,0,"[-11.733433509789466, -11.733433509789462]",-11.733433509789464,-11.733433509789462,images/picture_2.png,1,"[11.733433509789464, 11.733433509789462]",11.733433509789464,11.733433509789462,images/picture_3.png,2,"[-11.733433509789462, 11.733433509789464]",-11.733433509789462,11.733433509789464,0,1,1,1.0811872174637784,2.0811872174637784,0.9188127825362216,3,1,1.8311872174637784,0,6,0,6,0,0,2,2,3,,,,,,,,,,,,,,,,,,,,,200002,204,2023-03-21_16h07.24.523,DMS_BEST_eyetracking_DAN_base_12-36_looped_10minWORKING,2022.2.4,None,
57,PRED,12,1.0811872174637784,1,images/picture_2.png,images/picture_1.png,0,"[-11.733433509789466, -11.733433509789462]",-11.733433509789464,-11.733433509789462,images/picture_2.png,1,"[11.733433509789464, 11.733433509789462]",11.733433509789464,11.733433509789462,images/picture_3.png,2,"[-11.733433509789462, 11.733433509789464]",-11.733433509789462,11.733433509789464,0,1,1,1.0811872174637784,2.0811872174637784,0.9188127825362216,3,1,1.8311872174637784,0,6,0,6,0,0,2,2,3,,,,,,,0.004975000047124922,373.26811020902824,373.26811020902824,374.2820594169898,375.1013805839466,375.3353647090262,375.3353647090262,375.3353647090262,376.2486424589297,376.26751679193694,376.26751679193694,376.26751679193694,4.030198625056073,377.24877449998166,200002,204,2023-03-21_16h07.24.523,DMS_BEST_eyetracking_DAN_base_12-36_looped_10minWORKING,2022.2.4,None,
54,PRED,12,0.7237463524891875,1,images/picture_2.png,images/picture_1.png,0,"[11.733433509789462, -11.733433509789466]",11.733433509789462,-11.733433509789464,images/picture_2.png,1,"[11.733433509789464, 11.733433509789462]",11.733433509789464,11.733433509789462,images/picture_3.png,2,"[-11.733433509789462, 11.733433509789464]",-11.733433509789462,11.733433509789464,0,1,1,0.7237463524891875,1.7237463524891874,1.2762536475108126,3,1,1.4737463524891874,0,6,0,6,0,0,3,3,0,,,,,,,,,,,,,,,,,,,,,200002,204,2023-03-21_16h07.24.523,DMS_BEST_eyetracking_DAN_base_12-36_looped_10minWORKING,2022.2.4,None,
54,PRED,12,0.7237463524891875,1,images/picture_2.png,images/picture_1.png,0,"[11.733433509789462, -11.733433509789466]",11.733433509789462,-11.733433509789464,images/picture_2.png,1,"[11.733433509789464, 11.733433509789462]",11.733433509789464,11.733433509789462,images/picture_3.png,2,"[-11.733433509789462, 11.733433509789464]",-11.733433509789462,11.733433509789464,0,1,1,0.7237463524891875,1.7237463524891874,1.2762536475108126,3,1,1.4737463524891874,0,6,0,6,0,0,3,3,0,,,,,,,0.004941874998621643,377.3013313750271,377.3013313750271,378.3153474589344,378.7822037920123,379.0013378339354,379.0013378339354,379.0013378339354,380.2821779589867,380.2821779589867,380.2821779589867,380.2821779589867,4.029680042061955,381.28224024991505,200002,204,2023-03-21_16h07.24.523,DMS_BEST_eyetracking_DAN_base_12-36_looped_10minWORKING,2022.2.4,None,
61,PRED,12,0.7092033380887575,1,images/picture_2.png,images/picture_1.png,0,"[-11.733433509789466, -11.733433509789462]",-11.733433509789464,-11.733433509789462,images/picture_2.png,1,"[-11.733433509789462, 11.733433509789464]",-11.733433509789462,11.733433509789464,images/picture_3.png,2,"[11.733433509789462, -11.733433509789466]",11.733433509789462,-11.733433509789464,0,1,1,0.7092033380887575,1.7092033380887577,1.2907966619112423,3,1,1.4592033380887577,0,6,0,6,0,0,4,4,7,,,,,,,,,,,,,,,,,,,,,200002,204,2023-03-21_16h07.24.523,DMS_BEST_eyetracking_DAN_base_12-36_looped_10minWORKING,2022.2.4,None,
61,PRED,12,0.7092033380887575,1,images/picture_2.png,images/picture_1.png,0,"[-11.733433509789466, -11.733433509789462]",-11.733433509789464,-11.733433509789462,images/picture_2.png,1,"[-11.733433509789462, 11.733433509789464]",-11.733433509789462,11.733433509789464,images/picture_3.png,2,"[11.733433509789462, -11.733433509789466]",11.733433509789462,-11.733433509789464,0,1,1,0.7092033380887575,1.7092033380887577,1.2907966619112423,3,1,1.4592033380887577,0,6,0,6,0,0,4,4,7,,,,,,,0.00482999999076128,381.33539891697,381.33539891697,382.3487892500125,382.80153154197615,383.01529083400965,383.01529083400965,383.01529083400965,384.3156625420088,384.3156625420088,384.3156625420088,384.3156625420088,4.030306792003103,385.31561149994377,200002,204,2023-03-21_16h07.24.523,DMS_BEST_eyetracking_DAN_base_12-36_looped_10minWORKING,2022.2.4,None,
56,PRED,12,0.7073272352942506,1,images/picture_2.png,images/picture_1.png,0,"[11.733433509789464, 11.733433509789462]",11.733433509789464,11.733433509789462,images/picture_2.png,1,"[-11.733433509789466, -11.733433509789462]",-11.733433509789464,-11.733433509789462,images/picture_3.png,2,"[11.733433509789462, -11.733433509789466]",11.733433509789462,-11.733433509789464,0,1,1,0.7073272352942506,1.7073272352942506,1.2926727647057494,3,1,1.4573272352942506,0,6,0,6,0,0,5,5,2,,,,,,,,,,,,,,,,,,,,,200002,204,2023-03-21_16h07.24.523,DMS_BEST_eyetracking_DAN_base_12-36_looped_10minWORKING,2022.2.4,None,
56,PRED,12,0.7073272352942506,1,images/picture_2.png,images/picture_1.png,0,"[11.733433509789464, 11.733433509789462]",11.733433509789464,11.733433509789462,images/picture_2.png,1,"[-11.733433509789466, -11.733433509789462]",-11.733433509789464,-11.733433509789462,images/picture_3.png,2,"[11.733433509789462, -11.733433509789466]",11.733433509789462,-11.733433509789464,0,1,1,0.7073272352942506,1.7073272352942506,1.2926727647057494,3,1,1.4573272352942506,0,6,0,6,0,0,5,5,2,,,,,,,0.004948958056047559,385.36821862496436,385.36821862496436,386.3816717090085,386.83371625002474,387.0486631669337,387.0486631669337,387.0486631669337,388.34856716694776,388.34856716694776,388.34856716694776,388.34856716694776,4.029705708031543,389.34853033395484,200002,204,2023-03-21_16h07.24.523,DMS_BEST_eyetracking_DAN_base_12-36_looped_10minWORKING,2022.2.4,None,
58,PRED,12,0.6489364913442266,1,images/picture_2.png,images/picture_1.png,0,"[-11.733433509789462, 11.733433509789464]",-11.733433509789462,11.733433509789464,images/picture_2.png,1,"[-11.733433509789466, -11.733433509789462]",-11.733433509789464,-11.733433509789462,images/picture_3.png,2,"[11.733433509789464, 11.733433509789462]",11.733433509789464,11.733433509789462,0,1,1,0.6489364913442266,1.6489364913442266,1.3510635086557734,3,1,1.3989364913442266,0,6,0,6,0,0,6,6,4,,,,,,,,,,,,,,,,,,,,,200002,204,2023-03-21_16h07.24.523,DMS_BEST_eyetracking_DAN_base_12-36_looped_10minWORKING,2022.2.4,None,
58,PRED,12,0.6489364913442266,1,images/picture_2.png,images/picture_1.png,0,"[-11.733433509789462, 11.733433509789464]",-11.733433509789462,11.733433509789464,images/picture_2.png,1,"[-11.733433509789466, -11.733433509789462]",-11.733433509789464,-11.733433509789462,images/picture_3.png,2,"[11.733433509789464, 11.733433509789462]",11.733433509789464,11.733433509789462,0,1,1,0.6489364913442266,1.6489364913442266,1.3510635086557734,3,1,1.3989364913442266,0,6,0,6,0,0,6,6,4,,,,,,,0.0041507079731673,389.40128679201007,389.40128679201007,390.4153284589993,390.8156096249586,391.03534499998204,391.03534499998204,391.03534499998204,392.38180199998897,392.4010839589173,392.4010839589173,392.4010839589173,4.028838749974966,393.3821854169946,200002,204,2023-03-21_16h07.24.523,DMS_BEST_eyetracking_DAN_base_12-36_looped_10minWORKING,2022.2.4,None,
59,PRED,12,0.97558489430462,1,images/picture_2.png,images/picture_1.png,0,"[11.733433509789462, -11.733433509789466]",11.733433509789462,-11.733433509789464,images/picture_2.png,1,"[11.733433509789464, 11.733433509789462]",11.733433509789464,11.733433509789462,images/picture_3.png,2,"[-11.733433509789466, -11.733433509789462]",-11.733433509789464,-11.733433509789462,0,1,1,0.97558489430462,1.97558489430462,1.02441510569538,3,1,1.72558489430462,0,6,0,6,0,0,7,7,5,,,,,,,,,,,,,,,,,,,,,200002,204,2023-03-21_16h07.24.523,DMS_BEST_eyetracking_DAN_base_12-36_looped_10minWORKING,2022.2.4,None,
59,PRED,12,0.97558489430462,1,images/picture_2.png,images/picture_1.png,0,"[11.733433509789462, -11.733433509789466]",11.733433509789462,-11.733433509789464,images/picture_2.png,1,"[11.733433509789464, 11.733433509789462]",11.733433509789464,11.733433509789462,images/picture_3.png,2,"[-11.733433509789466, -11.733433509789462]",-11.733433509789464,-11.733433509789462,0,1,1,0.97558489430462,1.97558489430462,1.02441510569538,3,1,1.72558489430462,0,6,0,6,0,0,7,7,5,,,,,,,0.0048314169980585575,393.434741291916,393.434741291916,394.4488501669839,395.168069834006,395.3817029169295,395.3817029169295,395.3817029169295,396.4153590420028,396.4153590420028,396.4153590420028,396.4153590420028,4.030128499958664,397.4154082919704,200002,204,2023-03-21_16h07.24.523,DMS_BEST_eyetracking_DAN_base_12-36_looped_10minWORKING,2022.2.4,None,
60,PRED,12,0.9120791995957888,1,images/picture_2.png,images/picture_1.png,0,"[-11.733433509789462, 11.733433509789464]",-11.733433509789462,11.733433509789464,images/picture_2.png,1,"[11.733433509789464, 11.733433509789462]",11.733433509789464,11.733433509789462,images/picture_3.png,2,"[-11.733433509789466, -11.733433509789462]",-11.733433509789464,-11.733433509789462,0,1,1,0.9120791995957888,1.9120791995957889,1.0879208004042111,3,1,1.6620791995957889,0,6,0,6,0,0,8,8,6,,,,,,,,,,,,,,,,,,,,,200002,204,2023-03-21_16h07.24.523,DMS_BEST_eyetracking_DAN_base_12-36_looped_10minWORKING,2022.2.4,None,
60,PRED,12,0.9120791995957888,1,images/picture_2.png,images/picture_1.png,0,"[-11.733433509789462, 11.733433509789464]",-11.733433509789462,11.733433509789464,images/picture_2.png,1,"[11.733433509789464, 11.733433509789462]",11.733433509789464,11.733433509789462,images/picture_3.png,2,"[-11.733433509789466, -11.733433509789462]",-11.733433509789464,-11.733433509789462,0,1,1,0.9120791995957888,1.9120791995957889,1.0879208004042111,3,1,1.6620791995957889,0,6,0,6,0,0,8,8,6,,,,,,,0.004983708029612899,397.46829591691494,397.46829591691494,398.4819833749207,399.13432774995454,399.34864337497856,399.34864337497856,399.34864337497856,400.4489722090075,400.4489722090075,400.4489722090075,400.4489722090075,4.02844275010284,401.4488545419881,200002,204,2023-03-21_16h07.24.523,DMS_BEST_eyetracking_DAN_base_12-36_looped_10minWORKING,2022.2.4,None,
,,,,,,,,,,,,,,,,,,,,,,,,,,,,,,,6,0,6,0,,,,,,,,,401.5372360839974,413.5682820419315,,,,,,,,,,,,,,,200002,204,2023-03-21_16h07.24.523,DMS_BEST_eyetracking_DAN_base_12-36_looped_10minWORKING,2022.2.4,None,
64,UNPRED,12,1.0702411644384655,2,images/picture_3.png,images/picture_1.png,0,"[11.733433509789464, 11.733433509789462]",11.733433509789464,11.733433509789462,images/picture_2.png,1,"[-11.733433509789462, 11.733433509789464]",-11.733433509789462,11.733433509789464,images/picture_3.png,2,"[-11.733433509789466, -11.733433509789462]",-11.733433509789464,-11.733433509789462,0,1,1,1.0702411644384655,2.0702411644384657,0.9297588355615344,3,1,1.8202411644384655,0,7,0,7,0,0,0,0,1,,,,,,,,,,,,,,,,,,,,,200002,204,2023-03-21_16h07.24.523,DMS_BEST_eyetracking_DAN_base_12-36_looped_10minWORKING,2022.2.4,None,
64,UNPRED,12,1.0702411644384655,2,images/picture_3.png,images/picture_1.png,0,"[11.733433509789464, 11.733433509789462]",11.733433509789464,11.733433509789462,images/picture_2.png,1,"[-11.733433509789462, 11.733433509789464]",-11.733433509789462,11.733433509789464,images/picture_3.png,2,"[-11.733433509789466, -11.733433509789462]",-11.733433509789464,-11.733433509789462,0,1,1,1.0702411644384655,2.0702411644384657,0.9297588355615344,3,1,1.8202411644384655,0,7,0,7,0,0,0,0,1,,,,,,,0.0028691249899566174,413.5682820419315,413.5682820419315,414.582158959005,415.40149937500246,415.6344673749991,415.6344673749991,415.6344673749991,416.56721091701183,416.56721091701183,416.56721091701183,416.56721091701183,4.010214916896075,417.58281187491957,200002,204,2023-03-21_16h07.24.523,DMS_BEST_eyetracking_DAN_base_12-36_looped_10minWORKING,2022.2.4,None,
63,UNPRED,12,1.0481236889112,1,images/picture_2.png,images/picture_1.png,0,"[-11.733433509789462, 11.733433509789464]",-11.733433509789462,11.733433509789464,images/picture_2.png,1,"[11.733433509789464, 11.733433509789462]",11.733433509789464,11.733433509789462,images/picture_3.png,2,"[11.733433509789462, -11.733433509789466]",11.733433509789462,-11.733433509789464,0,1,1,1.0481236889112,2.0481236889112,0.9518763110888,3,1,1.7981236889111998,0,7,0,7,0,0,1,1,0,,,,,,,,,,,,,,,,,,,,,200002,204,2023-03-21_16h07.24.523,DMS_BEST_eyetracking_DAN_base_12-36_looped_10minWORKING,2022.2.4,None,
63,UNPRED,12,1.0481236889112,1,images/picture_2.png,images/picture_1.png,0,"[-11.733433509789462, 11.733433509789464]",-11.733433509789462,11.733433509789464,images/picture_2.png,1,"[11.733433509789464, 11.733433509789462]",11.733433509789464,11.733433509789462,images/picture_3.png,2,"[11.733433509789462, -11.733433509789466]",11.733433509789462,-11.733433509789464,0,1,1,1.0481236889112,2.0481236889112,0.9518763110888,3,1,1.7981236889111998,0,7,0,7,0,0,1,1,0,,,,,,,0.005912458058446646,417.58281187491957,417.58281187491957,418.5821536249714,419.3817406250164,419.6152040839661,419.6152040839661,419.6152040839661,420.58209520892706,420.58209520892706,420.58209520892706,420.58209520892706,3.9979410000378266,421.60176258394495,200002,204,2023-03-21_16h07.24.523,DMS_BEST_eyetracking_DAN_base_12-36_looped_10minWORKING,2022.2.4,None,
66,UNPRED,12,0.9018047848595518,0,images/picture_1.png,images/picture_1.png,0,"[-11.733433509789462, 11.733433509789464]",-11.733433509789462,11.733433509789464,images/picture_2.png,1,"[11.733433509789464, 11.733433509789462]",11.733433509789464,11.733433509789462,images/picture_3.png,2,"[11.733433509789462, -11.733433509789466]",11.733433509789462,-11.733433509789464,0,1,1,0.9018047848595518,1.901804784859552,1.0981952151404482,3,1,1.6518047848595518,0,7,0,7,0,0,2,2,3,,,,,,,,,,,,,,,,,,,,,200002,204,2023-03-21_16h07.24.523,DMS_BEST_eyetracking_DAN_base_12-36_looped_10minWORKING,2022.2.4,None,
66,UNPRED,12,0.9018047848595518,0,images/picture_1.png,images/picture_1.png,0,"[-11.733433509789462, 11.733433509789464]",-11.733433509789462,11.733433509789464,images/picture_2.png,1,"[11.733433509789464, 11.733433509789462]",11.733433509789464,11.733433509789462,images/picture_3.png,2,"[11.733433509789462, -11.733433509789466]",11.733433509789462,-11.733433509789464,0,1,1,0.9018047848595518,1.901804784859552,1.0981952151404482,3,1,1.6518047848595518,0,7,0,7,0,0,2,2,3,,,,,,,0.005939666996710002,421.60176258394495,421.60176258394495,422.6154106250033,423.26816812495235,423.48186354199424,423.48186354199424,423.48186354199424,424.582250833977,424.582250833977,424.582250833977,424.582250833977,4.0300829170737416,425.58211866696365,200002,204,2023-03-21_16h07.24.523,DMS_BEST_eyetracking_DAN_base_12-36_looped_10minWORKING,2022.2.4,None,
71,UNPRED,12,0.5680693483897081,0,images/picture_1.png,images/picture_1.png,0,"[-11.733433509789466, -11.733433509789462]",-11.733433509789464,-11.733433509789462,images/picture_2.png,1,"[11.733433509789464, 11.733433509789462]",11.733433509789464,11.733433509789462,images/picture_3.png,2,"[-11.733433509789462, 11.733433509789464]",-11.733433509789462,11.733433509789464,0,1,1,0.5680693483897081,1.568069348389708,1.431930651610292,3,1,1.318069348389708,0,7,0,7,0,0,3,3,8,,,,,,,,,,,,,,,,,,,,,200002,204,2023-03-21_16h07.24.523,DMS_BEST_eyetracking_DAN_base_12-36_looped_10minWORKING,2022.2.4,None,
71,UNPRED,12,0.5680693483897081,0,images/picture_1.png,images/picture_1.png,0,"[-11.733433509789466, -11.733433509789462]",-11.733433509789464,-11.733433509789462,images/picture_2.png,1,"[11.733433509789464, 11.733433509789462]",11.733433509789464,11.733433509789462,images/picture_3.png,2,"[-11.733433509789462, 11.733433509789464]",-11.733433509789462,11.733433509789464,0,1,1,0.5680693483897081,1.568069348389708,1.431930651610292,3,1,1.318069348389708,0,7,0,7,0,0,3,3,8,,,,,,,0.003312624990940094,425.6166319589829,425.6166319589829,426.61563904199284,426.9488439169945,427.18173149996437,427.18173149996437,427.18173149996437,428.6154702089261,428.6154702089261,428.6154702089261,428.6154702089261,3.9965859580552205,429.63452004198916,200002,204,2023-03-21_16h07.24.523,DMS_BEST_eyetracking_DAN_base_12-36_looped_10minWORKING,2022.2.4,None,
