trial_count,blockType,blockNum,delay_time,stimImage_i,stimImage,responseImage1,responseImage1_i,responseImage1_pos,responseImage1_X,responseImage1_Y,responseImage2,responseImage2_i,responseImage2_pos,responseImage2_X,responseImage2_Y,responseImage3,responseImage3_i,responseImage3_pos,responseImage3_X,responseImage3_Y,cue_onset,cue_dur,delay_onset,delay_dur,resp_onset,resp_dur,rest_onset,rest_dur,circle_dur,circle_onset,total_dur,cross_onset,cross_dur,delay_resp_period,blocks.thisRepN,blocks.thisTrialN,blocks.thisN,blocks.thisIndex,trials.thisRepN,trials.thisTrialN,trials.thisN,trials.thisIndex,key_resp.started,text.started,key_resp.keys,key_resp.rt,text_2.started,text_2.stopped,sample.started,Delay.started,sample.stopped,Delay.stopped,Response_1.started,Response_2.started,Response_3.started,Response_1.stopped,Response_2.stopped,Response_3.stopped,polygon.started,polygon.stopped,participant,session,date,expName,psychopyVersion,frameRate,
,,,,,,,,,,,,,,,,,,,,,,,,,,,,,,,,,,,,,,,,,,,68.7503650409999,68.7503650409999,t,84.84664975000487,,,,,,,,,,,,,,,200006,001,2023-04-07_10h37.27.736,DMS_et_12-36,2022.2.4,None,
8,PRED,12,0.8548046541020287,2,images/picture_3.png,images/picture_1.png,0,"[11.733433509789464, 11.733433509789462]",11.733433509789464,11.733433509789462,images/picture_2.png,1,"[-11.733433509789466, -11.733433509789462]",-11.733433509789464,-11.733433509789462,images/picture_3.png,2,"[11.733433509789462, -11.733433509789466]",11.733433509789462,-11.733433509789464,0,1,1,0.8548046541020287,1.8548046541020289,1.1451953458979711,3.0,1,1.6048046541020289,0,4.0,3.0,1,2,0,0,0,0,0,0,0,8,,,,,154.1143200000006,166.1581142080031,166.1581142080031,166.1581142080031,167.15617262500018,167.77576450000197,167.98948162500164,167.98948162500164,167.98948162500164,169.14144350000424,169.14144350000424,169.14144350000424,169.14144350000424,170.17490933299996,200006,001,2023-04-07_10h37.27.736,DMS_et_12-36,2022.2.4,None,
0,PRED,12,0.8548046541020287,2,images/picture_3.png,images/picture_1.png,0,"[11.733433509789464, 11.733433509789462]",11.733433509789464,11.733433509789462,images/picture_2.png,1,"[-11.733433509789466, -11.733433509789462]",-11.733433509789464,-11.733433509789462,images/picture_3.png,2,"[11.733433509789462, -11.733433509789466]",11.733433509789462,-11.733433509789464,0,1,1,0.8548046541020287,1.8548046541020289,1.1451953458979711,3.0,1,1.6048046541020289,0,4.0,3.0,1,2,0,0,0,0,0,1,1,0,,,,,,,170.17490933299996,170.17490933299996,171.1895017909992,171.78955050000513,172.00893737500155,172.00893737500155,172.00893737500155,173.1562088330029,173.1562088330029,173.1562088330029,173.1562088330029,174.17455395800062,200006,001,2023-04-07_10h37.27.736,DMS_et_12-36,2022.2.4,None,
2,PRED,12,0.8548046541020287,2,images/picture_3.png,images/picture_1.png,0,"[11.733433509789462, -11.733433509789466]",11.733433509789462,-11.733433509789464,images/picture_2.png,1,"[11.733433509789464, 11.733433509789462]",11.733433509789464,11.733433509789462,images/picture_3.png,2,"[-11.733433509789466, -11.733433509789462]",-11.733433509789464,-11.733433509789462,0,1,1,0.8548046541020287,1.8548046541020289,1.1451953458979711,3.0,1,1.6048046541020289,0,4.0,3.0,1,2,0,0,0,0,0,2,2,2,,,,,,,174.17455395800062,174.17455395800062,175.21288166600425,175.78964354100026,176.0089231660022,176.0089231660022,176.0089231660022,177.15624679100438,177.15624679100438,177.15624679100438,177.15624679100438,178.17469425000309,200006,001,2023-04-07_10h37.27.736,DMS_et_12-36,2022.2.4,None,
7,PRED,12,0.8548046541020287,2,images/picture_3.png,images/picture_1.png,0,"[11.733433509789462, -11.733433509789466]",11.733433509789462,-11.733433509789464,images/picture_2.png,1,"[11.733433509789464, 11.733433509789462]",11.733433509789464,11.733433509789462,images/picture_3.png,2,"[-11.733433509789466, -11.733433509789462]",-11.733433509789464,-11.733433509789462,0,1,1,0.8548046541020287,1.8548046541020289,1.1451953458979711,3.0,1,1.6048046541020289,0,4.0,3.0,1,2,0,0,0,0,0,3,3,7,,,,,,,178.17469425000309,178.17469425000309,179.18922129100247,179.78933762499946,180.00878562500293,180.00878562500293,180.00878562500293,181.15619641599915,181.15619641599915,181.15619641599915,181.15619641599915,182.17476075000013,200006,001,2023-04-07_10h37.27.736,DMS_et_12-36,2022.2.4,None,
5,PRED,12,0.8548046541020287,2,images/picture_3.png,images/picture_1.png,0,"[-11.733433509789462, 11.733433509789464]",-11.733433509789462,11.733433509789464,images/picture_2.png,1,"[-11.733433509789466, -11.733433509789462]",-11.733433509789464,-11.733433509789462,images/picture_3.png,2,"[11.733433509789464, 11.733433509789462]",11.733433509789464,11.733433509789462,0,1,1,0.8548046541020287,1.8548046541020289,1.1451953458979711,3.0,1,1.6048046541020289,0,4.0,3.0,1,2,0,0,0,0,0,4,4,5,,,,,,,182.17476075000013,182.17476075000013,183.1895802910003,183.7897098750036,184.00847154100484,184.00847154100484,184.00847154100484,185.15625079100573,185.15625079100573,185.15625079100573,185.15625079100573,186.17531345799944,200006,001,2023-04-07_10h37.27.736,DMS_et_12-36,2022.2.4,None,
6,PRED,12,0.8548046541020287,2,images/picture_3.png,images/picture_1.png,0,"[-11.733433509789462, 11.733433509789464]",-11.733433509789462,11.733433509789464,images/picture_2.png,1,"[11.733433509789462, -11.733433509789466]",11.733433509789462,-11.733433509789464,images/picture_3.png,2,"[11.733433509789464, 11.733433509789462]",11.733433509789464,11.733433509789462,0,1,1,0.8548046541020287,1.8548046541020289,1.1451953458979711,3.0,1,1.6048046541020289,0,4.0,3.0,1,2,0,0,0,0,0,5,5,6,,,,,,,186.17531345799944,186.17531345799944,187.18949670800066,187.78954166600306,188.0094474580037,188.0094474580037,188.0094474580037,189.1560615000053,189.1560615000053,189.1560615000053,189.1560615000053,190.1754105,200006,001,2023-04-07_10h37.27.736,DMS_et_12-36,2022.2.4,None,
3,PRED,12,0.8548046541020287,2,images/picture_3.png,images/picture_1.png,0,"[11.733433509789464, 11.733433509789462]",11.733433509789464,11.733433509789462,images/picture_2.png,1,"[11.733433509789462, -11.733433509789466]",11.733433509789462,-11.733433509789464,images/picture_3.png,2,"[-11.733433509789466, -11.733433509789462]",-11.733433509789464,-11.733433509789462,0,1,1,0.8548046541020287,1.8548046541020289,1.1451953458979711,3.0,1,1.6048046541020289,0,4.0,3.0,1,2,0,0,0,0,0,6,6,3,,,,,,,190.1754105,190.1754105,191.1897333750021,191.7897139580018,192.00875091600028,192.00875091600028,192.00875091600028,193.15633266600344,193.15633266600344,193.15633266600344,193.15633266600344,194.17608083300001,200006,001,2023-04-07_10h37.27.736,DMS_et_12-36,2022.2.4,None,
1,PRED,12,0.8548046541020287,2,images/picture_3.png,images/picture_1.png,0,"[11.733433509789462, -11.733433509789466]",11.733433509789462,-11.733433509789464,images/picture_2.png,1,"[-11.733433509789462, 11.733433509789464]",-11.733433509789462,11.733433509789464,images/picture_3.png,2,"[11.733433509789464, 11.733433509789462]",11.733433509789464,11.733433509789462,0,1,1,0.8548046541020287,1.8548046541020289,1.1451953458979711,3.0,1,1.6048046541020289,0,4.0,3.0,1,2,0,0,0,0,0,7,7,1,,,,,,,194.17608083300001,194.17608083300001,195.1897595410046,195.78971470800025,196.00891412499914,196.00891412499914,196.00891412499914,197.15631454100367,197.15631454100367,197.15631454100367,197.15631454100367,198.17521004100126,200006,001,2023-04-07_10h37.27.736,DMS_et_12-36,2022.2.4,None,
4,PRED,12,0.8548046541020287,2,images/picture_3.png,images/picture_1.png,0,"[-11.733433509789462, 11.733433509789464]",-11.733433509789462,11.733433509789464,images/picture_2.png,1,"[11.733433509789462, -11.733433509789466]",11.733433509789462,-11.733433509789464,images/picture_3.png,2,"[11.733433509789464, 11.733433509789462]",11.733433509789464,11.733433509789462,0,1,1,0.8548046541020287,1.8548046541020289,1.1451953458979711,3.0,1,1.6048046541020289,0,4.0,3.0,1,2,0,0,0,0,0,8,8,4,,,,,,,198.17521004100126,198.17521004100126,199.18948145800096,199.7894637080026,200.00821837500553,200.00821837500553,200.00821837500553,201.15644387499924,201.15644387499924,201.15644387499924,201.15644387499924,202.1789660409995,200006,001,2023-04-07_10h37.27.736,DMS_et_12-36,2022.2.4,None,
,,,,,,,,,,,,,,,,,,,,,,,,,,,,,,,,,,,0,0,0,0,,,,,,,,,202.1789660409995,214.2082456249991,,,,,,,,,,,,,200006,001,2023-04-07_10h37.27.736,DMS_et_12-36,2022.2.4,None,
15,UNPRED,12,0.8548046541020287,0,images/picture_1.png,images/picture_1.png,0,"[-11.733433509789462, 11.733433509789464]",-11.733433509789462,11.733433509789464,images/picture_2.png,1,"[11.733433509789464, 11.733433509789462]",11.733433509789464,11.733433509789462,images/picture_3.png,2,"[11.733433509789462, -11.733433509789466]",11.733433509789462,-11.733433509789464,0,1,1,0.8548046541020287,1.8548046541020289,1.1451953458979711,3.0,1,1.6048046541020289,0,4.0,3.0,1,2,1,0,1,0,0,0,0,6,,,,,,,214.2082456249991,214.2082456249991,215.22323391600366,215.82304729099997,216.05647191600292,216.05647191600292,216.05647191600292,217.20899762499903,217.20899762499903,217.20899762499903,217.20899762499903,218.2225252499993,200006,001,2023-04-07_10h37.27.736,DMS_et_12-36,2022.2.4,None,
11,UNPRED,12,0.8548046541020287,0,images/picture_1.png,images/picture_1.png,0,"[-11.733433509789466, -11.733433509789462]",-11.733433509789464,-11.733433509789462,images/picture_2.png,1,"[-11.733433509789462, 11.733433509789464]",-11.733433509789462,11.733433509789464,images/picture_3.png,2,"[11.733433509789464, 11.733433509789462]",11.733433509789464,11.733433509789462,0,1,1,0.8548046541020287,1.8548046541020289,1.1451953458979711,3.0,1,1.6048046541020289,0,4.0,3.0,1,2,1,0,1,0,0,1,1,2,,,,,,,218.2225252499993,218.2225252499993,219.22323025000514,219.841579208005,220.07499179099977,220.07499179099977,220.07499179099977,221.22322687500127,221.22322687500127,221.22322687500127,221.22322687500127,222.24155433299893,200006,001,2023-04-07_10h37.27.736,DMS_et_12-36,2022.2.4,None,
9,UNPRED,12,0.8548046541020287,2,images/picture_3.png,images/picture_1.png,0,"[-11.733433509789462, 11.733433509789464]",-11.733433509789462,11.733433509789464,images/picture_2.png,1,"[11.733433509789462, -11.733433509789466]",11.733433509789462,-11.733433509789464,images/picture_3.png,2,"[11.733433509789464, 11.733433509789462]",11.733433509789464,11.733433509789462,0,1,1,0.8548046541020287,1.8548046541020289,1.1451953458979711,3.0,1,1.6048046541020289,0,4.0,3.0,1,2,1,0,1,0,0,2,2,0,,,,,,,222.24155433299893,222.24155433299893,223.25652895800158,223.8562966660029,224.07566045800195,224.07566045800195,224.07566045800195,225.223223083005,225.223223083005,225.223223083005,225.223223083005,226.22380300000077,200006,001,2023-04-07_10h37.27.736,DMS_et_12-36,2022.2.4,None,
10,UNPRED,12,0.8548046541020287,1,images/picture_2.png,images/picture_1.png,0,"[11.733433509789464, 11.733433509789462]",11.733433509789464,11.733433509789462,images/picture_2.png,1,"[-11.733433509789462, 11.733433509789464]",-11.733433509789462,11.733433509789464,images/picture_3.png,2,"[-11.733433509789466, -11.733433509789462]",-11.733433509789464,-11.733433509789462,0,1,1,0.8548046541020287,1.8548046541020289,1.1451953458979711,3.0,1,1.6048046541020289,0,4.0,3.0,1,2,1,0,1,0,0,3,3,1,,,,,,,226.22380300000077,226.22380300000077,227.2232178750055,227.84235987500142,228.07584104100533,228.07584104100533,228.07584104100533,229.22318979100237,229.22318979100237,229.22318979100237,229.22318979100237,230.22281216600095,200006,001,2023-04-07_10h37.27.736,DMS_et_12-36,2022.2.4,None,
13,UNPRED,12,0.8548046541020287,1,images/picture_2.png,images/picture_1.png,0,"[11.733433509789464, 11.733433509789462]",11.733433509789464,11.733433509789462,images/picture_2.png,1,"[11.733433509789462, -11.733433509789466]",11.733433509789462,-11.733433509789464,images/picture_3.png,2,"[-11.733433509789462, 11.733433509789464]",-11.733433509789462,11.733433509789464,0,1,1,0.8548046541020287,1.8548046541020289,1.1451953458979711,3.0,1,1.6048046541020289,0,4.0,3.0,1,2,1,0,1,0,0,4,4,4,,,,,,,230.22281216600095,230.22281216600095,231.22326233300555,231.8426462080024,232.07563479099917,232.07563479099917,232.07563479099917,233.22325587500382,233.22325587500382,233.22325587500382,233.22325587500382,234.2417812499989,200006,001,2023-04-07_10h37.27.736,DMS_et_12-36,2022.2.4,None,
12,UNPRED,12,0.8548046541020287,2,images/picture_3.png,images/picture_1.png,0,"[11.733433509789462, -11.733433509789466]",11.733433509789462,-11.733433509789464,images/picture_2.png,1,"[-11.733433509789462, 11.733433509789464]",-11.733433509789462,11.733433509789464,images/picture_3.png,2,"[-11.733433509789466, -11.733433509789462]",-11.733433509789464,-11.733433509789462,0,1,1,0.8548046541020287,1.8548046541020289,1.1451953458979711,3.0,1,1.6048046541020289,0,4.0,3.0,1,2,1,0,1,0,0,5,5,3,,,,,,,234.2417812499989,234.2417812499989,235.25656116600294,235.85659820800356,236.0757194580001,236.0757194580001,236.0757194580001,237.22322462500597,237.22322462500597,237.22322462500597,237.22322462500597,238.22280804100592,200006,001,2023-04-07_10h37.27.736,DMS_et_12-36,2022.2.4,None,
17,UNPRED,12,0.8548046541020287,0,images/picture_1.png,images/picture_1.png,0,"[-11.733433509789462, 11.733433509789464]",-11.733433509789462,11.733433509789464,images/picture_2.png,1,"[11.733433509789464, 11.733433509789462]",11.733433509789464,11.733433509789462,images/picture_3.png,2,"[11.733433509789462, -11.733433509789466]",11.733433509789462,-11.733433509789464,0,1,1,0.8548046541020287,1.8548046541020289,1.1451953458979711,3.0,1,1.6048046541020289,0,4.0,3.0,1,2,1,0,1,0,0,6,6,8,,,,,,,238.22280804100592,238.22280804100592,239.2232720000029,239.84227754099993,240.07490666599915,240.07490666599915,240.07490666599915,241.22308904099918,241.22308904099918,241.22308904099918,241.22308904099918,242.22267337499943,200006,001,2023-04-07_10h37.27.736,DMS_et_12-36,2022.2.4,None,
14,UNPRED,12,0.8548046541020287,0,images/picture_1.png,images/picture_1.png,0,"[11.733433509789464, 11.733433509789462]",11.733433509789464,11.733433509789462,images/picture_2.png,1,"[11.733433509789462, -11.733433509789466]",11.733433509789462,-11.733433509789464,images/picture_3.png,2,"[-11.733433509789462, 11.733433509789464]",-11.733433509789462,11.733433509789464,0,1,1,0.8548046541020287,1.8548046541020289,1.1451953458979711,3.0,1,1.6048046541020289,0,4.0,3.0,1,2,1,0,1,0,0,7,7,5,,,,,,,242.22267337499943,242.22267337499943,243.2232694580016,243.84239562500443,244.07584337500157,244.07584337500157,244.07584337500157,245.22326162500394,245.22326162500394,245.22326162500394,245.22326162500394,246.2417035000035,200006,001,2023-04-07_10h37.27.736,DMS_et_12-36,2022.2.4,None,
16,UNPRED,12,0.8548046541020287,2,images/picture_3.png,images/picture_1.png,0,"[-11.733433509789466, -11.733433509789462]",-11.733433509789464,-11.733433509789462,images/picture_2.png,1,"[-11.733433509789462, 11.733433509789464]",-11.733433509789462,11.733433509789464,images/picture_3.png,2,"[11.733433509789464, 11.733433509789462]",11.733433509789464,11.733433509789462,0,1,1,0.8548046541020287,1.8548046541020289,1.1451953458979711,3.0,1,1.6048046541020289,0,4.0,3.0,1,2,1,0,1,0,0,8,8,7,,,,,,,246.2417035000035,246.2417035000035,247.25672733300598,247.8568100410048,248.07611100000213,248.07611100000213,248.07611100000213,249.22326954100572,249.22326954100572,249.22326954100572,249.22326954100572,250.25139229100023,200006,001,2023-04-07_10h37.27.736,DMS_et_12-36,2022.2.4,None,
,,,,,,,,,,,,,,,,,,,,,,,,,,,,,,,,,,,1,0,1,0,,,,,,,,,250.25139229100023,262.2759909160013,,,,,,,,,,,,,200006,001,2023-04-07_10h37.27.736,DMS_et_12-36,2022.2.4,None,
21,PRED,12,0.8548046541020287,0,images/picture_1.png,images/picture_1.png,0,"[11.733433509789462, -11.733433509789466]",11.733433509789462,-11.733433509789464,images/picture_2.png,1,"[-11.733433509789466, -11.733433509789462]",-11.733433509789464,-11.733433509789462,images/picture_3.png,2,"[-11.733433509789462, 11.733433509789464]",-11.733433509789462,11.733433509789464,0,1,1,0.8548046541020287,1.8548046541020289,1.1451953458979711,3.0,1,1.6048046541020289,0,4.0,3.0,1,2,2,0,2,0,0,0,0,3,,,,,,,262.2759909160013,262.2759909160013,263.2900035410057,263.8900206660037,264.1233109579989,264.1233109579989,264.1233109579989,265.27605337500427,265.27605337500427,265.27605337500427,265.27605337500427,266.2894658330042,200006,001,2023-04-07_10h37.27.736,DMS_et_12-36,2022.2.4,None,
22,PRED,12,0.8548046541020287,0,images/picture_1.png,images/picture_1.png,0,"[11.733433509789464, 11.733433509789462]",11.733433509789464,11.733433509789462,images/picture_2.png,1,"[-11.733433509789466, -11.733433509789462]",-11.733433509789464,-11.733433509789462,images/picture_3.png,2,"[11.733433509789462, -11.733433509789466]",11.733433509789462,-11.733433509789464,0,1,1,0.8548046541020287,1.8548046541020289,1.1451953458979711,3.0,1,1.6048046541020289,0,4.0,3.0,1,2,2,0,2,0,0,1,1,4,,,,,,,266.2894658330042,266.2894658330042,267.29001699999935,267.90915720799967,268.1426917909994,268.1426917909994,268.1426917909994,269.2900092500058,269.2900092500058,269.2900092500058,269.2900092500058,270.2894572910009,200006,001,2023-04-07_10h37.27.736,DMS_et_12-36,2022.2.4,None,
20,PRED,12,0.8548046541020287,0,images/picture_1.png,images/picture_1.png,0,"[11.733433509789464, 11.733433509789462]",11.733433509789464,11.733433509789462,images/picture_2.png,1,"[-11.733433509789466, -11.733433509789462]",-11.733433509789464,-11.733433509789462,images/picture_3.png,2,"[11.733433509789462, -11.733433509789466]",11.733433509789462,-11.733433509789464,0,1,1,0.8548046541020287,1.8548046541020289,1.1451953458979711,3.0,1,1.6048046541020289,0,4.0,3.0,1,2,2,0,2,0,0,2,2,2,,,,,,,270.2894572910009,270.2894572910009,271.2899490830023,271.9086234580027,272.14241241600394,272.14241241600394,272.14241241600394,273.2900414579999,273.2900414579999,273.2900414579999,273.2900414579999,274.28951049999887,200006,001,2023-04-07_10h37.27.736,DMS_et_12-36,2022.2.4,None,
19,PRED,12,0.8548046541020287,0,images/picture_1.png,images/picture_1.png,0,"[-11.733433509789462, 11.733433509789464]",-11.733433509789462,11.733433509789464,images/picture_2.png,1,"[11.733433509789462, -11.733433509789466]",11.733433509789462,-11.733433509789464,images/picture_3.png,2,"[-11.733433509789466, -11.733433509789462]",-11.733433509789464,-11.733433509789462,0,1,1,0.8548046541020287,1.8548046541020289,1.1451953458979711,3.0,1,1.6048046541020289,0,4.0,3.0,1,2,2,0,2,0,0,3,3,1,,,,,,,274.28951049999887,274.28951049999887,275.28999516600015,275.90956366600585,276.1424426250014,276.1424426250014,276.1424426250014,277.2900203750032,277.2900203750032,277.2900203750032,277.2900203750032,278.28975591600465,200006,001,2023-04-07_10h37.27.736,DMS_et_12-36,2022.2.4,None,
24,PRED,12,0.8548046541020287,0,images/picture_1.png,images/picture_1.png,0,"[-11.733433509789462, 11.733433509789464]",-11.733433509789462,11.733433509789464,images/picture_2.png,1,"[11.733433509789462, -11.733433509789466]",11.733433509789462,-11.733433509789464,images/picture_3.png,2,"[11.733433509789464, 11.733433509789462]",11.733433509789464,11.733433509789462,0,1,1,0.8548046541020287,1.8548046541020289,1.1451953458979711,3.0,1,1.6048046541020289,0,4.0,3.0,1,2,2,0,2,0,0,4,4,6,,,,,,,278.28975591600465,278.28975591600465,279.29000545800227,279.9091972910028,280.14259912499983,280.14259912499983,280.14259912499983,281.2897665410055,281.2897665410055,281.2897665410055,281.2897665410055,282.2895179160041,200006,001,2023-04-07_10h37.27.736,DMS_et_12-36,2022.2.4,None,
26,PRED,12,0.8548046541020287,0,images/picture_1.png,images/picture_1.png,0,"[11.733433509789462, -11.733433509789466]",11.733433509789462,-11.733433509789464,images/picture_2.png,1,"[-11.733433509789462, 11.733433509789464]",-11.733433509789462,11.733433509789464,images/picture_3.png,2,"[-11.733433509789466, -11.733433509789462]",-11.733433509789464,-11.733433509789462,0,1,1,0.8548046541020287,1.8548046541020289,1.1451953458979711,3.0,1,1.6048046541020289,0,4.0,3.0,1,2,2,0,2,0,0,5,5,8,,,,,,,282.2895179160041,282.2895179160041,283.2901265410037,283.909634458003,284.1424827910014,284.1424827910014,284.1424827910014,285.29011275000084,285.29011275000084,285.29011275000084,285.29011275000084,286.2898669999995,200006,001,2023-04-07_10h37.27.736,DMS_et_12-36,2022.2.4,None,
18,PRED,12,0.8548046541020287,0,images/picture_1.png,images/picture_1.png,0,"[-11.733433509789462, 11.733433509789464]",-11.733433509789462,11.733433509789464,images/picture_2.png,1,"[11.733433509789464, 11.733433509789462]",11.733433509789464,11.733433509789462,images/picture_3.png,2,"[-11.733433509789466, -11.733433509789462]",-11.733433509789464,-11.733433509789462,0,1,1,0.8548046541020287,1.8548046541020289,1.1451953458979711,3.0,1,1.6048046541020289,0,4.0,3.0,1,2,2,0,2,0,0,6,6,0,,,,,,,286.2898669999995,286.2898669999995,287.29032316600205,287.90914241599967,288.1428044580025,288.1428044580025,288.1428044580025,289.2902140830047,289.2902140830047,289.2902140830047,289.2902140830047,290.28961533300026,200006,001,2023-04-07_10h37.27.736,DMS_et_12-36,2022.2.4,None,
23,PRED,12,0.8548046541020287,0,images/picture_1.png,images/picture_1.png,0,"[11.733433509789464, 11.733433509789462]",11.733433509789464,11.733433509789462,images/picture_2.png,1,"[-11.733433509789466, -11.733433509789462]",-11.733433509789464,-11.733433509789462,images/picture_3.png,2,"[11.733433509789462, -11.733433509789466]",11.733433509789462,-11.733433509789464,0,1,1,0.8548046541020287,1.8548046541020289,1.1451953458979711,3.0,1,1.6048046541020289,0,4.0,3.0,1,2,2,0,2,0,0,7,7,5,,,,,,,290.28961533300026,290.28961533300026,291.2901365830039,291.90908895800385,292.14203850000195,292.14203850000195,292.14203850000195,293.29004454100505,293.29004454100505,293.29004454100505,293.29004454100505,294.2896238750036,200006,001,2023-04-07_10h37.27.736,DMS_et_12-36,2022.2.4,None,
25,PRED,12,0.8548046541020287,0,images/picture_1.png,images/picture_1.png,0,"[11.733433509789462, -11.733433509789466]",11.733433509789462,-11.733433509789464,images/picture_2.png,1,"[11.733433509789464, 11.733433509789462]",11.733433509789464,11.733433509789462,images/picture_3.png,2,"[-11.733433509789462, 11.733433509789464]",-11.733433509789462,11.733433509789464,0,1,1,0.8548046541020287,1.8548046541020289,1.1451953458979711,3.0,1,1.6048046541020289,0,4.0,3.0,1,2,2,0,2,0,0,8,8,7,,,,,,,294.2896238750036,294.2896238750036,295.2902318750057,295.9092557500044,296.1427257910036,296.1427257910036,296.1427257910036,297.29020216600475,297.29020216600475,297.29020216600475,297.29020216600475,298.33060416600347,200006,001,2023-04-07_10h37.27.736,DMS_et_12-36,2022.2.4,None,
,,,,,,,,,,,,,,,,,,,,,,,,,,,,,,,,,,,2,0,2,0,,,,,,,,,298.33060416600347,310.3553040410043,,,,,,,,,,,,,200006,001,2023-04-07_10h37.27.736,DMS_et_12-36,2022.2.4,None,
28,UNPRED,12,0.8548046541020287,0,images/picture_1.png,images/picture_1.png,0,"[-11.733433509789462, 11.733433509789464]",-11.733433509789462,11.733433509789464,images/picture_2.png,1,"[11.733433509789464, 11.733433509789462]",11.733433509789464,11.733433509789462,images/picture_3.png,2,"[11.733433509789462, -11.733433509789466]",11.733433509789462,-11.733433509789464,0,1,1,0.8548046541020287,1.8548046541020289,1.1451953458979711,3.0,1,1.6048046541020289,0,4.0,3.0,1,2,3,0,3,0,0,0,0,1,,,,,,,310.3553040410043,310.3553040410043,311.3569549579988,311.9753029160056,312.2090421660032,312.2090421660032,312.2090421660032,313.35697549999895,313.35697549999895,313.35697549999895,313.35697549999895,314.375462916003,200006,001,2023-04-07_10h37.27.736,DMS_et_12-36,2022.2.4,None,
34,UNPRED,12,0.8548046541020287,2,images/picture_3.png,images/picture_1.png,0,"[-11.733433509789466, -11.733433509789462]",-11.733433509789464,-11.733433509789462,images/picture_2.png,1,"[-11.733433509789462, 11.733433509789464]",-11.733433509789462,11.733433509789464,images/picture_3.png,2,"[11.733433509789464, 11.733433509789462]",11.733433509789464,11.733433509789462,0,1,1,0.8548046541020287,1.8548046541020289,1.1451953458979711,3.0,1,1.6048046541020289,0,4.0,3.0,1,2,3,0,3,0,0,1,1,7,,,,,,,314.375462916003,314.375462916003,315.3902822500022,315.990283500003,316.20944304099976,316.20944304099976,316.20944304099976,317.35710245800146,317.35710245800146,317.35710245800146,317.35710245800146,318.3562208750009,200006,001,2023-04-07_10h37.27.736,DMS_et_12-36,2022.2.4,None,
32,UNPRED,12,0.8548046541020287,0,images/picture_1.png,images/picture_1.png,0,"[11.733433509789462, -11.733433509789466]",11.733433509789462,-11.733433509789464,images/picture_2.png,1,"[11.733433509789464, 11.733433509789462]",11.733433509789464,11.733433509789462,images/picture_3.png,2,"[-11.733433509789466, -11.733433509789462]",-11.733433509789464,-11.733433509789462,0,1,1,0.8548046541020287,1.8548046541020289,1.1451953458979711,3.0,1,1.6048046541020289,0,4.0,3.0,1,2,3,0,3,0,0,2,2,5,,,,,,,318.3562208750009,318.3562208750009,319.3569647080003,319.97615258300357,320.20957058299973,320.20957058299973,320.20957058299973,321.3569717080027,321.3569717080027,321.3569717080027,321.3569717080027,322.3566399160045,200006,001,2023-04-07_10h37.27.736,DMS_et_12-36,2022.2.4,None,
35,UNPRED,12,0.8548046541020287,1,images/picture_2.png,images/picture_1.png,0,"[11.733433509789464, 11.733433509789462]",11.733433509789464,11.733433509789462,images/picture_2.png,1,"[-11.733433509789466, -11.733433509789462]",-11.733433509789464,-11.733433509789462,images/picture_3.png,2,"[11.733433509789462, -11.733433509789466]",11.733433509789462,-11.733433509789464,0,1,1,0.8548046541020287,1.8548046541020289,1.1451953458979711,3.0,1,1.6048046541020289,0,4.0,3.0,1,2,3,0,3,0,0,3,3,8,,,,,,,322.3566399160045,322.3566399160045,323.35700550000183,323.97666633300105,324.20946012499917,324.20946012499917,324.20946012499917,325.357017291004,325.357017291004,325.357017291004,325.357017291004,326.3564407080048,200006,001,2023-04-07_10h37.27.736,DMS_et_12-36,2022.2.4,None,
27,UNPRED,12,0.8548046541020287,1,images/picture_2.png,images/picture_1.png,0,"[-11.733433509789466, -11.733433509789462]",-11.733433509789464,-11.733433509789462,images/picture_2.png,1,"[-11.733433509789462, 11.733433509789464]",-11.733433509789462,11.733433509789464,images/picture_3.png,2,"[11.733433509789464, 11.733433509789462]",11.733433509789464,11.733433509789462,0,1,1,0.8548046541020287,1.8548046541020289,1.1451953458979711,3.0,1,1.6048046541020289,0,4.0,3.0,1,2,3,0,3,0,0,4,4,0,,,,,,,326.3564407080048,326.3564407080048,327.35695362499973,327.9763640000019,328.20968529100355,328.20968529100355,328.20968529100355,329.3569694580001,329.3569694580001,329.3569694580001,329.3569694580001,330.35641783300525,200006,001,2023-04-07_10h37.27.736,DMS_et_12-36,2022.2.4,None,
31,UNPRED,12,0.8548046541020287,1,images/picture_2.png,images/picture_1.png,0,"[-11.733433509789462, 11.733433509789464]",-11.733433509789462,11.733433509789464,images/picture_2.png,1,"[-11.733433509789466, -11.733433509789462]",-11.733433509789464,-11.733433509789462,images/picture_3.png,2,"[11.733433509789464, 11.733433509789462]",11.733433509789464,11.733433509789462,0,1,1,0.8548046541020287,1.8548046541020289,1.1451953458979711,3.0,1,1.6048046541020289,0,4.0,3.0,1,2,3,0,3,0,0,5,5,4,,,,,,,330.35641783300525,330.35641783300525,331.35702287500317,331.9764150830015,332.2095202080018,332.2095202080018,332.2095202080018,333.3568311660056,333.3568311660056,333.3568311660056,333.3568311660056,334.3565152500014,200006,001,2023-04-07_10h37.27.736,DMS_et_12-36,2022.2.4,None,
30,UNPRED,12,0.8548046541020287,0,images/picture_1.png,images/picture_1.png,0,"[-11.733433509789466, -11.733433509789462]",-11.733433509789464,-11.733433509789462,images/picture_2.png,1,"[-11.733433509789462, 11.733433509789464]",-11.733433509789462,11.733433509789464,images/picture_3.png,2,"[11.733433509789464, 11.733433509789462]",11.733433509789464,11.733433509789462,0,1,1,0.8548046541020287,1.8548046541020289,1.1451953458979711,3.0,1,1.6048046541020289,0,4.0,3.0,1,2,3,0,3,0,0,6,6,3,,,,,,,334.3565152500014,334.3565152500014,335.35700345800433,335.97629691600014,336.20975283300504,336.20975283300504,336.20975283300504,337.3571910410028,337.3571910410028,337.3571910410028,337.3571910410028,338.3565447910005,200006,001,2023-04-07_10h37.27.736,DMS_et_12-36,2022.2.4,None,
33,UNPRED,12,0.8548046541020287,0,images/picture_1.png,images/picture_1.png,0,"[-11.733433509789462, 11.733433509789464]",-11.733433509789462,11.733433509789464,images/picture_2.png,1,"[11.733433509789462, -11.733433509789466]",11.733433509789462,-11.733433509789464,images/picture_3.png,2,"[-11.733433509789466, -11.733433509789462]",-11.733433509789464,-11.733433509789462,0,1,1,0.8548046541020287,1.8548046541020289,1.1451953458979711,3.0,1,1.6048046541020289,0,4.0,3.0,1,2,3,0,3,0,0,7,7,6,,,,,,,338.3565447910005,338.3565447910005,339.35705308300385,339.9765076660042,340.20951579100074,340.20951579100074,340.20951579100074,341.35702129100537,341.35702129100537,341.35702129100537,341.35702129100537,342.3565018750014,200006,001,2023-04-07_10h37.27.736,DMS_et_12-36,2022.2.4,None,
29,UNPRED,12,0.8548046541020287,0,images/picture_1.png,images/picture_1.png,0,"[-11.733433509789462, 11.733433509789464]",-11.733433509789462,11.733433509789464,images/picture_2.png,1,"[-11.733433509789466, -11.733433509789462]",-11.733433509789464,-11.733433509789462,images/picture_3.png,2,"[11.733433509789462, -11.733433509789466]",11.733433509789462,-11.733433509789464,0,1,1,0.8548046541020287,1.8548046541020289,1.1451953458979711,3.0,1,1.6048046541020289,0,4.0,3.0,1,2,3,0,3,0,0,8,8,2,,,,,,,342.3565018750014,342.3565018750014,343.35691387500265,343.9764127080052,344.2095895829989,344.2095895829989,344.2095895829989,345.3573347080019,345.3573347080019,345.3573347080019,345.3573347080019,346.4072933749994,200006,001,2023-04-07_10h37.27.736,DMS_et_12-36,2022.2.4,None,
,,,,,,,,,,,,,,,,,,,,,,,,,,,,,,,,,,,3,0,3,0,,,,,,,,,346.4072933749994,358.4221691660059,,,,,,,,,,,,,200006,001,2023-04-07_10h37.27.736,DMS_et_12-36,2022.2.4,None,
44,PRED,12,0.8548046541020287,0,images/picture_1.png,images/picture_1.png,0,"[-11.733433509789466, -11.733433509789462]",-11.733433509789464,-11.733433509789462,images/picture_2.png,1,"[-11.733433509789462, 11.733433509789464]",-11.733433509789462,11.733433509789464,images/picture_3.png,2,"[11.733433509789462, -11.733433509789466]",11.733433509789462,-11.733433509789464,0,1,1,0.8548046541020287,1.8548046541020289,1.1451953458979711,3.0,1,1.6048046541020289,0,4.0,3.0,1,2,4,0,4,0,0,0,0,8,,,,,,,358.4221691660059,358.4221691660059,359.4234946659999,360.0235251250051,360.2761078750045,360.2761078750045,360.2761078750045,361.423519750002,361.423519750002,361.423519750002,361.423519750002,362.423067583004,200006,001,2023-04-07_10h37.27.736,DMS_et_12-36,2022.2.4,None,
41,PRED,12,0.8548046541020287,0,images/picture_1.png,images/picture_1.png,0,"[-11.733433509789462, 11.733433509789464]",-11.733433509789462,11.733433509789464,images/picture_2.png,1,"[-11.733433509789466, -11.733433509789462]",-11.733433509789464,-11.733433509789462,images/picture_3.png,2,"[11.733433509789462, -11.733433509789466]",11.733433509789462,-11.733433509789464,0,1,1,0.8548046541020287,1.8548046541020289,1.1451953458979711,3.0,1,1.6048046541020289,0,4.0,3.0,1,2,4,0,4,0,0,1,1,5,,,,,,,362.423067583004,362.423067583004,363.4232817500015,364.04219458300213,364.27582741600054,364.27582741600054,364.27582741600054,365.4235528749996,365.4235528749996,365.4235528749996,365.4235528749996,366.4230354160027,200006,001,2023-04-07_10h37.27.736,DMS_et_12-36,2022.2.4,None,
36,PRED,12,0.8548046541020287,0,images/picture_1.png,images/picture_1.png,0,"[-11.733433509789466, -11.733433509789462]",-11.733433509789464,-11.733433509789462,images/picture_2.png,1,"[-11.733433509789462, 11.733433509789464]",-11.733433509789462,11.733433509789464,images/picture_3.png,2,"[11.733433509789462, -11.733433509789466]",11.733433509789462,-11.733433509789464,0,1,1,0.8548046541020287,1.8548046541020289,1.1451953458979711,3.0,1,1.6048046541020289,0,4.0,3.0,1,2,4,0,4,0,0,2,2,0,,,,,,,366.4230354160027,366.4230354160027,367.42355574999965,368.0429284580023,368.2761795000042,368.2761795000042,368.2761795000042,369.42347870800586,369.42347870800586,369.42347870800586,369.42347870800586,370.42306608299987,200006,001,2023-04-07_10h37.27.736,DMS_et_12-36,2022.2.4,None,
42,PRED,12,0.8548046541020287,0,images/picture_1.png,images/picture_1.png,0,"[-11.733433509789466, -11.733433509789462]",-11.733433509789464,-11.733433509789462,images/picture_2.png,1,"[-11.733433509789462, 11.733433509789464]",-11.733433509789462,11.733433509789464,images/picture_3.png,2,"[11.733433509789462, -11.733433509789466]",11.733433509789462,-11.733433509789464,0,1,1,0.8548046541020287,1.8548046541020289,1.1451953458979711,3.0,1,1.6048046541020289,0,4.0,3.0,1,2,4,0,4,0,0,3,3,6,,,,,,,370.42306608299987,370.42306608299987,371.42368495800474,372.0431463749992,372.2762702079999,372.2762702079999,372.2762702079999,373.4232574160051,373.4232574160051,373.4232574160051,373.4232574160051,374.4234445000038,200006,001,2023-04-07_10h37.27.736,DMS_et_12-36,2022.2.4,None,
37,PRED,12,0.8548046541020287,0,images/picture_1.png,images/picture_1.png,0,"[11.733433509789464, 11.733433509789462]",11.733433509789464,11.733433509789462,images/picture_2.png,1,"[-11.733433509789462, 11.733433509789464]",-11.733433509789462,11.733433509789464,images/picture_3.png,2,"[11.733433509789462, -11.733433509789466]",11.733433509789462,-11.733433509789464,0,1,1,0.8548046541020287,1.8548046541020289,1.1451953458979711,3.0,1,1.6048046541020289,0,4.0,3.0,1,2,4,0,4,0,0,4,4,1,,,,,,,374.4234445000038,374.4234445000038,375.4237399160047,376.0427988750016,376.27645699999994,376.27645699999994,376.27645699999994,377.4235424580038,377.4235424580038,377.4235424580038,377.4235424580038,378.423311999999,200006,001,2023-04-07_10h37.27.736,DMS_et_12-36,2022.2.4,None,
43,PRED,12,0.8548046541020287,0,images/picture_1.png,images/picture_1.png,0,"[-11.733433509789462, 11.733433509789464]",-11.733433509789462,11.733433509789464,images/picture_2.png,1,"[11.733433509789464, 11.733433509789462]",11.733433509789464,11.733433509789462,images/picture_3.png,2,"[-11.733433509789466, -11.733433509789462]",-11.733433509789464,-11.733433509789462,0,1,1,0.8548046541020287,1.8548046541020289,1.1451953458979711,3.0,1,1.6048046541020289,0,4.0,3.0,1,2,4,0,4,0,0,5,5,7,,,,,,,378.423311999999,378.423311999999,379.4237494580011,380.04284833300335,380.2761875830038,380.2761875830038,380.2761875830038,381.4237237910056,381.4237237910056,381.4237237910056,381.4237237910056,382.42308720800065,200006,001,2023-04-07_10h37.27.736,DMS_et_12-36,2022.2.4,None,
38,PRED,12,0.8548046541020287,0,images/picture_1.png,images/picture_1.png,0,"[11.733433509789464, 11.733433509789462]",11.733433509789464,11.733433509789462,images/picture_2.png,1,"[-11.733433509789466, -11.733433509789462]",-11.733433509789464,-11.733433509789462,images/picture_3.png,2,"[-11.733433509789462, 11.733433509789464]",-11.733433509789462,11.733433509789464,0,1,1,0.8548046541020287,1.8548046541020289,1.1451953458979711,3.0,1,1.6048046541020289,0,4.0,3.0,1,2,4,0,4,0,0,6,6,2,,,,,,,382.42308720800065,382.42308720800065,383.42367699999886,384.0420349160049,384.2757297080025,384.2757297080025,384.2757297080025,385.42370362500515,385.42370362500515,385.42370362500515,385.42370362500515,386.4230641250033,200006,001,2023-04-07_10h37.27.736,DMS_et_12-36,2022.2.4,None,
39,PRED,12,0.8548046541020287,0,images/picture_1.png,images/picture_1.png,0,"[-11.733433509789462, 11.733433509789464]",-11.733433509789462,11.733433509789464,images/picture_2.png,1,"[11.733433509789462, -11.733433509789466]",11.733433509789462,-11.733433509789464,images/picture_3.png,2,"[11.733433509789464, 11.733433509789462]",11.733433509789464,11.733433509789462,0,1,1,0.8548046541020287,1.8548046541020289,1.1451953458979711,3.0,1,1.6048046541020289,0,4.0,3.0,1,2,4,0,4,0,0,7,7,3,,,,,,,386.4230641250033,386.4230641250033,387.42364200000156,388.042749500004,388.2764116660037,388.2764116660037,388.2764116660037,389.423526999999,389.423526999999,389.423526999999,389.423526999999,390.4231025410045,200006,001,2023-04-07_10h37.27.736,DMS_et_12-36,2022.2.4,None,
40,PRED,12,0.8548046541020287,0,images/picture_1.png,images/picture_1.png,0,"[-11.733433509789462, 11.733433509789464]",-11.733433509789462,11.733433509789464,images/picture_2.png,1,"[11.733433509789464, 11.733433509789462]",11.733433509789464,11.733433509789462,images/picture_3.png,2,"[-11.733433509789466, -11.733433509789462]",-11.733433509789464,-11.733433509789462,0,1,1,0.8548046541020287,1.8548046541020289,1.1451953458979711,3.0,1,1.6048046541020289,0,4.0,3.0,1,2,4,0,4,0,0,8,8,4,,,,,,,390.4231025410045,390.4231025410045,391.42370016600034,392.0428134579997,392.2762081250039,392.2762081250039,392.2762081250039,393.4237071250027,393.4237071250027,393.4237071250027,393.4237071250027,394.4661097080025,200006,001,2023-04-07_10h37.27.736,DMS_et_12-36,2022.2.4,None,
,,,,,,,,,,,,,,,,,,,,,,,,,,,,,,,,,,,4,0,4,0,,,,,,,,,394.4661097080025,406.5544682079999,,,,,,,,,,,,,200006,001,2023-04-07_10h37.27.736,DMS_et_12-36,2022.2.4,None,
47,UNPRED,12,0.8548046541020287,1,images/picture_2.png,images/picture_1.png,0,"[11.733433509789462, -11.733433509789466]",11.733433509789462,-11.733433509789464,images/picture_2.png,1,"[-11.733433509789466, -11.733433509789462]",-11.733433509789464,-11.733433509789462,images/picture_3.png,2,"[11.733433509789464, 11.733433509789462]",11.733433509789464,11.733433509789462,0,1,1,0.8548046541020287,1.8548046541020289,1.1451953458979711,3.0,1,1.6048046541020289,0,4.0,3.0,1,2,5,0,5,0,0,0,0,2,,,,,,,406.5544682079999,406.5544682079999,407.55700533300114,408.1570219580026,408.4100530409996,408.4100530409996,408.4100530409996,409.55700983299903,409.55700983299903,409.55700983299903,409.55700983299903,410.5759604160048,200006,001,2023-04-07_10h37.27.736,DMS_et_12-36,2022.2.4,None,
51,UNPRED,12,0.8548046541020287,2,images/picture_3.png,images/picture_1.png,0,"[-11.733433509789462, 11.733433509789464]",-11.733433509789462,11.733433509789464,images/picture_2.png,1,"[11.733433509789464, 11.733433509789462]",11.733433509789464,11.733433509789462,images/picture_3.png,2,"[-11.733433509789466, -11.733433509789462]",-11.733433509789464,-11.733433509789462,0,1,1,0.8548046541020287,1.8548046541020289,1.1451953458979711,3.0,1,1.6048046541020289,0,4.0,3.0,1,2,5,0,5,0,0,1,1,6,,,,,,,410.5759604160048,410.5759604160048,411.59049395799957,412.1904095409991,412.4096236250043,412.4096236250043,412.4096236250043,413.5570621250008,413.5570621250008,413.5570621250008,413.5570621250008,414.5566363329999,200006,001,2023-04-07_10h37.27.736,DMS_et_12-36,2022.2.4,None,
49,UNPRED,12,0.8548046541020287,1,images/picture_2.png,images/picture_1.png,0,"[11.733433509789464, 11.733433509789462]",11.733433509789464,11.733433509789462,images/picture_2.png,1,"[-11.733433509789466, -11.733433509789462]",-11.733433509789464,-11.733433509789462,images/picture_3.png,2,"[11.733433509789462, -11.733433509789466]",11.733433509789462,-11.733433509789464,0,1,1,0.8548046541020287,1.8548046541020289,1.1451953458979711,3.0,1,1.6048046541020289,0,4.0,3.0,1,2,5,0,5,0,0,2,2,4,,,,,,,414.5566363329999,414.5566363329999,415.5569670410041,416.1763569579998,416.409629875001,416.409629875001,416.409629875001,417.55700762500055,417.55700762500055,417.55700762500055,417.55700762500055,418.5758959580053,200006,001,2023-04-07_10h37.27.736,DMS_et_12-36,2022.2.4,None,
48,UNPRED,12,0.8548046541020287,2,images/picture_3.png,images/picture_1.png,0,"[11.733433509789462, -11.733433509789466]",11.733433509789462,-11.733433509789464,images/picture_2.png,1,"[11.733433509789464, 11.733433509789462]",11.733433509789464,11.733433509789462,images/picture_3.png,2,"[-11.733433509789466, -11.733433509789462]",-11.733433509789464,-11.733433509789462,0,1,1,0.8548046541020287,1.8548046541020289,1.1451953458979711,3.0,1,1.6048046541020289,0,4.0,3.0,1,2,5,0,5,0,0,3,3,3,,,,,,,418.5758959580053,418.5758959580053,419.5903098330018,420.1905021660059,420.40970466600265,420.40970466600265,420.40970466600265,421.55701170799875,421.55701170799875,421.55701170799875,421.55701170799875,422.55612670800474,200006,001,2023-04-07_10h37.27.736,DMS_et_12-36,2022.2.4,None,
46,UNPRED,12,0.8548046541020287,0,images/picture_1.png,images/picture_1.png,0,"[11.733433509789464, 11.733433509789462]",11.733433509789464,11.733433509789462,images/picture_2.png,1,"[-11.733433509789462, 11.733433509789464]",-11.733433509789462,11.733433509789464,images/picture_3.png,2,"[11.733433509789462, -11.733433509789466]",11.733433509789462,-11.733433509789464,0,1,1,0.8548046541020287,1.8548046541020289,1.1451953458979711,3.0,1,1.6048046541020289,0,4.0,3.0,1,2,5,0,5,0,0,4,4,1,,,,,,,422.55612670800474,422.55612670800474,423.55702012500115,424.1763815410013,424.4096544580025,424.4096544580025,424.4096544580025,425.55680083300103,425.55680083300103,425.55680083300103,425.55680083300103,426.5757100000046,200006,001,2023-04-07_10h37.27.736,DMS_et_12-36,2022.2.4,None,
50,UNPRED,12,0.8548046541020287,2,images/picture_3.png,images/picture_1.png,0,"[-11.733433509789466, -11.733433509789462]",-11.733433509789464,-11.733433509789462,images/picture_2.png,1,"[11.733433509789464, 11.733433509789462]",11.733433509789464,11.733433509789462,images/picture_3.png,2,"[11.733433509789462, -11.733433509789466]",11.733433509789462,-11.733433509789464,0,1,1,0.8548046541020287,1.8548046541020289,1.1451953458979711,3.0,1,1.6048046541020289,0,4.0,3.0,1,2,5,0,5,0,0,5,5,5,,,,,,,426.5757100000046,426.5757100000046,427.5904830830041,428.1903409580045,428.40968104100466,428.40968104100466,428.40968104100466,429.5570415830007,429.5570415830007,429.5570415830007,429.5570415830007,430.5567120410051,200006,001,2023-04-07_10h37.27.736,DMS_et_12-36,2022.2.4,None,
52,UNPRED,12,0.8548046541020287,0,images/picture_1.png,images/picture_1.png,0,"[-11.733433509789466, -11.733433509789462]",-11.733433509789464,-11.733433509789462,images/picture_2.png,1,"[11.733433509789464, 11.733433509789462]",11.733433509789464,11.733433509789462,images/picture_3.png,2,"[11.733433509789462, -11.733433509789466]",11.733433509789462,-11.733433509789464,0,1,1,0.8548046541020287,1.8548046541020289,1.1451953458979711,3.0,1,1.6048046541020289,0,4.0,3.0,1,2,5,0,5,0,0,6,6,7,,,,,,,430.5567120410051,430.5567120410051,431.55704558300204,432.1762467910012,432.40970195800037,432.40970195800037,432.40970195800037,433.55706612500217,433.55706612500217,433.55706612500217,433.55706612500217,434.57625704100064,200006,001,2023-04-07_10h37.27.736,DMS_et_12-36,2022.2.4,None,
45,UNPRED,12,0.8548046541020287,2,images/picture_3.png,images/picture_1.png,0,"[11.733433509789462, -11.733433509789466]",11.733433509789462,-11.733433509789464,images/picture_2.png,1,"[-11.733433509789466, -11.733433509789462]",-11.733433509789464,-11.733433509789462,images/picture_3.png,2,"[11.733433509789464, 11.733433509789462]",11.733433509789464,11.733433509789462,0,1,1,0.8548046541020287,1.8548046541020289,1.1451953458979711,3.0,1,1.6048046541020289,0,4.0,3.0,1,2,5,0,5,0,0,7,7,0,,,,,,,434.57625704100064,434.57625704100064,435.5901107910031,436.1904784580038,436.40959066600044,436.40959066600044,436.40959066600044,437.55702104100055,437.55702104100055,437.55702104100055,437.55702104100055,438.557042583001,200006,001,2023-04-07_10h37.27.736,DMS_et_12-36,2022.2.4,None,
53,UNPRED,12,0.8548046541020287,0,images/picture_1.png,images/picture_1.png,0,"[-11.733433509789466, -11.733433509789462]",-11.733433509789464,-11.733433509789462,images/picture_2.png,1,"[-11.733433509789462, 11.733433509789464]",-11.733433509789462,11.733433509789464,images/picture_3.png,2,"[11.733433509789462, -11.733433509789466]",11.733433509789462,-11.733433509789464,0,1,1,0.8548046541020287,1.8548046541020289,1.1451953458979711,3.0,1,1.6048046541020289,0,4.0,3.0,1,2,5,0,5,0,0,8,8,8,,,,,,,438.557042583001,438.557042583001,439.5573084580028,440.1763048330031,440.409793208004,440.409793208004,440.409793208004,441.5570213750034,441.5570213750034,441.5570213750034,441.5570213750034,442.6281268330058,200006,001,2023-04-07_10h37.27.736,DMS_et_12-36,2022.2.4,None,
,,,,,,,,,,,,,,,,,,,,,,,,,,,,,,,,,,,5,0,5,0,,,,,,,,,442.6281268330058,454.6606097910044,,,,,,,,,,,,,200006,001,2023-04-07_10h37.27.736,DMS_et_12-36,2022.2.4,None,
54,PRED,12,0.8548046541020287,0,images/picture_1.png,images/picture_1.png,0,"[11.733433509789464, 11.733433509789462]",11.733433509789464,11.733433509789462,images/picture_2.png,1,"[-11.733433509789466, -11.733433509789462]",-11.733433509789464,-11.733433509789462,images/picture_3.png,2,"[11.733433509789462, -11.733433509789466]",11.733433509789462,-11.733433509789464,0,1,1,0.8548046541020287,1.8548046541020289,1.1451953458979711,3.0,1,1.6048046541020289,0,4.0,3.0,1,2,6,0,6,0,0,0,0,0,,,,,,,454.6606097910044,454.6606097910044,455.67585600000166,456.2761987080012,456.5089645830012,456.5089645830012,456.5089645830012,457.65721795800346,457.65721795800346,457.65721795800346,457.65721795800346,458.6567649580029,200006,001,2023-04-07_10h37.27.736,DMS_et_12-36,2022.2.4,None,
62,PRED,12,0.8548046541020287,0,images/picture_1.png,images/picture_1.png,0,"[11.733433509789464, 11.733433509789462]",11.733433509789464,11.733433509789462,images/picture_2.png,1,"[-11.733433509789462, 11.733433509789464]",-11.733433509789462,11.733433509789464,images/picture_3.png,2,"[11.733433509789462, -11.733433509789466]",11.733433509789462,-11.733433509789464,0,1,1,0.8548046541020287,1.8548046541020289,1.1451953458979711,3.0,1,1.6048046541020289,0,4.0,3.0,1,2,6,0,6,0,0,1,1,8,,,,,,,458.6567649580029,458.6567649580029,459.65708533300494,460.27688854100415,460.5098246250054,460.5098246250054,460.5098246250054,461.6572769160048,461.6572769160048,461.6572769160048,461.6572769160048,462.6570094999988,200006,001,2023-04-07_10h37.27.736,DMS_et_12-36,2022.2.4,None,
56,PRED,12,0.8548046541020287,0,images/picture_1.png,images/picture_1.png,0,"[-11.733433509789466, -11.733433509789462]",-11.733433509789464,-11.733433509789462,images/picture_2.png,1,"[11.733433509789462, -11.733433509789466]",11.733433509789462,-11.733433509789464,images/picture_3.png,2,"[-11.733433509789462, 11.733433509789464]",-11.733433509789462,11.733433509789464,0,1,1,0.8548046541020287,1.8548046541020289,1.1451953458979711,3.0,1,1.6048046541020289,0,4.0,3.0,1,2,6,0,6,0,0,2,2,2,,,,,,,462.6570094999988,462.6570094999988,463.65725708300306,464.27632587500557,464.51013429100567,464.51013429100567,464.51013429100567,465.65683129100216,465.65683129100216,465.65683129100216,465.65683129100216,466.65725408300204,200006,001,2023-04-07_10h37.27.736,DMS_et_12-36,2022.2.4,None,
59,PRED,12,0.8548046541020287,0,images/picture_1.png,images/picture_1.png,0,"[-11.733433509789462, 11.733433509789464]",-11.733433509789462,11.733433509789464,images/picture_2.png,1,"[-11.733433509789466, -11.733433509789462]",-11.733433509789464,-11.733433509789462,images/picture_3.png,2,"[11.733433509789464, 11.733433509789462]",11.733433509789464,11.733433509789462,0,1,1,0.8548046541020287,1.8548046541020289,1.1451953458979711,3.0,1,1.6048046541020289,0,4.0,3.0,1,2,6,0,6,0,0,3,3,5,,,,,,,466.65725408300204,466.65725408300204,467.6572100410049,468.27669295800297,468.50994629100023,468.50994629100023,468.50994629100023,469.65724437500467,469.65724437500467,469.65724437500467,469.65724437500467,470.65678050000133,200006,001,2023-04-07_10h37.27.736,DMS_et_12-36,2022.2.4,None,
60,PRED,12,0.8548046541020287,0,images/picture_1.png,images/picture_1.png,0,"[-11.733433509789462, 11.733433509789464]",-11.733433509789462,11.733433509789464,images/picture_2.png,1,"[11.733433509789464, 11.733433509789462]",11.733433509789464,11.733433509789462,images/picture_3.png,2,"[11.733433509789462, -11.733433509789466]",11.733433509789462,-11.733433509789464,0,1,1,0.8548046541020287,1.8548046541020289,1.1451953458979711,3.0,1,1.6048046541020289,0,4.0,3.0,1,2,6,0,6,0,0,4,4,6,,,,,,,470.65678050000133,470.65678050000133,471.6570126250008,472.2762819999989,472.5097906660012,472.5097906660012,472.5097906660012,473.65725366600236,473.65725366600236,473.65725366600236,473.65725366600236,474.65687654100475,200006,001,2023-04-07_10h37.27.736,DMS_et_12-36,2022.2.4,None,
58,PRED,12,0.8548046541020287,0,images/picture_1.png,images/picture_1.png,0,"[11.733433509789462, -11.733433509789466]",11.733433509789462,-11.733433509789464,images/picture_2.png,1,"[-11.733433509789466, -11.733433509789462]",-11.733433509789464,-11.733433509789462,images/picture_3.png,2,"[-11.733433509789462, 11.733433509789464]",-11.733433509789462,11.733433509789464,0,1,1,0.8548046541020287,1.8548046541020289,1.1451953458979711,3.0,1,1.6048046541020289,0,4.0,3.0,1,2,6,0,6,0,0,5,5,4,,,,,,,474.65687654100475,474.65687654100475,475.65733891600394,476.27597712500574,476.50898099999904,476.50898099999904,476.50898099999904,477.6572950000045,477.6572950000045,477.6572950000045,477.6572950000045,478.6566243750058,200006,001,2023-04-07_10h37.27.736,DMS_et_12-36,2022.2.4,None,
55,PRED,12,0.8548046541020287,0,images/picture_1.png,images/picture_1.png,0,"[11.733433509789464, 11.733433509789462]",11.733433509789464,11.733433509789462,images/picture_2.png,1,"[11.733433509789462, -11.733433509789466]",11.733433509789462,-11.733433509789464,images/picture_3.png,2,"[-11.733433509789466, -11.733433509789462]",-11.733433509789464,-11.733433509789462,0,1,1,0.8548046541020287,1.8548046541020289,1.1451953458979711,3.0,1,1.6048046541020289,0,4.0,3.0,1,2,6,0,6,0,0,6,6,1,,,,,,,478.6566243750058,478.6566243750058,479.6572380409998,480.276531083,480.50967862499965,480.50967862499965,480.50967862499965,481.657237833002,481.657237833002,481.657237833002,481.657237833002,482.65687129100115,200006,001,2023-04-07_10h37.27.736,DMS_et_12-36,2022.2.4,None,
57,PRED,12,0.8548046541020287,0,images/picture_1.png,images/picture_1.png,0,"[11.733433509789464, 11.733433509789462]",11.733433509789464,11.733433509789462,images/picture_2.png,1,"[11.733433509789462, -11.733433509789466]",11.733433509789462,-11.733433509789464,images/picture_3.png,2,"[-11.733433509789462, 11.733433509789464]",-11.733433509789462,11.733433509789464,0,1,1,0.8548046541020287,1.8548046541020289,1.1451953458979711,3.0,1,1.6048046541020289,0,4.0,3.0,1,2,6,0,6,0,0,7,7,3,,,,,,,482.65687129100115,482.65687129100115,483.6572605410038,484.27645429100085,484.50966158300434,484.50966158300434,484.50966158300434,485.6572730830012,485.6572730830012,485.6572730830012,485.6572730830012,486.65700325000216,200006,001,2023-04-07_10h37.27.736,DMS_et_12-36,2022.2.4,None,
61,PRED,12,0.8548046541020287,0,images/picture_1.png,images/picture_1.png,0,"[-11.733433509789466, -11.733433509789462]",-11.733433509789464,-11.733433509789462,images/picture_2.png,1,"[11.733433509789464, 11.733433509789462]",11.733433509789464,11.733433509789462,images/picture_3.png,2,"[-11.733433509789462, 11.733433509789464]",-11.733433509789462,11.733433509789464,0,1,1,0.8548046541020287,1.8548046541020289,1.1451953458979711,3.0,1,1.6048046541020289,0,4.0,3.0,1,2,6,0,6,0,0,8,8,7,,,,,,,486.65700325000216,486.65700325000216,487.6572318750041,488.2765508330049,488.5101346250012,488.5101346250012,488.5101346250012,489.65724633300124,489.65724633300124,489.65724633300124,489.65724633300124,490.7374965410054,200006,001,2023-04-07_10h37.27.736,DMS_et_12-36,2022.2.4,None,
,,,,,,,,,,,,,,,,,,,,,,,,,,,,,,,,,,,6,0,6,0,,,,,,,,,490.7374965410054,502.77314175000356,,,,,,,,,,,,,200006,001,2023-04-07_10h37.27.736,DMS_et_12-36,2022.2.4,None,
67,UNPRED,12,0.8548046541020287,2,images/picture_3.png,images/picture_1.png,0,"[11.733433509789464, 11.733433509789462]",11.733433509789464,11.733433509789462,images/picture_2.png,1,"[-11.733433509789466, -11.733433509789462]",-11.733433509789464,-11.733433509789462,images/picture_3.png,2,"[-11.733433509789462, 11.733433509789464]",-11.733433509789462,11.733433509789464,0,1,1,0.8548046541020287,1.8548046541020289,1.1451953458979711,3.0,1,1.6048046541020289,0,4.0,3.0,1,2,7,0,7,0,0,0,0,4,,,,,,,502.77314175000356,502.77314175000356,503.7767396660056,504.39064987500024,504.6234826660002,504.6234826660002,504.6234826660002,505.77660808300425,505.77660808300425,505.77660808300425,505.75727225000446,506.756970500006,200006,001,2023-04-07_10h37.27.736,DMS_et_12-36,2022.2.4,None,
69,UNPRED,12,0.8548046541020287,1,images/picture_2.png,images/picture_1.png,0,"[-11.733433509789466, -11.733433509789462]",-11.733433509789464,-11.733433509789462,images/picture_2.png,1,"[11.733433509789462, -11.733433509789466]",11.733433509789462,-11.733433509789464,images/picture_3.png,2,"[11.733433509789464, 11.733433509789462]",11.733433509789464,11.733433509789462,0,1,1,0.8548046541020287,1.8548046541020289,1.1451953458979711,3.0,1,1.6048046541020289,0,4.0,3.0,1,2,7,0,7,0,0,1,1,6,,,,,,,506.756970500006,506.756970500006,507.7573087500059,508.37643691600533,508.6097383330052,508.6097383330052,508.6097383330052,509.7575700830057,509.7575700830057,509.7575700830057,509.7575700830057,510.7757913329988,200006,001,2023-04-07_10h37.27.736,DMS_et_12-36,2022.2.4,None,
65,UNPRED,12,0.8548046541020287,2,images/picture_3.png,images/picture_1.png,0,"[11.733433509789464, 11.733433509789462]",11.733433509789464,11.733433509789462,images/picture_2.png,1,"[11.733433509789462, -11.733433509789466]",11.733433509789462,-11.733433509789464,images/picture_3.png,2,"[-11.733433509789462, 11.733433509789464]",-11.733433509789462,11.733433509789464,0,1,1,0.8548046541020287,1.8548046541020289,1.1451953458979711,3.0,1,1.6048046541020289,0,4.0,3.0,1,2,7,0,7,0,0,2,2,2,,,,,,,510.7757913329988,510.7757913329988,511.79071433300123,512.3907325410037,512.6099004580028,512.6099004580028,512.6099004580028,513.7573369580059,513.7573369580059,513.7573369580059,513.7573369580059,514.7567764580017,200006,001,2023-04-07_10h37.27.736,DMS_et_12-36,2022.2.4,None,
66,UNPRED,12,0.8548046541020287,1,images/picture_2.png,images/picture_1.png,0,"[11.733433509789464, 11.733433509789462]",11.733433509789464,11.733433509789462,images/picture_2.png,1,"[-11.733433509789466, -11.733433509789462]",-11.733433509789464,-11.733433509789462,images/picture_3.png,2,"[11.733433509789462, -11.733433509789466]",11.733433509789462,-11.733433509789464,0,1,1,0.8548046541020287,1.8548046541020289,1.1451953458979711,3.0,1,1.6048046541020289,0,4.0,3.0,1,2,7,0,7,0,0,3,3,3,,,,,,,514.7567764580017,514.7567764580017,515.7573255000025,516.376558750002,516.609984666,516.609984666,516.609984666,517.756934916004,517.756934916004,517.756934916004,517.756934916004,518.7567563330012,200006,001,2023-04-07_10h37.27.736,DMS_et_12-36,2022.2.4,None,
63,UNPRED,12,0.8548046541020287,0,images/picture_1.png,images/picture_1.png,0,"[-11.733433509789462, 11.733433509789464]",-11.733433509789462,11.733433509789464,images/picture_2.png,1,"[11.733433509789464, 11.733433509789462]",11.733433509789464,11.733433509789462,images/picture_3.png,2,"[11.733433509789462, -11.733433509789466]",11.733433509789462,-11.733433509789464,0,1,1,0.8548046541020287,1.8548046541020289,1.1451953458979711,3.0,1,1.6048046541020289,0,4.0,3.0,1,2,7,0,7,0,0,4,4,0,,,,,,,518.7567563330012,518.7567563330012,519.7572745830039,520.3761737500026,520.6097350000055,520.6097350000055,520.6097350000055,521.757268500005,521.757268500005,521.757268500005,521.757268500005,522.7762426250047,200006,001,2023-04-07_10h37.27.736,DMS_et_12-36,2022.2.4,None,
70,UNPRED,12,0.8548046541020287,2,images/picture_3.png,images/picture_1.png,0,"[11.733433509789462, -11.733433509789466]",11.733433509789462,-11.733433509789464,images/picture_2.png,1,"[-11.733433509789466, -11.733433509789462]",-11.733433509789464,-11.733433509789462,images/picture_3.png,2,"[11.733433509789464, 11.733433509789462]",11.733433509789464,11.733433509789462,0,1,1,0.8548046541020287,1.8548046541020289,1.1451953458979711,3.0,1,1.6048046541020289,0,4.0,3.0,1,2,7,0,7,0,0,5,5,7,,,,,,,522.7762426250047,522.7762426250047,523.7905168330035,524.3907436660011,524.6104099160002,524.6104099160002,524.6104099160002,525.7572649580034,525.7572649580034,525.7572649580034,525.7572649580034,526.7764627910001,200006,001,2023-04-07_10h37.27.736,DMS_et_12-36,2022.2.4,None,
68,UNPRED,12,0.8548046541020287,2,images/picture_3.png,images/picture_1.png,0,"[-11.733433509789466, -11.733433509789462]",-11.733433509789464,-11.733433509789462,images/picture_2.png,1,"[11.733433509789464, 11.733433509789462]",11.733433509789464,11.733433509789462,images/picture_3.png,2,"[11.733433509789462, -11.733433509789466]",11.733433509789462,-11.733433509789464,0,1,1,0.8548046541020287,1.8548046541020289,1.1451953458979711,3.0,1,1.6048046541020289,0,4.0,3.0,1,2,7,0,7,0,0,6,6,5,,,,,,,526.7764627910001,526.7764627910001,527.7904328330042,528.39069475,528.6093590000019,528.6093590000019,528.6093590000019,529.7573681659997,529.7573681659997,529.7573681659997,529.7573681659997,530.7581981250041,200006,001,2023-04-07_10h37.27.736,DMS_et_12-36,2022.2.4,None,
64,UNPRED,12,0.8548046541020287,1,images/picture_2.png,images/picture_1.png,0,"[11.733433509789464, 11.733433509789462]",11.733433509789464,11.733433509789462,images/picture_2.png,1,"[-11.733433509789466, -11.733433509789462]",-11.733433509789464,-11.733433509789462,images/picture_3.png,2,"[11.733433509789462, -11.733433509789466]",11.733433509789462,-11.733433509789464,0,1,1,0.8548046541020287,1.8548046541020289,1.1451953458979711,3.0,1,1.6048046541020289,0,4.0,3.0,1,2,7,0,7,0,0,7,7,1,,,,,,,530.7581981250041,530.7581981250041,531.757311625006,532.3765373330025,532.6100095410002,532.6100095410002,532.6100095410002,533.7572774159999,533.7572774159999,533.7572774159999,533.7572774159999,534.7567902910014,200006,001,2023-04-07_10h37.27.736,DMS_et_12-36,2022.2.4,None,
71,UNPRED,12,0.8548046541020287,1,images/picture_2.png,images/picture_1.png,0,"[11.733433509789464, 11.733433509789462]",11.733433509789464,11.733433509789462,images/picture_2.png,1,"[-11.733433509789466, -11.733433509789462]",-11.733433509789464,-11.733433509789462,images/picture_3.png,2,"[-11.733433509789462, 11.733433509789464]",-11.733433509789462,11.733433509789464,0,1,1,0.8548046541020287,1.8548046541020289,1.1451953458979711,3.0,1,1.6048046541020289,0,4.0,3.0,1,2,7,0,7,0,0,8,8,8,,,,,,,534.7567902910014,534.7567902910014,535.7573368750018,536.3770769160037,536.6099571250015,536.6099571250015,536.6099571250015,537.7575662080053,537.7575662080053,537.7575662080053,537.7575662080053,538.8476231250024,200006,001,2023-04-07_10h37.27.736,DMS_et_12-36,2022.2.4,None,
,,,,,,,,,,,,,,,,,,,,,,,,,,,,,,,,,,,7,0,7,0,,,,,,,,,538.8476231250024,550.8894201250005,,,,,,,,,,,,,200006,001,2023-04-07_10h37.27.736,DMS_et_12-36,2022.2.4,None,
77,PRED,12,0.8548046541020287,2,images/picture_3.png,images/picture_1.png,0,"[-11.733433509789462, 11.733433509789464]",-11.733433509789462,11.733433509789464,images/picture_2.png,1,"[11.733433509789462, -11.733433509789466]",11.733433509789462,-11.733433509789464,images/picture_3.png,2,"[-11.733433509789466, -11.733433509789462]",-11.733433509789464,-11.733433509789462,0,1,1,0.8548046541020287,1.8548046541020289,1.1451953458979711,3.0,1,1.6048046541020289,0,4.0,3.0,1,2,8,0,8,0,0,0,0,5,,,,,,,550.8894201250005,550.8894201250005,551.8907560000007,552.509964290999,552.7240119580019,552.7240119580019,552.7240119580019,553.8767702080004,553.8767702080004,553.8767702080004,553.8767702080004,554.909474250002,200006,001,2023-04-07_10h37.27.736,DMS_et_12-36,2022.2.4,None,
73,PRED,12,0.8548046541020287,2,images/picture_3.png,images/picture_1.png,0,"[11.733433509789464, 11.733433509789462]",11.733433509789464,11.733433509789462,images/picture_2.png,1,"[-11.733433509789466, -11.733433509789462]",-11.733433509789464,-11.733433509789462,images/picture_3.png,2,"[-11.733433509789462, 11.733433509789464]",-11.733433509789462,11.733433509789464,0,1,1,0.8548046541020287,1.8548046541020289,1.1451953458979711,3.0,1,1.6048046541020289,0,4.0,3.0,1,2,8,0,8,0,0,1,1,1,,,,,,,554.909474250002,554.909474250002,555.9240060410011,556.5240572500043,556.7433669160018,556.7433669160018,556.7433669160018,557.8904980410007,557.8904980410007,557.8904980410007,557.8904980410007,558.8906823330035,200006,001,2023-04-07_10h37.27.736,DMS_et_12-36,2022.2.4,None,
72,PRED,12,0.8548046541020287,2,images/picture_3.png,images/picture_1.png,0,"[-11.733433509789462, 11.733433509789464]",-11.733433509789462,11.733433509789464,images/picture_2.png,1,"[11.733433509789464, 11.733433509789462]",11.733433509789464,11.733433509789462,images/picture_3.png,2,"[11.733433509789462, -11.733433509789466]",11.733433509789462,-11.733433509789464,0,1,1,0.8548046541020287,1.8548046541020289,1.1451953458979711,3.0,1,1.6048046541020289,0,4.0,3.0,1,2,8,0,8,0,0,2,2,0,,,,,,,558.8906823330035,558.8906823330035,559.890749791004,560.5098784580041,560.7431426660041,560.7431426660041,560.7431426660041,561.890733541004,561.890733541004,561.890733541004,561.890733541004,562.9101087080053,200006,001,2023-04-07_10h37.27.736,DMS_et_12-36,2022.2.4,None,
79,PRED,12,0.8548046541020287,2,images/picture_3.png,images/picture_1.png,0,"[11.733433509789462, -11.733433509789466]",11.733433509789462,-11.733433509789464,images/picture_2.png,1,"[-11.733433509789462, 11.733433509789464]",-11.733433509789462,11.733433509789464,images/picture_3.png,2,"[11.733433509789464, 11.733433509789462]",11.733433509789464,11.733433509789462,0,1,1,0.8548046541020287,1.8548046541020289,1.1451953458979711,3.0,1,1.6048046541020289,0,4.0,3.0,1,2,8,0,8,0,0,3,3,7,,,,,,,562.9101087080053,562.9101087080053,563.9240147910023,564.5240609579996,564.7432486250036,564.7432486250036,564.7432486250036,565.8904254580048,565.8904254580048,565.8904254580048,565.8904254580048,566.909462333002,200006,001,2023-04-07_10h37.27.736,DMS_et_12-36,2022.2.4,None,
76,PRED,12,0.8548046541020287,2,images/picture_3.png,images/picture_1.png,0,"[11.733433509789462, -11.733433509789466]",11.733433509789462,-11.733433509789464,images/picture_2.png,1,"[-11.733433509789466, -11.733433509789462]",-11.733433509789464,-11.733433509789462,images/picture_3.png,2,"[-11.733433509789462, 11.733433509789464]",-11.733433509789462,11.733433509789464,0,1,1,0.8548046541020287,1.8548046541020289,1.1451953458979711,3.0,1,1.6048046541020289,0,4.0,3.0,1,2,8,0,8,0,0,4,4,4,,,,,,,566.909462333002,566.909462333002,567.9239901250039,568.5239038330037,568.7429318750001,568.7429318750001,568.7429318750001,569.8907953330054,569.8907953330054,569.8907953330054,569.8907953330054,570.9091441660057,200006,001,2023-04-07_10h37.27.736,DMS_et_12-36,2022.2.4,None,
75,PRED,12,0.8548046541020287,2,images/picture_3.png,images/picture_1.png,0,"[11.733433509789464, 11.733433509789462]",11.733433509789464,11.733433509789462,images/picture_2.png,1,"[-11.733433509789462, 11.733433509789464]",-11.733433509789462,11.733433509789464,images/picture_3.png,2,"[-11.733433509789466, -11.733433509789462]",-11.733433509789464,-11.733433509789462,0,1,1,0.8548046541020287,1.8548046541020289,1.1451953458979711,3.0,1,1.6048046541020289,0,4.0,3.0,1,2,8,0,8,0,0,5,5,3,,,,,,,570.9091441660057,570.9091441660057,571.9242070410037,572.5240261660001,572.743125208006,572.743125208006,572.743125208006,573.8907407080042,573.8907407080042,573.8907407080042,573.8907407080042,574.9097653330027,200006,001,2023-04-07_10h37.27.736,DMS_et_12-36,2022.2.4,None,
80,PRED,12,0.8548046541020287,2,images/picture_3.png,images/picture_1.png,0,"[11.733433509789464, 11.733433509789462]",11.733433509789464,11.733433509789462,images/picture_2.png,1,"[11.733433509789462, -11.733433509789466]",11.733433509789462,-11.733433509789464,images/picture_3.png,2,"[-11.733433509789466, -11.733433509789462]",-11.733433509789464,-11.733433509789462,0,1,1,0.8548046541020287,1.8548046541020289,1.1451953458979711,3.0,1,1.6048046541020289,0,4.0,3.0,1,2,8,0,8,0,0,6,6,8,,,,,,,574.9097653330027,574.9097653330027,575.9242182080052,576.5241948330004,576.7433425000054,576.7433425000054,576.7433425000054,577.8907392910041,577.8907392910041,577.8907392910041,577.8907392910041,578.9093634580058,200006,001,2023-04-07_10h37.27.736,DMS_et_12-36,2022.2.4,None,
78,PRED,12,0.8548046541020287,2,images/picture_3.png,images/picture_1.png,0,"[-11.733433509789462, 11.733433509789464]",-11.733433509789462,11.733433509789464,images/picture_2.png,1,"[-11.733433509789466, -11.733433509789462]",-11.733433509789464,-11.733433509789462,images/picture_3.png,2,"[11.733433509789462, -11.733433509789466]",11.733433509789462,-11.733433509789464,0,1,1,0.8548046541020287,1.8548046541020289,1.1451953458979711,3.0,1,1.6048046541020289,0,4.0,3.0,1,2,8,0,8,0,0,7,7,6,,,,,,,578.9093634580058,578.9093634580058,579.9240445410032,580.5240662080032,580.7432582500041,580.7432582500041,580.7432582500041,581.8907558749997,581.8907558749997,581.8907558749997,581.8907558749997,582.9094808330046,200006,001,2023-04-07_10h37.27.736,DMS_et_12-36,2022.2.4,None,
74,PRED,12,0.8548046541020287,2,images/picture_3.png,images/picture_1.png,0,"[-11.733433509789466, -11.733433509789462]",-11.733433509789464,-11.733433509789462,images/picture_2.png,1,"[11.733433509789462, -11.733433509789466]",11.733433509789462,-11.733433509789464,images/picture_3.png,2,"[11.733433509789464, 11.733433509789462]",11.733433509789464,11.733433509789462,0,1,1,0.8548046541020287,1.8548046541020289,1.1451953458979711,3.0,1,1.6048046541020289,0,4.0,3.0,1,2,8,0,8,0,0,8,8,2,,,,,,,582.9094808330046,582.9094808330046,583.9242337910036,584.5240181660047,584.7430624580011,584.7430624580011,584.7430624580011,585.8907504160015,585.8907504160015,585.8907504160015,585.8907504160015,586.9867370409993,200006,001,2023-04-07_10h37.27.736,DMS_et_12-36,2022.2.4,None,
,,,,,,,,,,,,,,,,,,,,,,,,,,,,,,,,,,,8,0,8,0,,,,,,,,,586.9867370409993,599.0091982080048,,,,,,,,,,,,,200006,001,2023-04-07_10h37.27.736,DMS_et_12-36,2022.2.4,None,
83,UNPRED,12,0.8548046541020287,2,images/picture_3.png,images/picture_1.png,0,"[11.733433509789462, -11.733433509789466]",11.733433509789462,-11.733433509789464,images/picture_2.png,1,"[-11.733433509789466, -11.733433509789462]",-11.733433509789464,-11.733433509789462,images/picture_3.png,2,"[-11.733433509789462, 11.733433509789464]",-11.733433509789462,11.733433509789464,0,1,1,0.8548046541020287,1.8548046541020289,1.1451953458979711,3.0,1,1.6048046541020289,0,4.0,3.0,1,2,9,0,9,0,0,0,0,2,,,,,,,599.0091982080048,599.0091982080048,600.0240435000014,600.6238753750004,600.8574487910009,600.8574487910009,600.8574487910009,602.0107609580009,602.0107609580009,602.0107609580009,601.9909989580046,602.9907475830041,200006,001,2023-04-07_10h37.27.736,DMS_et_12-36,2022.2.4,None,
89,UNPRED,12,0.8548046541020287,0,images/picture_1.png,images/picture_1.png,0,"[11.733433509789464, 11.733433509789462]",11.733433509789464,11.733433509789462,images/picture_2.png,1,"[-11.733433509789462, 11.733433509789464]",-11.733433509789462,11.733433509789464,images/picture_3.png,2,"[-11.733433509789466, -11.733433509789462]",-11.733433509789464,-11.733433509789462,0,1,1,0.8548046541020287,1.8548046541020289,1.1451953458979711,3.0,1,1.6048046541020289,0,4.0,3.0,1,2,9,0,9,0,0,1,1,8,,,,,,,602.9907475830041,602.9907475830041,603.9907894159987,604.6101802080011,604.843463833,604.843463833,604.843463833,605.9909264580056,605.9909264580056,605.9909264580056,605.9909264580056,606.9902787500032,200006,001,2023-04-07_10h37.27.736,DMS_et_12-36,2022.2.4,None,
87,UNPRED,12,0.8548046541020287,1,images/picture_2.png,images/picture_1.png,0,"[-11.733433509789462, 11.733433509789464]",-11.733433509789462,11.733433509789464,images/picture_2.png,1,"[11.733433509789464, 11.733433509789462]",11.733433509789464,11.733433509789462,images/picture_3.png,2,"[11.733433509789462, -11.733433509789466]",11.733433509789462,-11.733433509789464,0,1,1,0.8548046541020287,1.8548046541020289,1.1451953458979711,3.0,1,1.6048046541020289,0,4.0,3.0,1,2,9,0,9,0,0,2,2,6,,,,,,,606.9902787500032,606.9902787500032,607.9909879580009,608.6100146660028,608.8435466250012,608.8435466250012,608.8435466250012,609.990442291004,609.990442291004,609.990442291004,609.990442291004,610.9899070000029,200006,001,2023-04-07_10h37.27.736,DMS_et_12-36,2022.2.4,None,
88,UNPRED,12,0.8548046541020287,0,images/picture_1.png,images/picture_1.png,0,"[-11.733433509789462, 11.733433509789464]",-11.733433509789462,11.733433509789464,images/picture_2.png,1,"[-11.733433509789466, -11.733433509789462]",-11.733433509789464,-11.733433509789462,images/picture_3.png,2,"[11.733433509789464, 11.733433509789462]",11.733433509789464,11.733433509789462,0,1,1,0.8548046541020287,1.8548046541020289,1.1451953458979711,3.0,1,1.6048046541020289,0,4.0,3.0,1,2,9,0,9,0,0,3,3,7,,,,,,,610.9899070000029,610.9899070000029,611.9909813330014,612.6099700830018,612.8433660830051,612.8433660830051,612.8433660830051,613.9909412500056,613.9909412500056,613.9909412500056,613.9909412500056,614.9902835829998,200006,001,2023-04-07_10h37.27.736,DMS_et_12-36,2022.2.4,None,
86,UNPRED,12,0.8548046541020287,0,images/picture_1.png,images/picture_1.png,0,"[11.733433509789464, 11.733433509789462]",11.733433509789464,11.733433509789462,images/picture_2.png,1,"[11.733433509789462, -11.733433509789466]",11.733433509789462,-11.733433509789464,images/picture_3.png,2,"[-11.733433509789466, -11.733433509789462]",-11.733433509789464,-11.733433509789462,0,1,1,0.8548046541020287,1.8548046541020289,1.1451953458979711,3.0,1,1.6048046541020289,0,4.0,3.0,1,2,9,0,9,0,0,4,4,5,,,,,,,614.9902835829998,614.9902835829998,615.9908215410032,616.6101904160023,616.843574999999,616.843574999999,616.843574999999,617.9909531660014,617.9909531660014,617.9909531660014,617.9909531660014,618.9906569580053,200006,001,2023-04-07_10h37.27.736,DMS_et_12-36,2022.2.4,None,
82,UNPRED,12,0.8548046541020287,0,images/picture_1.png,images/picture_1.png,0,"[-11.733433509789462, 11.733433509789464]",-11.733433509789462,11.733433509789464,images/picture_2.png,1,"[11.733433509789464, 11.733433509789462]",11.733433509789464,11.733433509789462,images/picture_3.png,2,"[-11.733433509789466, -11.733433509789462]",-11.733433509789464,-11.733433509789462,0,1,1,0.8548046541020287,1.8548046541020289,1.1451953458979711,3.0,1,1.6048046541020289,0,4.0,3.0,1,2,9,0,9,0,0,5,5,1,,,,,,,618.9906569580053,618.9906569580053,619.9907107079998,620.6100933330017,620.8433745830043,620.8433745830043,620.8433745830043,621.9909959159995,621.9909959159995,621.9909959159995,621.9909959159995,622.9904666250004,200006,001,2023-04-07_10h37.27.736,DMS_et_12-36,2022.2.4,None,
85,UNPRED,12,0.8548046541020287,0,images/picture_1.png,images/picture_1.png,0,"[-11.733433509789462, 11.733433509789464]",-11.733433509789462,11.733433509789464,images/picture_2.png,1,"[11.733433509789464, 11.733433509789462]",11.733433509789464,11.733433509789462,images/picture_3.png,2,"[11.733433509789462, -11.733433509789466]",11.733433509789462,-11.733433509789464,0,1,1,0.8548046541020287,1.8548046541020289,1.1451953458979711,3.0,1,1.6048046541020289,0,4.0,3.0,1,2,9,0,9,0,0,6,6,4,,,,,,,622.9904666250004,622.9904666250004,623.9909384160055,624.6099562500021,624.8432949160051,624.8432949160051,624.8432949160051,625.9909690000059,625.9909690000059,625.9909690000059,625.9909690000059,626.9901598750002,200006,001,2023-04-07_10h37.27.736,DMS_et_12-36,2022.2.4,None,
84,UNPRED,12,0.8548046541020287,1,images/picture_2.png,images/picture_1.png,0,"[-11.733433509789466, -11.733433509789462]",-11.733433509789464,-11.733433509789462,images/picture_2.png,1,"[-11.733433509789462, 11.733433509789464]",-11.733433509789462,11.733433509789464,images/picture_3.png,2,"[11.733433509789462, -11.733433509789466]",11.733433509789462,-11.733433509789464,0,1,1,0.8548046541020287,1.8548046541020289,1.1451953458979711,3.0,1,1.6048046541020289,0,4.0,3.0,1,2,9,0,9,0,0,7,7,3,,,,,,,626.9901598750002,626.9901598750002,627.9909952080052,628.6100946250008,628.8434561660033,628.8434561660033,628.8434561660033,629.9905454580003,629.9905454580003,629.9905454580003,629.9905454580003,630.9899032500034,200006,001,2023-04-07_10h37.27.736,DMS_et_12-36,2022.2.4,None,
81,UNPRED,12,0.8548046541020287,0,images/picture_1.png,images/picture_1.png,0,"[11.733433509789462, -11.733433509789466]",11.733433509789462,-11.733433509789464,images/picture_2.png,1,"[11.733433509789464, 11.733433509789462]",11.733433509789464,11.733433509789462,images/picture_3.png,2,"[-11.733433509789466, -11.733433509789462]",-11.733433509789464,-11.733433509789462,0,1,1,0.8548046541020287,1.8548046541020289,1.1451953458979711,3.0,1,1.6048046541020289,0,4.0,3.0,1,2,9,0,9,0,0,8,8,0,,,,,,,630.9899032500034,630.9899032500034,631.9909463330041,632.6100284999993,632.8436954580029,632.8436954580029,632.8436954580029,633.9910955000014,633.9910955000014,633.9910955000014,633.9910955000014,635.1049857079997,200006,001,2023-04-07_10h37.27.736,DMS_et_12-36,2022.2.4,None,
,,,,,,,,,,,,,,,,,,,,,,,,,,,,,,,,,,,9,0,9,0,,,,,,,,,635.1049857079997,647.1587317080048,,,,,,,,,,,,,200006,001,2023-04-07_10h37.27.736,DMS_et_12-36,2022.2.4,None,
93,PRED,12,0.8548046541020287,0,images/picture_1.png,images/picture_1.png,0,"[-11.733433509789466, -11.733433509789462]",-11.733433509789464,-11.733433509789462,images/picture_2.png,1,"[11.733433509789462, -11.733433509789466]",11.733433509789462,-11.733433509789464,images/picture_3.png,2,"[-11.733433509789462, 11.733433509789464]",-11.733433509789462,11.733433509789464,0,1,1,0.8548046541020287,1.8548046541020289,1.1451953458979711,3.0,1,1.6048046541020289,0,4.0,3.0,1,2,10,0,10,0,0,0,0,3,,,,,,,647.1587317080048,647.1587317080048,648.1577042080025,648.7767121249999,649.0100140409995,649.0100140409995,649.0100140409995,650.1574176659997,650.1574176659997,650.1574176659997,650.1574176659997,651.1574081660001,200006,001,2023-04-07_10h37.27.736,DMS_et_12-36,2022.2.4,None,
98,PRED,12,0.8548046541020287,0,images/picture_1.png,images/picture_1.png,0,"[-11.733433509789462, 11.733433509789464]",-11.733433509789462,11.733433509789464,images/picture_2.png,1,"[-11.733433509789466, -11.733433509789462]",-11.733433509789464,-11.733433509789462,images/picture_3.png,2,"[11.733433509789462, -11.733433509789466]",11.733433509789462,-11.733433509789464,0,1,1,0.8548046541020287,1.8548046541020289,1.1451953458979711,3.0,1,1.6048046541020289,0,4.0,3.0,1,2,10,0,10,0,0,1,1,8,,,,,,,651.1574081660001,651.1574081660001,652.157691458,652.7764038750029,653.0101304160053,653.0101304160053,653.0101304160053,654.157669500004,654.157669500004,654.157669500004,654.157669500004,655.1572710410037,200006,001,2023-04-07_10h37.27.736,DMS_et_12-36,2022.2.4,None,
96,PRED,12,0.8548046541020287,0,images/picture_1.png,images/picture_1.png,0,"[11.733433509789462, -11.733433509789466]",11.733433509789462,-11.733433509789464,images/picture_2.png,1,"[11.733433509789464, 11.733433509789462]",11.733433509789464,11.733433509789462,images/picture_3.png,2,"[-11.733433509789462, 11.733433509789464]",-11.733433509789462,11.733433509789464,0,1,1,0.8548046541020287,1.8548046541020289,1.1451953458979711,3.0,1,1.6048046541020289,0,4.0,3.0,1,2,10,0,10,0,0,2,2,6,,,,,,,655.1572710410037,655.1572710410037,656.157567000002,656.776939250005,657.010559416005,657.010559416005,657.010559416005,658.1574496250032,658.1574496250032,658.1574496250032,658.1574496250032,659.1570825830058,200006,001,2023-04-07_10h37.27.736,DMS_et_12-36,2022.2.4,None,
90,PRED,12,0.8548046541020287,0,images/picture_1.png,images/picture_1.png,0,"[-11.733433509789466, -11.733433509789462]",-11.733433509789464,-11.733433509789462,images/picture_2.png,1,"[11.733433509789464, 11.733433509789462]",11.733433509789464,11.733433509789462,images/picture_3.png,2,"[-11.733433509789462, 11.733433509789464]",-11.733433509789462,11.733433509789464,0,1,1,0.8548046541020287,1.8548046541020289,1.1451953458979711,3.0,1,1.6048046541020289,0,4.0,3.0,1,2,10,0,10,0,0,3,3,0,,,,,,,659.1570825830058,659.1570825830058,660.1577025410006,660.7761739160051,661.0096257500045,661.0096257500045,661.0096257500045,662.1577343750032,662.1577343750032,662.1577343750032,662.1577343750032,663.1571540410005,200006,001,2023-04-07_10h37.27.736,DMS_et_12-36,2022.2.4,None,
92,PRED,12,0.8548046541020287,0,images/picture_1.png,images/picture_1.png,0,"[-11.733433509789466, -11.733433509789462]",-11.733433509789464,-11.733433509789462,images/picture_2.png,1,"[11.733433509789462, -11.733433509789466]",11.733433509789462,-11.733433509789464,images/picture_3.png,2,"[-11.733433509789462, 11.733433509789464]",-11.733433509789462,11.733433509789464,0,1,1,0.8548046541020287,1.8548046541020289,1.1451953458979711,3.0,1,1.6048046541020289,0,4.0,3.0,1,2,10,0,10,0,0,4,4,2,,,,,,,663.1571540410005,663.1571540410005,664.1578099580001,664.7767381250014,665.0102837910017,665.0102837910017,665.0102837910017,666.157733125001,666.157733125001,666.157733125001,666.157733125001,667.157430750005,200006,001,2023-04-07_10h37.27.736,DMS_et_12-36,2022.2.4,None,
95,PRED,12,0.8548046541020287,0,images/picture_1.png,images/picture_1.png,0,"[-11.733433509789466, -11.733433509789462]",-11.733433509789464,-11.733433509789462,images/picture_2.png,1,"[11.733433509789462, -11.733433509789466]",11.733433509789462,-11.733433509789464,images/picture_3.png,2,"[11.733433509789464, 11.733433509789462]",11.733433509789464,11.733433509789462,0,1,1,0.8548046541020287,1.8548046541020289,1.1451953458979711,3.0,1,1.6048046541020289,0,4.0,3.0,1,2,10,0,10,0,0,5,5,5,,,,,,,667.157430750005,667.157430750005,668.1574319580031,668.7766909580023,669.010247750004,669.010247750004,669.010247750004,670.1576757910007,670.1576757910007,670.1576757910007,670.1576757910007,671.157353458002,200006,001,2023-04-07_10h37.27.736,DMS_et_12-36,2022.2.4,None,
94,PRED,12,0.8548046541020287,0,images/picture_1.png,images/picture_1.png,0,"[-11.733433509789466, -11.733433509789462]",-11.733433509789464,-11.733433509789462,images/picture_2.png,1,"[11.733433509789462, -11.733433509789466]",11.733433509789462,-11.733433509789464,images/picture_3.png,2,"[-11.733433509789462, 11.733433509789464]",-11.733433509789462,11.733433509789464,0,1,1,0.8548046541020287,1.8548046541020289,1.1451953458979711,3.0,1,1.6048046541020289,0,4.0,3.0,1,2,10,0,10,0,0,6,6,4,,,,,,,671.157353458002,671.157353458002,672.1577436660009,672.7767235409992,673.0104209160054,673.0104209160054,673.0104209160054,674.1577705000018,674.1577705000018,674.1577705000018,674.1577705000018,675.1570535830033,200006,001,2023-04-07_10h37.27.736,DMS_et_12-36,2022.2.4,None,
97,PRED,12,0.8548046541020287,0,images/picture_1.png,images/picture_1.png,0,"[-11.733433509789466, -11.733433509789462]",-11.733433509789464,-11.733433509789462,images/picture_2.png,1,"[-11.733433509789462, 11.733433509789464]",-11.733433509789462,11.733433509789464,images/picture_3.png,2,"[11.733433509789462, -11.733433509789466]",11.733433509789462,-11.733433509789464,0,1,1,0.8548046541020287,1.8548046541020289,1.1451953458979711,3.0,1,1.6048046541020289,0,4.0,3.0,1,2,10,0,10,0,0,7,7,7,,,,,,,675.1570535830033,675.1570535830033,676.1578451250025,676.7771428750057,677.0102029580012,677.0102029580012,677.0102029580012,678.1575745410009,678.1575745410009,678.1575745410009,678.1575745410009,679.1571026660022,200006,001,2023-04-07_10h37.27.736,DMS_et_12-36,2022.2.4,None,
91,PRED,12,0.8548046541020287,0,images/picture_1.png,images/picture_1.png,0,"[11.733433509789464, 11.733433509789462]",11.733433509789464,11.733433509789462,images/picture_2.png,1,"[11.733433509789462, -11.733433509789466]",11.733433509789462,-11.733433509789464,images/picture_3.png,2,"[-11.733433509789466, -11.733433509789462]",-11.733433509789464,-11.733433509789462,0,1,1,0.8548046541020287,1.8548046541020289,1.1451953458979711,3.0,1,1.6048046541020289,0,4.0,3.0,1,2,10,0,10,0,0,8,8,1,,,,,,,679.1571026660022,679.1571026660022,680.157822291003,680.7770509160036,681.0102016250021,681.0102016250021,681.0102016250021,682.1577650830004,682.1577650830004,682.1577650830004,682.1577650830004,683.2796434160045,200006,001,2023-04-07_10h37.27.736,DMS_et_12-36,2022.2.4,None,
,,,,,,,,,,,,,,,,,,,,,,,,,,,,,,,,,,,10,0,10,0,,,,,,,,,683.2796434160045,695.3250981250021,,,,,,,,,,,,,200006,001,2023-04-07_10h37.27.736,DMS_et_12-36,2022.2.4,None,
107,UNPRED,12,0.8548046541020287,2,images/picture_3.png,images/picture_1.png,0,"[11.733433509789462, -11.733433509789466]",11.733433509789462,-11.733433509789464,images/picture_2.png,1,"[-11.733433509789462, 11.733433509789464]",-11.733433509789462,11.733433509789464,images/picture_3.png,2,"[11.733433509789464, 11.733433509789462]",11.733433509789464,11.733433509789462,0,1,1,0.8548046541020287,1.8548046541020289,1.1451953458979711,3.0,1,1.6048046541020289,0,4.0,3.0,1,2,11,0,11,0,0,0,0,8,,,,,,,695.3250981250021,695.3250981250021,696.3243199580029,696.9439480000001,697.1577198330051,697.1577198330051,697.1577198330051,698.3107894580025,698.3107894580025,698.3107894580025,698.3107894580025,699.3239056660022,200006,001,2023-04-07_10h37.27.736,DMS_et_12-36,2022.2.4,None,
102,UNPRED,12,0.8548046541020287,0,images/picture_1.png,images/picture_1.png,0,"[-11.733433509789466, -11.733433509789462]",-11.733433509789464,-11.733433509789462,images/picture_2.png,1,"[11.733433509789462, -11.733433509789466]",11.733433509789462,-11.733433509789464,images/picture_3.png,2,"[-11.733433509789462, 11.733433509789464]",-11.733433509789462,11.733433509789464,0,1,1,0.8548046541020287,1.8548046541020289,1.1451953458979711,3.0,1,1.6048046541020289,0,4.0,3.0,1,2,11,0,11,0,0,1,1,3,,,,,,,699.3239056660022,699.3239056660022,700.3244933750029,700.9436294580009,701.1769285830014,701.1769285830014,701.1769285830014,702.3242148749996,702.3242148749996,702.3242148749996,702.3242148749996,703.3238818750033,200006,001,2023-04-07_10h37.27.736,DMS_et_12-36,2022.2.4,None,
99,UNPRED,12,0.8548046541020287,0,images/picture_1.png,images/picture_1.png,0,"[-11.733433509789466, -11.733433509789462]",-11.733433509789464,-11.733433509789462,images/picture_2.png,1,"[11.733433509789462, -11.733433509789466]",11.733433509789462,-11.733433509789464,images/picture_3.png,2,"[11.733433509789464, 11.733433509789462]",11.733433509789464,11.733433509789462,0,1,1,0.8548046541020287,1.8548046541020289,1.1451953458979711,3.0,1,1.6048046541020289,0,4.0,3.0,1,2,11,0,11,0,0,2,2,0,,,,,,,703.3238818750033,703.3238818750033,704.3245205830026,704.9441415830006,705.1778402500058,705.1778402500058,705.1778402500058,706.3244490409998,706.3244490409998,706.3244490409998,706.3244490409998,707.3248264159993,200006,001,2023-04-07_10h37.27.736,DMS_et_12-36,2022.2.4,None,
104,UNPRED,12,0.8548046541020287,1,images/picture_2.png,images/picture_1.png,0,"[11.733433509789464, 11.733433509789462]",11.733433509789464,11.733433509789462,images/picture_2.png,1,"[11.733433509789462, -11.733433509789466]",11.733433509789462,-11.733433509789464,images/picture_3.png,2,"[-11.733433509789466, -11.733433509789462]",-11.733433509789464,-11.733433509789462,0,1,1,0.8548046541020287,1.8548046541020289,1.1451953458979711,3.0,1,1.6048046541020289,0,4.0,3.0,1,2,11,0,11,0,0,3,3,5,,,,,,,707.3248264159993,707.3248264159993,708.3244347500004,708.9438012079991,709.1775196250019,709.1775196250019,709.1775196250019,710.324488875005,710.324488875005,710.324488875005,710.324488875005,711.3238777080041,200006,001,2023-04-07_10h37.27.736,DMS_et_12-36,2022.2.4,None,
105,UNPRED,12,0.8548046541020287,1,images/picture_2.png,images/picture_1.png,0,"[-11.733433509789466, -11.733433509789462]",-11.733433509789464,-11.733433509789462,images/picture_2.png,1,"[-11.733433509789462, 11.733433509789464]",-11.733433509789462,11.733433509789464,images/picture_3.png,2,"[11.733433509789464, 11.733433509789462]",11.733433509789464,11.733433509789462,0,1,1,0.8548046541020287,1.8548046541020289,1.1451953458979711,3.0,1,1.6048046541020289,0,4.0,3.0,1,2,11,0,11,0,0,4,4,6,,,,,,,711.3238777080041,711.3238777080041,712.3242402500036,712.9436760829994,713.1774294580027,713.1774294580027,713.1774294580027,714.3244245829992,714.3244245829992,714.3244245829992,714.3244245829992,715.3239669579998,200006,001,2023-04-07_10h37.27.736,DMS_et_12-36,2022.2.4,None,
103,UNPRED,12,0.8548046541020287,0,images/picture_1.png,images/picture_1.png,0,"[11.733433509789462, -11.733433509789466]",11.733433509789462,-11.733433509789464,images/picture_2.png,1,"[-11.733433509789466, -11.733433509789462]",-11.733433509789464,-11.733433509789462,images/picture_3.png,2,"[11.733433509789464, 11.733433509789462]",11.733433509789464,11.733433509789462,0,1,1,0.8548046541020287,1.8548046541020289,1.1451953458979711,3.0,1,1.6048046541020289,0,4.0,3.0,1,2,11,0,11,0,0,5,5,4,,,,,,,715.3239669579998,715.3239669579998,716.3245201250029,716.9434645410001,717.1772554160052,717.1772554160052,717.1772554160052,718.324506666002,718.324506666002,718.324506666002,718.324506666002,719.323846583,200006,001,2023-04-07_10h37.27.736,DMS_et_12-36,2022.2.4,None,
101,UNPRED,12,0.8548046541020287,0,images/picture_1.png,images/picture_1.png,0,"[-11.733433509789462, 11.733433509789464]",-11.733433509789462,11.733433509789464,images/picture_2.png,1,"[11.733433509789462, -11.733433509789466]",11.733433509789462,-11.733433509789464,images/picture_3.png,2,"[11.733433509789464, 11.733433509789462]",11.733433509789464,11.733433509789462,0,1,1,0.8548046541020287,1.8548046541020289,1.1451953458979711,3.0,1,1.6048046541020289,0,4.0,3.0,1,2,11,0,11,0,0,6,6,2,,,,,,,719.323846583,719.323846583,720.3245190410016,720.9434979159996,721.1775516660055,721.1775516660055,721.1775516660055,722.3242049160035,722.3242049160035,722.3242049160035,722.3242049160035,723.3436319579996,200006,001,2023-04-07_10h37.27.736,DMS_et_12-36,2022.2.4,None,
106,UNPRED,12,0.8548046541020287,2,images/picture_3.png,images/picture_1.png,0,"[11.733433509789462, -11.733433509789466]",11.733433509789462,-11.733433509789464,images/picture_2.png,1,"[11.733433509789464, 11.733433509789462]",11.733433509789464,11.733433509789462,images/picture_3.png,2,"[-11.733433509789466, -11.733433509789462]",-11.733433509789464,-11.733433509789462,0,1,1,0.8548046541020287,1.8548046541020289,1.1451953458979711,3.0,1,1.6048046541020289,0,4.0,3.0,1,2,11,0,11,0,0,7,7,7,,,,,,,723.3436319579996,723.3436319579996,724.3577625410035,724.9577791250049,725.176961833,725.176961833,725.176961833,726.3244794580023,726.3244794580023,726.3244794580023,726.3244794580023,727.3241535410052,200006,001,2023-04-07_10h37.27.736,DMS_et_12-36,2022.2.4,None,
100,UNPRED,12,0.8548046541020287,0,images/picture_1.png,images/picture_1.png,0,"[-11.733433509789462, 11.733433509789464]",-11.733433509789462,11.733433509789464,images/picture_2.png,1,"[-11.733433509789466, -11.733433509789462]",-11.733433509789464,-11.733433509789462,images/picture_3.png,2,"[11.733433509789464, 11.733433509789462]",11.733433509789464,11.733433509789462,0,1,1,0.8548046541020287,1.8548046541020289,1.1451953458979711,3.0,1,1.6048046541020289,0,4.0,3.0,1,2,11,0,11,0,0,8,8,1,,,,,,,727.3241535410052,727.3241535410052,728.3244930000001,728.9436726659987,729.1762977500039,729.1762977500039,729.1762977500039,730.3245131660005,730.3245131660005,730.3245131660005,730.3245131660005,731.4895822079998,200006,001,2023-04-07_10h37.27.736,DMS_et_12-36,2022.2.4,None,
,,,,,,,,,,,,,,,,,,,,,,,,,,,,,,,,,,,11,0,11,0,,,,,,,,,731.4895822079998,743.603932500002,,,,,,,,,,,,,200006,001,2023-04-07_10h37.27.736,DMS_et_12-36,2022.2.4,None,
,,,,,,,,,,,,,,,,,,,,,,,,,,,,,,,,,,,,,,,,,,,,,,,743.603932500002,756.1394332910058,,,,,,,,,,,,,,,,,,,
