trial_count,blockType,blockNum,delay_time,stimImage_i,stimImage,responseImage1,responseImage1_i,responseImage1_pos,responseImage1_X,responseImage1_Y,responseImage2,responseImage2_i,responseImage2_pos,responseImage2_X,responseImage2_Y,responseImage3,responseImage3_i,responseImage3_pos,responseImage3_X,responseImage3_Y,cue_onset,cue_dur,delay_onset,delay_dur,resp_onset,resp_dur,rest_onset,rest_dur,circle_dur,circle_onset,total_dur,cross_onset,cross_dur,delay_resp_period,blocks.thisRepN,blocks.thisTrialN,blocks.thisN,blocks.thisIndex,trials.thisRepN,trials.thisTrialN,trials.thisN,trials.thisIndex,key_resp.started,text.started,key_resp.keys,key_resp.rt,text_2.started,text_2.stopped,sample.started,Delay.started,sample.stopped,Delay.stopped,Response_1.started,Response_2.started,Response_3.started,Response_1.stopped,Response_2.stopped,Response_3.stopped,polygon.started,polygon.stopped,participant,session,date,expName,psychopyVersion,frameRate,
,,,,,,,,,,,,,,,,,,,,,,,,,,,,,,,,,,,,,,,,,,,55.73982099999557,55.73982099999557,t,63.40436691601644,,,,,,,,,,,,,,,200008,002,2023-04-14_10h43.28.795,DMS_et_12-36,2022.2.4,None,
2,PRED,12,1.0927722435991274,0,images/picture_1.png,images/picture_1.png,0,"[-11.733433509789466, -11.733433509789462]",-11.733433509789464,-11.733433509789462,images/picture_2.png,1,"[11.733433509789464, 11.733433509789462]",11.733433509789464,11.733433509789462,images/picture_3.png,2,"[11.733433509789462, -11.733433509789466]",11.733433509789462,-11.733433509789464,0,1,1,1.0927722435991274,2.092772243599128,0.9072277564008726,3.0,1,1.842772243599128,0,4.0,3.0,1,2,0,0,0,0,0,0,0,2,,,,,119.66276154198567,131.69403687497834,131.69403687497834,131.69403687497834,132.70648591697682,133.53980249998858,133.772813958989,133.772813958989,133.772813958989,134.69288670897367,134.69288670897367,134.69288670897367,134.69288670897367,135.70616066697403,200008,002,2023-04-14_10h43.28.795,DMS_et_12-36,2022.2.4,None,
5,PRED,12,1.0927722435991274,0,images/picture_1.png,images/picture_1.png,0,"[-11.733433509789466, -11.733433509789462]",-11.733433509789464,-11.733433509789462,images/picture_2.png,1,"[11.733433509789462, -11.733433509789466]",11.733433509789462,-11.733433509789464,images/picture_3.png,2,"[11.733433509789464, 11.733433509789462]",11.733433509789464,11.733433509789462,0,1,1,1.0927722435991274,2.092772243599128,0.9072277564008726,3.0,1,1.842772243599128,0,4.0,3.0,1,2,0,0,0,0,0,1,1,5,,,,,,,135.70616066697403,135.70616066697403,136.7065127089736,137.559957999998,137.7936915839964,137.7936915839964,137.7936915839964,138.70648762499331,138.70648762499331,138.70648762499331,138.70648762499331,139.70588774999487,200008,002,2023-04-14_10h43.28.795,DMS_et_12-36,2022.2.4,None,
8,PRED,12,1.0927722435991274,0,images/picture_1.png,images/picture_1.png,0,"[-11.733433509789466, -11.733433509789462]",-11.733433509789464,-11.733433509789462,images/picture_2.png,1,"[11.733433509789462, -11.733433509789466]",11.733433509789462,-11.733433509789464,images/picture_3.png,2,"[11.733433509789464, 11.733433509789462]",11.733433509789464,11.733433509789462,0,1,1,1.0927722435991274,2.092772243599128,0.9072277564008726,3.0,1,1.842772243599128,0,4.0,3.0,1,2,0,0,0,0,0,2,2,8,,,,,,,139.70588774999487,139.70588774999487,140.7064793749887,141.5594977499859,141.79287770899828,141.79287770899828,141.79287770899828,142.70652349997545,142.70652349997545,142.70652349997545,142.70652349997545,143.70630241697654,200008,002,2023-04-14_10h43.28.795,DMS_et_12-36,2022.2.4,None,
3,PRED,12,1.0927722435991274,0,images/picture_1.png,images/picture_1.png,0,"[-11.733433509789466, -11.733433509789462]",-11.733433509789464,-11.733433509789462,images/picture_2.png,1,"[-11.733433509789462, 11.733433509789464]",-11.733433509789462,11.733433509789464,images/picture_3.png,2,"[11.733433509789464, 11.733433509789462]",11.733433509789464,11.733433509789462,0,1,1,1.0927722435991274,2.092772243599128,0.9072277564008726,3.0,1,1.842772243599128,0,4.0,3.0,1,2,0,0,0,0,0,3,3,3,,,,,,,143.70630241697654,143.70630241697654,144.70650512498105,145.5584762499784,145.7918236249825,145.7918236249825,145.7918236249825,146.70648395898752,146.70648395898752,146.70648395898752,146.70648395898752,147.70593104197178,200008,002,2023-04-14_10h43.28.795,DMS_et_12-36,2022.2.4,None,
7,PRED,12,1.0927722435991274,0,images/picture_1.png,images/picture_1.png,0,"[-11.733433509789462, 11.733433509789464]",-11.733433509789462,11.733433509789464,images/picture_2.png,1,"[11.733433509789462, -11.733433509789466]",11.733433509789462,-11.733433509789464,images/picture_3.png,2,"[11.733433509789464, 11.733433509789462]",11.733433509789464,11.733433509789462,0,1,1,1.0927722435991274,2.092772243599128,0.9072277564008726,3.0,1,1.842772243599128,0,4.0,3.0,1,2,0,0,0,0,0,4,4,7,,,,,,,147.70593104197178,147.70593104197178,148.7065044589981,149.55951691698283,149.7925365419942,149.7925365419942,149.7925365419942,150.70647891698172,150.70647891698172,150.70647891698172,150.70647891698172,151.7059300839901,200008,002,2023-04-14_10h43.28.795,DMS_et_12-36,2022.2.4,None,
4,PRED,12,1.0927722435991274,0,images/picture_1.png,images/picture_1.png,0,"[-11.733433509789466, -11.733433509789462]",-11.733433509789464,-11.733433509789462,images/picture_2.png,1,"[-11.733433509789462, 11.733433509789464]",-11.733433509789462,11.733433509789464,images/picture_3.png,2,"[11.733433509789462, -11.733433509789466]",11.733433509789462,-11.733433509789464,0,1,1,1.0927722435991274,2.092772243599128,0.9072277564008726,3.0,1,1.842772243599128,0,4.0,3.0,1,2,0,0,0,0,0,5,5,4,,,,,,,151.7059300839901,151.7059300839901,152.7065018749854,153.55953845899785,153.79295699999784,153.79295699999784,153.79295699999784,154.70650308398763,154.70650308398763,154.70650308398763,154.70650308398763,155.70618462498533,200008,002,2023-04-14_10h43.28.795,DMS_et_12-36,2022.2.4,None,
0,PRED,12,1.0927722435991274,0,images/picture_1.png,images/picture_1.png,0,"[11.733433509789464, 11.733433509789462]",11.733433509789464,11.733433509789462,images/picture_2.png,1,"[-11.733433509789466, -11.733433509789462]",-11.733433509789464,-11.733433509789462,images/picture_3.png,2,"[-11.733433509789462, 11.733433509789464]",-11.733433509789462,11.733433509789464,0,1,1,1.0927722435991274,2.092772243599128,0.9072277564008726,3.0,1,1.842772243599128,0,4.0,3.0,1,2,0,0,0,0,0,6,6,0,,,,,,,155.70618462498533,155.70618462498533,156.7064815419726,157.55961083399598,157.79296566697303,157.79296566697303,157.79296566697303,158.70650629198644,158.70650629198644,158.70650629198644,158.70650629198644,159.70597612499841,200008,002,2023-04-14_10h43.28.795,DMS_et_12-36,2022.2.4,None,
1,PRED,12,1.0927722435991274,0,images/picture_1.png,images/picture_1.png,0,"[11.733433509789464, 11.733433509789462]",11.733433509789464,11.733433509789462,images/picture_2.png,1,"[11.733433509789462, -11.733433509789466]",11.733433509789462,-11.733433509789464,images/picture_3.png,2,"[-11.733433509789466, -11.733433509789462]",-11.733433509789464,-11.733433509789462,0,1,1,1.0927722435991274,2.092772243599128,0.9072277564008726,3.0,1,1.842772243599128,0,4.0,3.0,1,2,0,0,0,0,0,7,7,1,,,,,,,159.70597612499841,159.70597612499841,160.70668420899892,161.55916583398357,161.79303012497257,161.79303012497257,161.79303012497257,162.70665779197589,162.70665779197589,162.70665779197589,162.70665779197589,163.70597970898962,200008,002,2023-04-14_10h43.28.795,DMS_et_12-36,2022.2.4,None,
6,PRED,12,1.0927722435991274,0,images/picture_1.png,images/picture_1.png,0,"[-11.733433509789462, 11.733433509789464]",-11.733433509789462,11.733433509789464,images/picture_2.png,1,"[11.733433509789462, -11.733433509789466]",11.733433509789462,-11.733433509789464,images/picture_3.png,2,"[11.733433509789464, 11.733433509789462]",11.733433509789464,11.733433509789462,0,1,1,1.0927722435991274,2.092772243599128,0.9072277564008726,3.0,1,1.842772243599128,0,4.0,3.0,1,2,0,0,0,0,0,8,8,6,,,,,,,163.70597970898962,163.70597970898962,164.7064534589881,165.5588532089896,165.7918990419712,165.7918990419712,165.7918990419712,166.70644037498278,166.70644037498278,166.70644037498278,166.70644037498278,167.7253663749725,200008,002,2023-04-14_10h43.28.795,DMS_et_12-36,2022.2.4,None,
,,,,,,,,,,,,,,,,,,,,,,,,,,,,,,,,,,,0,0,0,0,,,,,,,,,167.7253663749725,179.75853387499228,,,,,,,,,,,,,200008,002,2023-04-14_10h43.28.795,DMS_et_12-36,2022.2.4,None,
14,UNPRED,12,1.0927722435991274,1,images/picture_2.png,images/picture_1.png,0,"[11.733433509789462, -11.733433509789466]",11.733433509789462,-11.733433509789464,images/picture_2.png,1,"[-11.733433509789462, 11.733433509789464]",-11.733433509789462,11.733433509789464,images/picture_3.png,2,"[11.733433509789464, 11.733433509789462]",11.733433509789464,11.733433509789462,0,1,1,1.0927722435991274,2.092772243599128,0.9072277564008726,3.0,1,1.842772243599128,0,4.0,3.0,1,2,1,0,1,0,0,0,0,5,,,,,,,179.75853387499228,179.75853387499228,180.77320858399617,181.60667774998,181.83999379197485,181.83999379197485,181.83999379197485,182.75986308397842,182.75986308397842,182.75986308397842,182.75986308397842,183.79217941698153,200008,002,2023-04-14_10h43.28.795,DMS_et_12-36,2022.2.4,None,
12,UNPRED,12,1.0927722435991274,2,images/picture_3.png,images/picture_1.png,0,"[11.733433509789462, -11.733433509789466]",11.733433509789462,-11.733433509789464,images/picture_2.png,1,"[-11.733433509789466, -11.733433509789462]",-11.733433509789464,-11.733433509789462,images/picture_3.png,2,"[11.733433509789464, 11.733433509789462]",11.733433509789464,11.733433509789462,0,1,1,1.0927722435991274,2.092772243599128,0.9072277564008726,3.0,1,1.842772243599128,0,4.0,3.0,1,2,1,0,1,0,0,1,1,3,,,,,,,183.79217941698153,183.79217941698153,184.80670199997257,185.63999170897296,185.8596956669935,185.8596956669935,185.8596956669935,186.77298387498013,186.77298387498013,186.77298387498013,186.77298387498013,187.79259733398794,200008,002,2023-04-14_10h43.28.795,DMS_et_12-36,2022.2.4,None,
11,UNPRED,12,1.0927722435991274,2,images/picture_3.png,images/picture_1.png,0,"[-11.733433509789466, -11.733433509789462]",-11.733433509789464,-11.733433509789462,images/picture_2.png,1,"[-11.733433509789462, 11.733433509789464]",-11.733433509789462,11.733433509789464,images/picture_3.png,2,"[11.733433509789462, -11.733433509789466]",11.733433509789462,-11.733433509789464,0,1,1,1.0927722435991274,2.092772243599128,0.9072277564008726,3.0,1,1.842772243599128,0,4.0,3.0,1,2,1,0,1,0,0,2,2,2,,,,,,,187.79259733398794,187.79259733398794,188.8066364589904,189.63991462497506,189.85934566697688,189.85934566697688,189.85934566697688,190.77333720898605,190.77333720898605,190.77333720898605,190.77333720898605,191.77322899998398,200008,002,2023-04-14_10h43.28.795,DMS_et_12-36,2022.2.4,None,
10,UNPRED,12,1.0927722435991274,0,images/picture_1.png,images/picture_1.png,0,"[-11.733433509789462, 11.733433509789464]",-11.733433509789462,11.733433509789464,images/picture_2.png,1,"[11.733433509789464, 11.733433509789462]",11.733433509789464,11.733433509789462,images/picture_3.png,2,"[-11.733433509789466, -11.733433509789462]",-11.733433509789464,-11.733433509789462,0,1,1,1.0927722435991274,2.092772243599128,0.9072277564008726,3.0,1,1.842772243599128,0,4.0,3.0,1,2,1,0,1,0,0,3,3,1,,,,,,,191.77322899998398,191.77322899998398,192.77336824999657,193.62670654198155,193.8595285419724,193.8595285419724,193.8595285419724,194.773240333976,194.773240333976,194.773240333976,194.773240333976,195.77257974998793,200008,002,2023-04-14_10h43.28.795,DMS_et_12-36,2022.2.4,None,
13,UNPRED,12,1.0927722435991274,1,images/picture_2.png,images/picture_1.png,0,"[-11.733433509789466, -11.733433509789462]",-11.733433509789464,-11.733433509789462,images/picture_2.png,1,"[-11.733433509789462, 11.733433509789464]",-11.733433509789462,11.733433509789464,images/picture_3.png,2,"[11.733433509789464, 11.733433509789462]",11.733433509789464,11.733433509789462,0,1,1,1.0927722435991274,2.092772243599128,0.9072277564008726,3.0,1,1.842772243599128,0,4.0,3.0,1,2,1,0,1,0,0,4,4,4,,,,,,,195.77257974998793,195.77257974998793,196.77328520899755,197.6256297089858,197.85954479197972,197.85954479197972,197.85954479197972,198.77349887497257,198.77349887497257,198.77349887497257,198.77349887497257,199.7925607090001,200008,002,2023-04-14_10h43.28.795,DMS_et_12-36,2022.2.4,None,
15,UNPRED,12,1.0927722435991274,2,images/picture_3.png,images/picture_1.png,0,"[11.733433509789462, -11.733433509789466]",11.733433509789462,-11.733433509789464,images/picture_2.png,1,"[-11.733433509789466, -11.733433509789462]",-11.733433509789464,-11.733433509789462,images/picture_3.png,2,"[-11.733433509789462, 11.733433509789464]",-11.733433509789462,11.733433509789464,0,1,1,1.0927722435991274,2.092772243599128,0.9072277564008726,3.0,1,1.842772243599128,0,4.0,3.0,1,2,1,0,1,0,0,5,5,6,,,,,,,199.7925607090001,199.7925607090001,200.80668362497818,201.64024545898428,201.85947695898358,201.85947695898358,201.85947695898358,202.7733008749783,202.7733008749783,202.7733008749783,202.7733008749783,203.7731131669716,200008,002,2023-04-14_10h43.28.795,DMS_et_12-36,2022.2.4,None,
9,UNPRED,12,1.0927722435991274,0,images/picture_1.png,images/picture_1.png,0,"[11.733433509789462, -11.733433509789466]",11.733433509789462,-11.733433509789464,images/picture_2.png,1,"[-11.733433509789466, -11.733433509789462]",-11.733433509789464,-11.733433509789462,images/picture_3.png,2,"[-11.733433509789462, 11.733433509789464]",-11.733433509789462,11.733433509789464,0,1,1,1.0927722435991274,2.092772243599128,0.9072277564008726,3.0,1,1.842772243599128,0,4.0,3.0,1,2,1,0,1,0,0,6,6,0,,,,,,,203.7731131669716,203.7731131669716,204.77344316698145,205.62608333397657,205.85953308397438,205.85953308397438,205.85953308397438,206.7731963339902,206.7731963339902,206.7731963339902,206.7731963339902,207.77305991697358,200008,002,2023-04-14_10h43.28.795,DMS_et_12-36,2022.2.4,None,
17,UNPRED,12,1.0927722435991274,1,images/picture_2.png,images/picture_1.png,0,"[11.733433509789464, 11.733433509789462]",11.733433509789464,11.733433509789462,images/picture_2.png,1,"[-11.733433509789462, 11.733433509789464]",-11.733433509789462,11.733433509789464,images/picture_3.png,2,"[-11.733433509789466, -11.733433509789462]",-11.733433509789464,-11.733433509789462,0,1,1,1.0927722435991274,2.092772243599128,0.9072277564008726,3.0,1,1.842772243599128,0,4.0,3.0,1,2,1,0,1,0,0,7,7,8,,,,,,,207.77305991697358,207.77305991697358,208.77321200000006,209.62606545898598,209.86021874999278,209.86021874999278,209.86021874999278,210.77344870899105,210.77344870899105,210.77344870899105,210.77344870899105,211.77290045897826,200008,002,2023-04-14_10h43.28.795,DMS_et_12-36,2022.2.4,None,
16,UNPRED,12,1.0927722435991274,0,images/picture_1.png,images/picture_1.png,0,"[11.733433509789462, -11.733433509789466]",11.733433509789462,-11.733433509789464,images/picture_2.png,1,"[-11.733433509789462, 11.733433509789464]",-11.733433509789462,11.733433509789464,images/picture_3.png,2,"[-11.733433509789466, -11.733433509789462]",-11.733433509789464,-11.733433509789462,0,1,1,1.0927722435991274,2.092772243599128,0.9072277564008726,3.0,1,1.842772243599128,0,4.0,3.0,1,2,1,0,1,0,0,8,8,7,,,,,,,211.77290045897826,211.77290045897826,212.77348437497858,213.62627433397574,213.85941424997873,213.85941424997873,213.85941424997873,214.77351491697482,214.77351491697482,214.77351491697482,214.77351491697482,215.80685837499914,200008,002,2023-04-14_10h43.28.795,DMS_et_12-36,2022.2.4,None,
,,,,,,,,,,,,,,,,,,,,,,,,,,,,,,,,,,,1,0,1,0,,,,,,,,,215.80685837499914,227.82613524998305,,,,,,,,,,,,,200008,002,2023-04-14_10h43.28.795,DMS_et_12-36,2022.2.4,None,
19,PRED,12,1.0927722435991274,2,images/picture_3.png,images/picture_1.png,0,"[11.733433509789464, 11.733433509789462]",11.733433509789464,11.733433509789462,images/picture_2.png,1,"[11.733433509789462, -11.733433509789466]",11.733433509789462,-11.733433509789464,images/picture_3.png,2,"[-11.733433509789462, 11.733433509789464]",-11.733433509789462,11.733433509789464,0,1,1,1.0927722435991274,2.092772243599128,0.9072277564008726,3.0,1,1.842772243599128,0,4.0,3.0,1,2,2,0,2,0,0,0,0,1,,,,,,,227.82613524998305,227.82613524998305,228.84028229198884,229.67346541699953,229.9068125419726,229.9068125419726,229.9068125419726,230.82626866697683,230.82626866697683,230.82626866697683,230.8067329589976,231.82626533397706,200008,002,2023-04-14_10h43.28.795,DMS_et_12-36,2022.2.4,None,
18,PRED,12,1.0927722435991274,2,images/picture_3.png,images/picture_1.png,0,"[-11.733433509789462, 11.733433509789464]",-11.733433509789462,11.733433509789464,images/picture_2.png,1,"[-11.733433509789466, -11.733433509789462]",-11.733433509789464,-11.733433509789462,images/picture_3.png,2,"[11.733433509789464, 11.733433509789462]",11.733433509789464,11.733433509789462,0,1,1,1.0927722435991274,2.092772243599128,0.9072277564008726,3.0,1,1.842772243599128,0,4.0,3.0,1,2,2,0,2,0,0,1,1,0,,,,,,,231.82626533397706,231.82626533397706,232.8402222499717,233.67344712498016,233.89287079198402,233.89287079198402,233.89287079198402,234.8067474999989,234.8067474999989,234.8067474999989,234.8067474999989,235.82549383398145,200008,002,2023-04-14_10h43.28.795,DMS_et_12-36,2022.2.4,None,
24,PRED,12,1.0927722435991274,2,images/picture_3.png,images/picture_1.png,0,"[11.733433509789464, 11.733433509789462]",11.733433509789464,11.733433509789462,images/picture_2.png,1,"[-11.733433509789466, -11.733433509789462]",-11.733433509789464,-11.733433509789462,images/picture_3.png,2,"[-11.733433509789462, 11.733433509789464]",-11.733433509789462,11.733433509789464,0,1,1,1.0927722435991274,2.092772243599128,0.9072277564008726,3.0,1,1.842772243599128,0,4.0,3.0,1,2,2,0,2,0,0,2,2,6,,,,,,,235.82549383398145,235.82549383398145,236.8400041249988,237.67327020899393,237.8921967499773,237.8921967499773,237.8921967499773,238.80693058398901,238.80693058398901,238.80693058398901,238.80693058398901,239.82583141699433,200008,002,2023-04-14_10h43.28.795,DMS_et_12-36,2022.2.4,None,
23,PRED,12,1.0927722435991274,2,images/picture_3.png,images/picture_1.png,0,"[11.733433509789464, 11.733433509789462]",11.733433509789464,11.733433509789462,images/picture_2.png,1,"[-11.733433509789462, 11.733433509789464]",-11.733433509789462,11.733433509789464,images/picture_3.png,2,"[-11.733433509789466, -11.733433509789462]",-11.733433509789464,-11.733433509789462,0,1,1,1.0927722435991274,2.092772243599128,0.9072277564008726,3.0,1,1.842772243599128,0,4.0,3.0,1,2,2,0,2,0,0,3,3,5,,,,,,,239.82583141699433,239.82583141699433,240.84021995897638,241.67344591699657,241.89350166698569,241.89350166698569,241.89350166698569,242.8068805419898,242.8068805419898,242.8068805419898,242.8068805419898,243.8255977089866,200008,002,2023-04-14_10h43.28.795,DMS_et_12-36,2022.2.4,None,
20,PRED,12,1.0927722435991274,2,images/picture_3.png,images/picture_1.png,0,"[-11.733433509789466, -11.733433509789462]",-11.733433509789464,-11.733433509789462,images/picture_2.png,1,"[-11.733433509789462, 11.733433509789464]",-11.733433509789462,11.733433509789464,images/picture_3.png,2,"[11.733433509789464, 11.733433509789462]",11.733433509789464,11.733433509789462,0,1,1,1.0927722435991274,2.092772243599128,0.9072277564008726,3.0,1,1.842772243599128,0,4.0,3.0,1,2,2,0,2,0,0,4,4,2,,,,,,,243.8255977089866,243.8255977089866,244.8402304169722,245.6736208339862,245.8929783749918,245.8929783749918,245.8929783749918,246.8069332089799,246.8069332089799,246.8069332089799,246.8069332089799,247.8069199169986,200008,002,2023-04-14_10h43.28.795,DMS_et_12-36,2022.2.4,None,
22,PRED,12,1.0927722435991274,2,images/picture_3.png,images/picture_1.png,0,"[-11.733433509789462, 11.733433509789464]",-11.733433509789462,11.733433509789464,images/picture_2.png,1,"[-11.733433509789466, -11.733433509789462]",-11.733433509789464,-11.733433509789462,images/picture_3.png,2,"[11.733433509789462, -11.733433509789466]",11.733433509789462,-11.733433509789464,0,1,1,1.0927722435991274,2.092772243599128,0.9072277564008726,3.0,1,1.842772243599128,0,4.0,3.0,1,2,2,0,2,0,0,5,5,4,,,,,,,247.8069199169986,247.8069199169986,248.80651658397983,249.65960620899568,249.89342270899215,249.89342270899215,249.89342270899215,250.80701466699247,250.80701466699247,250.80701466699247,250.80701466699247,251.825747416995,200008,002,2023-04-14_10h43.28.795,DMS_et_12-36,2022.2.4,None,
25,PRED,12,1.0927722435991274,2,images/picture_3.png,images/picture_1.png,0,"[-11.733433509789466, -11.733433509789462]",-11.733433509789464,-11.733433509789462,images/picture_2.png,1,"[11.733433509789464, 11.733433509789462]",11.733433509789464,11.733433509789462,images/picture_3.png,2,"[11.733433509789462, -11.733433509789466]",11.733433509789462,-11.733433509789464,0,1,1,1.0927722435991274,2.092772243599128,0.9072277564008726,3.0,1,1.842772243599128,0,4.0,3.0,1,2,2,0,2,0,0,6,6,7,,,,,,,251.825747416995,251.825747416995,252.840228208981,253.6736687499797,253.8931824999745,253.8931824999745,253.8931824999745,254.8069526249892,254.8069526249892,254.8069526249892,254.8069526249892,255.82581833397853,200008,002,2023-04-14_10h43.28.795,DMS_et_12-36,2022.2.4,None,
26,PRED,12,1.0927722435991274,2,images/picture_3.png,images/picture_1.png,0,"[-11.733433509789466, -11.733433509789462]",-11.733433509789464,-11.733433509789462,images/picture_2.png,1,"[-11.733433509789462, 11.733433509789464]",-11.733433509789462,11.733433509789464,images/picture_3.png,2,"[11.733433509789464, 11.733433509789462]",11.733433509789464,11.733433509789462,0,1,1,1.0927722435991274,2.092772243599128,0.9072277564008726,3.0,1,1.842772243599128,0,4.0,3.0,1,2,2,0,2,0,0,7,7,8,,,,,,,255.82581833397853,255.82581833397853,256.8402099169907,257.67346420898684,257.8920871249866,257.8920871249866,257.8920871249866,258.8066239169857,258.8066239169857,258.8066239169857,258.8066239169857,259.82582662499044,200008,002,2023-04-14_10h43.28.795,DMS_et_12-36,2022.2.4,None,
21,PRED,12,1.0927722435991274,2,images/picture_3.png,images/picture_1.png,0,"[-11.733433509789466, -11.733433509789462]",-11.733433509789464,-11.733433509789462,images/picture_2.png,1,"[11.733433509789464, 11.733433509789462]",11.733433509789464,11.733433509789462,images/picture_3.png,2,"[11.733433509789462, -11.733433509789466]",11.733433509789462,-11.733433509789464,0,1,1,1.0927722435991274,2.092772243599128,0.9072277564008726,3.0,1,1.842772243599128,0,4.0,3.0,1,2,2,0,2,0,0,8,8,3,,,,,,,259.82582662499044,259.82582662499044,260.84022866698797,261.6736827089917,261.8931984999799,261.8931984999799,261.8931984999799,262.80667045898736,262.80667045898736,262.80667045898736,262.80667045898736,263.8483041249856,200008,002,2023-04-14_10h43.28.795,DMS_et_12-36,2022.2.4,None,
,,,,,,,,,,,,,,,,,,,,,,,,,,,,,,,,,,,2,0,2,0,,,,,,,,,263.8483041249856,275.87103408397525,,,,,,,,,,,,,200008,002,2023-04-14_10h43.28.795,DMS_et_12-36,2022.2.4,None,
33,UNPRED,12,1.0927722435991274,0,images/picture_1.png,images/picture_1.png,0,"[-11.733433509789466, -11.733433509789462]",-11.733433509789464,-11.733433509789462,images/picture_2.png,1,"[-11.733433509789462, 11.733433509789464]",-11.733433509789462,11.733433509789464,images/picture_3.png,2,"[11.733433509789464, 11.733433509789462]",11.733433509789464,11.733433509789462,0,1,1,1.0927722435991274,2.092772243599128,0.9072277564008726,3.0,1,1.842772243599128,0,4.0,3.0,1,2,3,0,3,0,0,0,0,6,,,,,,,275.87103408397525,275.87103408397525,276.8734374589985,277.7263602919993,277.9593608749856,277.9593608749856,277.9593608749856,278.87315537498216,278.87315537498216,278.87315537498216,278.87315537498216,279.8922895839787,200008,002,2023-04-14_10h43.28.795,DMS_et_12-36,2022.2.4,None,
28,UNPRED,12,1.0927722435991274,2,images/picture_3.png,images/picture_1.png,0,"[11.733433509789464, 11.733433509789462]",11.733433509789464,11.733433509789462,images/picture_2.png,1,"[-11.733433509789466, -11.733433509789462]",-11.733433509789464,-11.733433509789462,images/picture_3.png,2,"[-11.733433509789462, 11.733433509789464]",-11.733433509789462,11.733433509789464,0,1,1,1.0927722435991274,2.092772243599128,0.9072277564008726,3.0,1,1.842772243599128,0,4.0,3.0,1,2,3,0,3,0,0,1,1,1,,,,,,,279.8922895839787,279.8922895839787,280.90671683399705,281.739950416988,281.9594748339732,281.9594748339732,281.9594748339732,282.8734265839739,282.8734265839739,282.8734265839739,282.8734265839739,283.8928999589989,200008,002,2023-04-14_10h43.28.795,DMS_et_12-36,2022.2.4,None,
32,UNPRED,12,1.0927722435991274,2,images/picture_3.png,images/picture_1.png,0,"[11.733433509789464, 11.733433509789462]",11.733433509789464,11.733433509789462,images/picture_2.png,1,"[-11.733433509789462, 11.733433509789464]",-11.733433509789462,11.733433509789464,images/picture_3.png,2,"[11.733433509789462, -11.733433509789466]",11.733433509789462,-11.733433509789464,0,1,1,1.0927722435991274,2.092772243599128,0.9072277564008726,3.0,1,1.842772243599128,0,4.0,3.0,1,2,3,0,3,0,0,2,2,5,,,,,,,283.8928999589989,283.8928999589989,284.9067361249763,285.7400258339767,285.9593458339805,285.9593458339805,285.9593458339805,286.8735061249754,286.8735061249754,286.8735061249754,286.8735061249754,287.87299287499627,200008,002,2023-04-14_10h43.28.795,DMS_et_12-36,2022.2.4,None,
29,UNPRED,12,1.0927722435991274,0,images/picture_1.png,images/picture_1.png,0,"[11.733433509789464, 11.733433509789462]",11.733433509789464,11.733433509789462,images/picture_2.png,1,"[-11.733433509789462, 11.733433509789464]",-11.733433509789462,11.733433509789464,images/picture_3.png,2,"[-11.733433509789466, -11.733433509789462]",-11.733433509789464,-11.733433509789462,0,1,1,1.0927722435991274,2.092772243599128,0.9072277564008726,3.0,1,1.842772243599128,0,4.0,3.0,1,2,3,0,3,0,0,3,3,2,,,,,,,287.87299287499627,287.87299287499627,288.8730471249728,289.72543074999703,289.95949749997817,289.95949749997817,289.95949749997817,290.87339162497665,290.87339162497665,290.87339162497665,290.87339162497665,291.8919899999746,200008,002,2023-04-14_10h43.28.795,DMS_et_12-36,2022.2.4,None,
35,UNPRED,12,1.0927722435991274,2,images/picture_3.png,images/picture_1.png,0,"[11.733433509789464, 11.733433509789462]",11.733433509789464,11.733433509789462,images/picture_2.png,1,"[-11.733433509789462, 11.733433509789464]",-11.733433509789462,11.733433509789464,images/picture_3.png,2,"[11.733433509789462, -11.733433509789466]",11.733433509789462,-11.733433509789464,0,1,1,1.0927722435991274,2.092772243599128,0.9072277564008726,3.0,1,1.842772243599128,0,4.0,3.0,1,2,3,0,3,0,0,4,4,8,,,,,,,291.8919899999746,291.8919899999746,292.9067327499797,293.7402541669726,293.96033733399236,293.96033733399236,293.96033733399236,294.8734802919789,294.8734802919789,294.8734802919789,294.8734802919789,295.89241395899444,200008,002,2023-04-14_10h43.28.795,DMS_et_12-36,2022.2.4,None,
27,UNPRED,12,1.0927722435991274,2,images/picture_3.png,images/picture_1.png,0,"[11.733433509789462, -11.733433509789466]",11.733433509789462,-11.733433509789464,images/picture_2.png,1,"[11.733433509789464, 11.733433509789462]",11.733433509789464,11.733433509789462,images/picture_3.png,2,"[-11.733433509789462, 11.733433509789464]",-11.733433509789462,11.733433509789464,0,1,1,1.0927722435991274,2.092772243599128,0.9072277564008726,3.0,1,1.842772243599128,0,4.0,3.0,1,2,3,0,3,0,0,5,5,0,,,,,,,295.89241395899444,295.89241395899444,296.90672362499754,297.7400139999809,297.9597069999727,297.9597069999727,297.9597069999727,298.8732380839938,298.8732380839938,298.8732380839938,298.8732380839938,299.8735043339839,200008,002,2023-04-14_10h43.28.795,DMS_et_12-36,2022.2.4,None,
31,UNPRED,12,1.0927722435991274,2,images/picture_3.png,images/picture_1.png,0,"[-11.733433509789462, 11.733433509789464]",-11.733433509789462,11.733433509789464,images/picture_2.png,1,"[-11.733433509789466, -11.733433509789462]",-11.733433509789464,-11.733433509789462,images/picture_3.png,2,"[11.733433509789464, 11.733433509789462]",11.733433509789464,11.733433509789462,0,1,1,1.0927722435991274,2.092772243599128,0.9072277564008726,3.0,1,1.842772243599128,0,4.0,3.0,1,2,3,0,3,0,0,6,6,4,,,,,,,299.8735043339839,299.8735043339839,300.87345404198277,301.72602862498024,301.95968074997654,301.95968074997654,301.95968074997654,302.87346487498144,302.87346487498144,302.87346487498144,302.87346487498144,303.87320199998794,200008,002,2023-04-14_10h43.28.795,DMS_et_12-36,2022.2.4,None,
34,UNPRED,12,1.0927722435991274,0,images/picture_1.png,images/picture_1.png,0,"[11.733433509789462, -11.733433509789466]",11.733433509789462,-11.733433509789464,images/picture_2.png,1,"[-11.733433509789462, 11.733433509789464]",-11.733433509789462,11.733433509789464,images/picture_3.png,2,"[11.733433509789464, 11.733433509789462]",11.733433509789464,11.733433509789462,0,1,1,1.0927722435991274,2.092772243599128,0.9072277564008726,3.0,1,1.842772243599128,0,4.0,3.0,1,2,3,0,3,0,0,7,7,7,,,,,,,303.87320199998794,303.87320199998794,304.87350670897285,305.7266683749913,305.95956566699897,305.95956566699897,305.95956566699897,306.87349095899845,306.87349095899845,306.87349095899845,306.87349095899845,307.89237770898035,200008,002,2023-04-14_10h43.28.795,DMS_et_12-36,2022.2.4,None,
30,UNPRED,12,1.0927722435991274,2,images/picture_3.png,images/picture_1.png,0,"[-11.733433509789462, 11.733433509789464]",-11.733433509789462,11.733433509789464,images/picture_2.png,1,"[11.733433509789464, 11.733433509789462]",11.733433509789464,11.733433509789462,images/picture_3.png,2,"[11.733433509789462, -11.733433509789466]",11.733433509789462,-11.733433509789464,0,1,1,1.0927722435991274,2.092772243599128,0.9072277564008726,3.0,1,1.842772243599128,0,4.0,3.0,1,2,3,0,3,0,0,8,8,3,,,,,,,307.89237770898035,307.89237770898035,308.9066932499991,309.7398334169993,309.95864970897674,309.95864970897674,309.95864970897674,310.87347933399724,310.87347933399724,310.87347933399724,310.87347933399724,311.9239152089867,200008,002,2023-04-14_10h43.28.795,DMS_et_12-36,2022.2.4,None,
,,,,,,,,,,,,,,,,,,,,,,,,,,,,,,,,,,,3,0,3,0,,,,,,,,,311.9239152089867,323.9416512089956,,,,,,,,,,,,,200008,002,2023-04-14_10h43.28.795,DMS_et_12-36,2022.2.4,None,
36,PRED,12,1.0927722435991274,0,images/picture_1.png,images/picture_1.png,0,"[-11.733433509789466, -11.733433509789462]",-11.733433509789464,-11.733433509789462,images/picture_2.png,1,"[-11.733433509789462, 11.733433509789464]",-11.733433509789462,11.733433509789464,images/picture_3.png,2,"[11.733433509789462, -11.733433509789466]",11.733433509789462,-11.733433509789464,0,1,1,1.0927722435991274,2.092772243599128,0.9072277564008726,3.0,1,1.842772243599128,0,4.0,3.0,1,2,4,0,4,0,0,0,0,0,,,,,,,323.9416512089956,323.9416512089956,324.94029049997334,325.7930034589954,326.0402049999975,326.0402049999975,326.0402049999975,326.95987541700015,326.95987541700015,326.95987541700015,326.9401609999768,327.9395677089924,200008,002,2023-04-14_10h43.28.795,DMS_et_12-36,2022.2.4,None,
40,PRED,12,1.0927722435991274,0,images/picture_1.png,images/picture_1.png,0,"[-11.733433509789462, 11.733433509789464]",-11.733433509789462,11.733433509789464,images/picture_2.png,1,"[11.733433509789462, -11.733433509789466]",11.733433509789462,-11.733433509789464,images/picture_3.png,2,"[11.733433509789464, 11.733433509789462]",11.733433509789464,11.733433509789462,0,1,1,1.0927722435991274,2.092772243599128,0.9072277564008726,3.0,1,1.842772243599128,0,4.0,3.0,1,2,4,0,4,0,0,1,1,4,,,,,,,327.9395677089924,327.9395677089924,328.940298083995,329.7919962499873,330.0253724169743,330.0253724169743,330.0253724169743,330.940232583991,330.940232583991,330.940232583991,330.940232583991,331.9396685419779,200008,002,2023-04-14_10h43.28.795,DMS_et_12-36,2022.2.4,None,
44,PRED,12,1.0927722435991274,0,images/picture_1.png,images/picture_1.png,0,"[-11.733433509789462, 11.733433509789464]",-11.733433509789462,11.733433509789464,images/picture_2.png,1,"[-11.733433509789466, -11.733433509789462]",-11.733433509789464,-11.733433509789462,images/picture_3.png,2,"[11.733433509789464, 11.733433509789462]",11.733433509789464,11.733433509789462,0,1,1,1.0927722435991274,2.092772243599128,0.9072277564008726,3.0,1,1.842772243599128,0,4.0,3.0,1,2,4,0,4,0,0,2,2,8,,,,,,,331.9396685419779,331.9396685419779,332.94018820897327,333.7928497089888,334.0263691250002,334.0263691250002,334.0263691250002,334.9401847089757,334.9401847089757,334.9401847089757,334.9401847089757,335.9397749999771,200008,002,2023-04-14_10h43.28.795,DMS_et_12-36,2022.2.4,None,
41,PRED,12,1.0927722435991274,0,images/picture_1.png,images/picture_1.png,0,"[-11.733433509789462, 11.733433509789464]",-11.733433509789462,11.733433509789464,images/picture_2.png,1,"[-11.733433509789466, -11.733433509789462]",-11.733433509789464,-11.733433509789462,images/picture_3.png,2,"[11.733433509789464, 11.733433509789462]",11.733433509789464,11.733433509789462,0,1,1,1.0927722435991274,2.092772243599128,0.9072277564008726,3.0,1,1.842772243599128,0,4.0,3.0,1,2,4,0,4,0,0,3,3,5,,,,,,,335.9397749999771,335.9397749999771,336.9401907089923,337.793340958975,338.0262009999715,338.0262009999715,338.0262009999715,338.94024979198,338.94024979198,338.94024979198,338.94024979198,339.93974099998013,200008,002,2023-04-14_10h43.28.795,DMS_et_12-36,2022.2.4,None,
39,PRED,12,1.0927722435991274,0,images/picture_1.png,images/picture_1.png,0,"[-11.733433509789466, -11.733433509789462]",-11.733433509789464,-11.733433509789462,images/picture_2.png,1,"[11.733433509789464, 11.733433509789462]",11.733433509789464,11.733433509789462,images/picture_3.png,2,"[11.733433509789462, -11.733433509789466]",11.733433509789462,-11.733433509789464,0,1,1,1.0927722435991274,2.092772243599128,0.9072277564008726,3.0,1,1.842772243599128,0,4.0,3.0,1,2,4,0,4,0,0,4,4,3,,,,,,,339.93974099998013,339.93974099998013,340.9402893749939,341.7929449589865,342.0262762499915,342.0262762499915,342.0262762499915,342.9398137089738,342.9398137089738,342.9398137089738,342.9398137089738,343.93976929198834,200008,002,2023-04-14_10h43.28.795,DMS_et_12-36,2022.2.4,None,
38,PRED,12,1.0927722435991274,0,images/picture_1.png,images/picture_1.png,0,"[11.733433509789464, 11.733433509789462]",11.733433509789464,11.733433509789462,images/picture_2.png,1,"[-11.733433509789466, -11.733433509789462]",-11.733433509789464,-11.733433509789462,images/picture_3.png,2,"[-11.733433509789462, 11.733433509789464]",-11.733433509789462,11.733433509789464,0,1,1,1.0927722435991274,2.092772243599128,0.9072277564008726,3.0,1,1.842772243599128,0,4.0,3.0,1,2,4,0,4,0,0,5,5,2,,,,,,,343.93976929198834,343.93976929198834,344.9401902089885,345.7932261249807,346.0265149169718,346.0265149169718,346.0265149169718,346.9402512089873,346.9402512089873,346.9402512089873,346.9402512089873,347.9396942499734,200008,002,2023-04-14_10h43.28.795,DMS_et_12-36,2022.2.4,None,
37,PRED,12,1.0927722435991274,0,images/picture_1.png,images/picture_1.png,0,"[11.733433509789462, -11.733433509789466]",11.733433509789462,-11.733433509789464,images/picture_2.png,1,"[11.733433509789464, 11.733433509789462]",11.733433509789464,11.733433509789462,images/picture_3.png,2,"[-11.733433509789466, -11.733433509789462]",-11.733433509789464,-11.733433509789462,0,1,1,1.0927722435991274,2.092772243599128,0.9072277564008726,3.0,1,1.842772243599128,0,4.0,3.0,1,2,4,0,4,0,0,6,6,1,,,,,,,347.9396942499734,347.9396942499734,348.94022979197325,349.793235249992,350.0260885839816,350.0260885839816,350.0260885839816,350.9397844589839,350.9397844589839,350.9397844589839,350.9397844589839,351.93994945898885,200008,002,2023-04-14_10h43.28.795,DMS_et_12-36,2022.2.4,None,
43,PRED,12,1.0927722435991274,0,images/picture_1.png,images/picture_1.png,0,"[-11.733433509789462, 11.733433509789464]",-11.733433509789462,11.733433509789464,images/picture_2.png,1,"[11.733433509789464, 11.733433509789462]",11.733433509789464,11.733433509789462,images/picture_3.png,2,"[11.733433509789462, -11.733433509789466]",11.733433509789462,-11.733433509789464,0,1,1,1.0927722435991274,2.092772243599128,0.9072277564008726,3.0,1,1.842772243599128,0,4.0,3.0,1,2,4,0,4,0,0,7,7,7,,,,,,,351.93994945898885,351.93994945898885,352.94022912497167,353.79330645897426,354.0263632919814,354.0263632919814,354.0263632919814,354.94024016699404,354.94024016699404,354.94024016699404,354.94024016699404,355.9396103339968,200008,002,2023-04-14_10h43.28.795,DMS_et_12-36,2022.2.4,None,
42,PRED,12,1.0927722435991274,0,images/picture_1.png,images/picture_1.png,0,"[-11.733433509789466, -11.733433509789462]",-11.733433509789464,-11.733433509789462,images/picture_2.png,1,"[11.733433509789462, -11.733433509789466]",11.733433509789462,-11.733433509789464,images/picture_3.png,2,"[-11.733433509789462, 11.733433509789464]",-11.733433509789462,11.733433509789464,0,1,1,1.0927722435991274,2.092772243599128,0.9072277564008726,3.0,1,1.842772243599128,0,4.0,3.0,1,2,4,0,4,0,0,8,8,6,,,,,,,355.9396103339968,355.9396103339968,356.9402591669932,357.79299937497126,358.02628429199103,358.02628429199103,358.02628429199103,358.94017637497745,358.94017637497745,358.94017637497745,358.94017637497745,359.99945937498705,200008,002,2023-04-14_10h43.28.795,DMS_et_12-36,2022.2.4,None,
,,,,,,,,,,,,,,,,,,,,,,,,,,,,,,,,,,,4,0,4,0,,,,,,,,,359.99945937498705,372.0371487089724,,,,,,,,,,,,,200008,002,2023-04-14_10h43.28.795,DMS_et_12-36,2022.2.4,None,
49,UNPRED,12,1.0927722435991274,2,images/picture_3.png,images/picture_1.png,0,"[11.733433509789464, 11.733433509789462]",11.733433509789464,11.733433509789462,images/picture_2.png,1,"[-11.733433509789466, -11.733433509789462]",-11.733433509789464,-11.733433509789462,images/picture_3.png,2,"[-11.733433509789462, 11.733433509789464]",-11.733433509789462,11.733433509789464,0,1,1,1.0927722435991274,2.092772243599128,0.9072277564008726,3.0,1,1.842772243599128,0,4.0,3.0,1,2,5,0,5,0,0,0,0,4,,,,,,,372.0371487089724,372.0371487089724,373.04021741697215,373.89325079199625,374.1264549169864,374.1264549169864,374.1264549169864,375.04027279198635,375.04027279198635,375.04027279198635,375.02629912499106,376.0399579999794,200008,002,2023-04-14_10h43.28.795,DMS_et_12-36,2022.2.4,None,
53,UNPRED,12,1.0927722435991274,1,images/picture_2.png,images/picture_1.png,0,"[-11.733433509789466, -11.733433509789462]",-11.733433509789464,-11.733433509789462,images/picture_2.png,1,"[-11.733433509789462, 11.733433509789464]",-11.733433509789462,11.733433509789464,images/picture_3.png,2,"[11.733433509789462, -11.733433509789466]",11.733433509789462,-11.733433509789464,0,1,1,1.0927722435991274,2.092772243599128,0.9072277564008726,3.0,1,1.842772243599128,0,4.0,3.0,1,2,5,0,5,0,0,1,1,8,,,,,,,376.0399579999794,376.0399579999794,377.0402833749831,377.8931369589991,378.12646812497405,378.12646812497405,378.12646812497405,379.0402917919855,379.0402917919855,379.0402917919855,379.0402917919855,380.03946579198237,200008,002,2023-04-14_10h43.28.795,DMS_et_12-36,2022.2.4,None,
51,UNPRED,12,1.0927722435991274,1,images/picture_2.png,images/picture_1.png,0,"[-11.733433509789466, -11.733433509789462]",-11.733433509789464,-11.733433509789462,images/picture_2.png,1,"[11.733433509789464, 11.733433509789462]",11.733433509789464,11.733433509789462,images/picture_3.png,2,"[-11.733433509789462, 11.733433509789464]",-11.733433509789462,11.733433509789464,0,1,1,1.0927722435991274,2.092772243599128,0.9072277564008726,3.0,1,1.842772243599128,0,4.0,3.0,1,2,5,0,5,0,0,2,2,6,,,,,,,380.03946579198237,380.03946579198237,381.04008974999306,381.8921834589855,382.1266650839825,382.1266650839825,382.1266650839825,383.04042812497937,383.04042812497937,383.04042812497937,383.04042812497937,384.03982712497236,200008,002,2023-04-14_10h43.28.795,DMS_et_12-36,2022.2.4,None,
47,UNPRED,12,1.0927722435991274,1,images/picture_2.png,images/picture_1.png,0,"[11.733433509789462, -11.733433509789466]",11.733433509789462,-11.733433509789464,images/picture_2.png,1,"[11.733433509789464, 11.733433509789462]",11.733433509789464,11.733433509789462,images/picture_3.png,2,"[-11.733433509789466, -11.733433509789462]",-11.733433509789464,-11.733433509789462,0,1,1,1.0927722435991274,2.092772243599128,0.9072277564008726,3.0,1,1.842772243599128,0,4.0,3.0,1,2,5,0,5,0,0,3,3,2,,,,,,,384.03982712497236,384.03982712497236,385.04028124999604,385.893326874997,386.1265709999716,386.1265709999716,386.1265709999716,387.04024037497584,387.04024037497584,387.04024037497584,387.04024037497584,388.04104741697665,200008,002,2023-04-14_10h43.28.795,DMS_et_12-36,2022.2.4,None,
52,UNPRED,12,1.0927722435991274,1,images/picture_2.png,images/picture_1.png,0,"[-11.733433509789466, -11.733433509789462]",-11.733433509789464,-11.733433509789462,images/picture_2.png,1,"[-11.733433509789462, 11.733433509789464]",-11.733433509789462,11.733433509789464,images/picture_3.png,2,"[11.733433509789462, -11.733433509789466]",11.733433509789462,-11.733433509789464,0,1,1,1.0927722435991274,2.092772243599128,0.9072277564008726,3.0,1,1.842772243599128,0,4.0,3.0,1,2,5,0,5,0,0,4,4,7,,,,,,,388.04104741697665,388.04104741697665,389.04042899998603,389.89295908398344,390.12608212497435,390.12608212497435,390.12608212497435,391.04036304197507,391.04036304197507,391.04036304197507,391.04036304197507,392.0399529999995,200008,002,2023-04-14_10h43.28.795,DMS_et_12-36,2022.2.4,None,
50,UNPRED,12,1.0927722435991274,0,images/picture_1.png,images/picture_1.png,0,"[-11.733433509789462, 11.733433509789464]",-11.733433509789462,11.733433509789464,images/picture_2.png,1,"[-11.733433509789466, -11.733433509789462]",-11.733433509789464,-11.733433509789462,images/picture_3.png,2,"[11.733433509789462, -11.733433509789466]",11.733433509789462,-11.733433509789464,0,1,1,1.0927722435991274,2.092772243599128,0.9072277564008726,3.0,1,1.842772243599128,0,4.0,3.0,1,2,5,0,5,0,0,5,5,5,,,,,,,392.0399529999995,392.0399529999995,393.0404356249783,393.89303820897476,394.1267139169795,394.1267139169795,394.1267139169795,395.04021495897905,395.04021495897905,395.04021495897905,395.04021495897905,396.0400800839998,200008,002,2023-04-14_10h43.28.795,DMS_et_12-36,2022.2.4,None,
46,UNPRED,12,1.0927722435991274,0,images/picture_1.png,images/picture_1.png,0,"[11.733433509789462, -11.733433509789466]",11.733433509789462,-11.733433509789464,images/picture_2.png,1,"[-11.733433509789466, -11.733433509789462]",-11.733433509789464,-11.733433509789462,images/picture_3.png,2,"[11.733433509789464, 11.733433509789462]",11.733433509789464,11.733433509789462,0,1,1,1.0927722435991274,2.092772243599128,0.9072277564008726,3.0,1,1.842772243599128,0,4.0,3.0,1,2,5,0,5,0,0,6,6,1,,,,,,,396.0400800839998,396.0400800839998,397.0404249589774,397.8932461249933,398.1264807919797,398.1264807919797,398.1264807919797,399.0402726249886,399.0402726249886,399.0402726249886,399.0402726249886,400.05983787498553,200008,002,2023-04-14_10h43.28.795,DMS_et_12-36,2022.2.4,None,
45,UNPRED,12,1.0927722435991274,2,images/picture_3.png,images/picture_1.png,0,"[11.733433509789464, 11.733433509789462]",11.733433509789464,11.733433509789462,images/picture_2.png,1,"[11.733433509789462, -11.733433509789466]",11.733433509789462,-11.733433509789464,images/picture_3.png,2,"[-11.733433509789466, -11.733433509789462]",-11.733433509789464,-11.733433509789462,0,1,1,1.0927722435991274,2.092772243599128,0.9072277564008726,3.0,1,1.842772243599128,0,4.0,3.0,1,2,5,0,5,0,0,7,7,0,,,,,,,400.05983787498553,400.05983787498553,401.07370995898964,401.9067807919928,402.12557591698715,402.12557591698715,402.12557591698715,403.0403877499921,403.0403877499921,403.0403877499921,403.0403877499921,404.04043529197224,200008,002,2023-04-14_10h43.28.795,DMS_et_12-36,2022.2.4,None,
48,UNPRED,12,1.0927722435991274,1,images/picture_2.png,images/picture_1.png,0,"[11.733433509789464, 11.733433509789462]",11.733433509789464,11.733433509789462,images/picture_2.png,1,"[-11.733433509789462, 11.733433509789464]",-11.733433509789462,11.733433509789464,images/picture_3.png,2,"[-11.733433509789466, -11.733433509789462]",-11.733433509789464,-11.733433509789462,0,1,1,1.0927722435991274,2.092772243599128,0.9072277564008726,3.0,1,1.842772243599128,0,4.0,3.0,1,2,5,0,5,0,0,8,8,3,,,,,,,404.04043529197224,404.04043529197224,405.0402743749728,405.8930397499935,406.12662458399427,406.12662458399427,406.12662458399427,407.0404156249715,407.0404156249715,407.0404156249715,407.0404156249715,408.1588574589987,200008,002,2023-04-14_10h43.28.795,DMS_et_12-36,2022.2.4,None,
,,,,,,,,,,,,,,,,,,,,,,,,,,,,,,,,,,,5,0,5,0,,,,,,,,,408.1588574589987,420.19394904197543,,,,,,,,,,,,,200008,002,2023-04-14_10h43.28.795,DMS_et_12-36,2022.2.4,None,
56,PRED,12,1.0927722435991274,1,images/picture_2.png,images/picture_1.png,0,"[-11.733433509789466, -11.733433509789462]",-11.733433509789464,-11.733433509789462,images/picture_2.png,1,"[-11.733433509789462, 11.733433509789464]",-11.733433509789462,11.733433509789464,images/picture_3.png,2,"[11.733433509789462, -11.733433509789466]",11.733433509789462,-11.733433509789464,0,1,1,1.0927722435991274,2.092772243599128,0.9072277564008726,3.0,1,1.842772243599128,0,4.0,3.0,1,2,6,0,6,0,0,0,0,2,,,,,,,420.19394904197543,420.19394904197543,421.20700258397846,422.04020949997357,422.29236962497816,422.29236962497816,422.29236962497816,423.2071818339755,423.2071818339755,423.2071818339755,423.1932117919787,424.2065091249824,200008,002,2023-04-14_10h43.28.795,DMS_et_12-36,2022.2.4,None,
55,PRED,12,1.0927722435991274,1,images/picture_2.png,images/picture_1.png,0,"[-11.733433509789466, -11.733433509789462]",-11.733433509789464,-11.733433509789462,images/picture_2.png,1,"[11.733433509789464, 11.733433509789462]",11.733433509789464,11.733433509789462,images/picture_3.png,2,"[11.733433509789462, -11.733433509789466]",11.733433509789462,-11.733433509789464,0,1,1,1.0927722435991274,2.092772243599128,0.9072277564008726,3.0,1,1.842772243599128,0,4.0,3.0,1,2,6,0,6,0,0,1,1,1,,,,,,,424.2065091249824,424.2065091249824,425.2071642089868,426.06050104199676,426.2932967499946,426.2932967499946,426.2932967499946,427.20697474997723,427.20697474997723,427.20697474997723,427.20697474997723,428.20691208398785,200008,002,2023-04-14_10h43.28.795,DMS_et_12-36,2022.2.4,None,
59,PRED,12,1.0927722435991274,1,images/picture_2.png,images/picture_1.png,0,"[11.733433509789464, 11.733433509789462]",11.733433509789464,11.733433509789462,images/picture_2.png,1,"[11.733433509789462, -11.733433509789466]",11.733433509789462,-11.733433509789464,images/picture_3.png,2,"[-11.733433509789466, -11.733433509789462]",-11.733433509789464,-11.733433509789462,0,1,1,1.0927722435991274,2.092772243599128,0.9072277564008726,3.0,1,1.842772243599128,0,4.0,3.0,1,2,6,0,6,0,0,2,2,5,,,,,,,428.20691208398785,428.20691208398785,429.2071910839877,430.05975087499246,430.2931958339759,430.2931958339759,430.2931958339759,431.2069540419907,431.2069540419907,431.2069540419907,431.2069540419907,432.2067497499811,200008,002,2023-04-14_10h43.28.795,DMS_et_12-36,2022.2.4,None,
62,PRED,12,1.0927722435991274,1,images/picture_2.png,images/picture_1.png,0,"[11.733433509789462, -11.733433509789466]",11.733433509789462,-11.733433509789464,images/picture_2.png,1,"[11.733433509789464, 11.733433509789462]",11.733433509789464,11.733433509789462,images/picture_3.png,2,"[-11.733433509789462, 11.733433509789464]",-11.733433509789462,11.733433509789464,0,1,1,1.0927722435991274,2.092772243599128,0.9072277564008726,3.0,1,1.842772243599128,0,4.0,3.0,1,2,6,0,6,0,0,3,3,8,,,,,,,432.2067497499811,432.2067497499811,433.2068672919995,434.0600084589969,434.2932320419932,434.2932320419932,434.2932320419932,435.20713941697613,435.20713941697613,435.20713941697613,435.20713941697613,436.2059644589899,200008,002,2023-04-14_10h43.28.795,DMS_et_12-36,2022.2.4,None,
54,PRED,12,1.0927722435991274,1,images/picture_2.png,images/picture_1.png,0,"[-11.733433509789462, 11.733433509789464]",-11.733433509789462,11.733433509789464,images/picture_2.png,1,"[-11.733433509789466, -11.733433509789462]",-11.733433509789464,-11.733433509789462,images/picture_3.png,2,"[11.733433509789462, -11.733433509789466]",11.733433509789462,-11.733433509789464,0,1,1,1.0927722435991274,2.092772243599128,0.9072277564008726,3.0,1,1.842772243599128,0,4.0,3.0,1,2,6,0,6,0,0,4,4,0,,,,,,,436.2059644589899,436.2059644589899,437.2073514589865,438.05998808398726,438.2931912499771,438.2931912499771,438.2931912499771,439.20733145897975,439.20733145897975,439.20733145897975,439.20733145897975,440.2066802919726,200008,002,2023-04-14_10h43.28.795,DMS_et_12-36,2022.2.4,None,
57,PRED,12,1.0927722435991274,1,images/picture_2.png,images/picture_1.png,0,"[11.733433509789462, -11.733433509789466]",11.733433509789462,-11.733433509789464,images/picture_2.png,1,"[11.733433509789464, 11.733433509789462]",11.733433509789464,11.733433509789462,images/picture_3.png,2,"[-11.733433509789466, -11.733433509789462]",-11.733433509789464,-11.733433509789462,0,1,1,1.0927722435991274,2.092772243599128,0.9072277564008726,3.0,1,1.842772243599128,0,4.0,3.0,1,2,6,0,6,0,0,5,5,3,,,,,,,440.2066802919726,440.2066802919726,441.20695599998,442.059892499994,442.29290083399974,442.29290083399974,442.29290083399974,443.2070332499861,443.2070332499861,443.2070332499861,443.2070332499861,444.2066150419996,200008,002,2023-04-14_10h43.28.795,DMS_et_12-36,2022.2.4,None,
61,PRED,12,1.0927722435991274,1,images/picture_2.png,images/picture_1.png,0,"[-11.733433509789462, 11.733433509789464]",-11.733433509789462,11.733433509789464,images/picture_2.png,1,"[11.733433509789462, -11.733433509789466]",11.733433509789462,-11.733433509789464,images/picture_3.png,2,"[11.733433509789464, 11.733433509789462]",11.733433509789464,11.733433509789462,0,1,1,1.0927722435991274,2.092772243599128,0.9072277564008726,3.0,1,1.842772243599128,0,4.0,3.0,1,2,6,0,6,0,0,6,6,7,,,,,,,444.2066150419996,444.2066150419996,445.20711749998736,446.05998633397394,446.2934784589743,446.2934784589743,446.2934784589743,447.20714158398914,447.20714158398914,447.20714158398914,447.20714158398914,448.2061277499888,200008,002,2023-04-14_10h43.28.795,DMS_et_12-36,2022.2.4,None,
60,PRED,12,1.0927722435991274,1,images/picture_2.png,images/picture_1.png,0,"[-11.733433509789466, -11.733433509789462]",-11.733433509789464,-11.733433509789462,images/picture_2.png,1,"[-11.733433509789462, 11.733433509789464]",-11.733433509789462,11.733433509789464,images/picture_3.png,2,"[11.733433509789464, 11.733433509789462]",11.733433509789464,11.733433509789462,0,1,1,1.0927722435991274,2.092772243599128,0.9072277564008726,3.0,1,1.842772243599128,0,4.0,3.0,1,2,6,0,6,0,0,7,7,6,,,,,,,448.2061277499888,448.2061277499888,449.2071226249973,450.06004637497244,450.29394541698275,450.29394541698275,450.29394541698275,451.207178541983,451.207178541983,451.207178541983,451.207178541983,452.2067076669773,200008,002,2023-04-14_10h43.28.795,DMS_et_12-36,2022.2.4,None,
58,PRED,12,1.0927722435991274,1,images/picture_2.png,images/picture_1.png,0,"[11.733433509789464, 11.733433509789462]",11.733433509789464,11.733433509789462,images/picture_2.png,1,"[-11.733433509789466, -11.733433509789462]",-11.733433509789464,-11.733433509789462,images/picture_3.png,2,"[11.733433509789462, -11.733433509789466]",11.733433509789462,-11.733433509789464,0,1,1,1.0927722435991274,2.092772243599128,0.9072277564008726,3.0,1,1.842772243599128,0,4.0,3.0,1,2,6,0,6,0,0,8,8,4,,,,,,,452.2067076669773,452.2067076669773,453.2069448339753,454.059991874994,454.2930696249823,454.2930696249823,454.2930696249823,455.2073124589806,455.2073124589806,455.2073124589806,455.2073124589806,456.2884059169737,200008,002,2023-04-14_10h43.28.795,DMS_et_12-36,2022.2.4,None,
,,,,,,,,,,,,,,,,,,,,,,,,,,,,,,,,,,,6,0,6,0,,,,,,,,,456.2884059169737,468.3082317499793,,,,,,,,,,,,,200008,002,2023-04-14_10h43.28.795,DMS_et_12-36,2022.2.4,None,
71,UNPRED,12,1.0927722435991274,1,images/picture_2.png,images/picture_1.png,0,"[11.733433509789464, 11.733433509789462]",11.733433509789464,11.733433509789462,images/picture_2.png,1,"[11.733433509789462, -11.733433509789466]",11.733433509789462,-11.733433509789464,images/picture_3.png,2,"[-11.733433509789462, 11.733433509789464]",-11.733433509789462,11.733433509789464,0,1,1,1.0927722435991274,2.092772243599128,0.9072277564008726,3.0,1,1.842772243599128,0,4.0,3.0,1,2,7,0,7,0,0,0,0,8,,,,,,,468.3082317499793,468.3082317499793,469.3072104169987,470.1596019169956,470.40719208397786,470.40719208397786,470.40719208397786,471.3268180419982,471.3268180419982,471.3268180419982,471.3072604589979,472.3067683749832,200008,002,2023-04-14_10h43.28.795,DMS_et_12-36,2022.2.4,None,
66,UNPRED,12,1.0927722435991274,0,images/picture_1.png,images/picture_1.png,0,"[-11.733433509789466, -11.733433509789462]",-11.733433509789464,-11.733433509789462,images/picture_2.png,1,"[-11.733433509789462, 11.733433509789464]",-11.733433509789462,11.733433509789464,images/picture_3.png,2,"[11.733433509789464, 11.733433509789462]",11.733433509789464,11.733433509789462,0,1,1,1.0927722435991274,2.092772243599128,0.9072277564008726,3.0,1,1.842772243599128,0,4.0,3.0,1,2,7,0,7,0,0,1,1,3,,,,,,,472.3067683749832,472.3067683749832,473.30693412499386,474.159216,474.39289091699175,474.39289091699175,474.39289091699175,475.3071363749914,475.3071363749914,475.3071363749914,475.3071363749914,476.3070716249931,200008,002,2023-04-14_10h43.28.795,DMS_et_12-36,2022.2.4,None,
69,UNPRED,12,1.0927722435991274,0,images/picture_1.png,images/picture_1.png,0,"[11.733433509789462, -11.733433509789466]",11.733433509789462,-11.733433509789464,images/picture_2.png,1,"[-11.733433509789462, 11.733433509789464]",-11.733433509789462,11.733433509789464,images/picture_3.png,2,"[11.733433509789464, 11.733433509789462]",11.733433509789464,11.733433509789462,0,1,1,1.0927722435991274,2.092772243599128,0.9072277564008726,3.0,1,1.842772243599128,0,4.0,3.0,1,2,7,0,7,0,0,2,2,6,,,,,,,476.3070716249931,476.3070716249931,477.30718562498805,478.16018179198727,478.3934202499804,478.3934202499804,478.3934202499804,479.3076660419756,479.3076660419756,479.3076660419756,479.3076660419756,480.3065801669727,200008,002,2023-04-14_10h43.28.795,DMS_et_12-36,2022.2.4,None,
67,UNPRED,12,1.0927722435991274,0,images/picture_1.png,images/picture_1.png,0,"[-11.733433509789466, -11.733433509789462]",-11.733433509789464,-11.733433509789462,images/picture_2.png,1,"[11.733433509789462, -11.733433509789466]",11.733433509789462,-11.733433509789464,images/picture_3.png,2,"[11.733433509789464, 11.733433509789462]",11.733433509789464,11.733433509789462,0,1,1,1.0927722435991274,2.092772243599128,0.9072277564008726,3.0,1,1.842772243599128,0,4.0,3.0,1,2,7,0,7,0,0,3,3,4,,,,,,,480.3065801669727,480.3065801669727,481.3071879169729,482.15968087498914,482.39330129197333,482.39330129197333,482.39330129197333,483.3073730839824,483.3073730839824,483.3073730839824,483.3073730839824,484.30697912498727,200008,002,2023-04-14_10h43.28.795,DMS_et_12-36,2022.2.4,None,
70,UNPRED,12,1.0927722435991274,0,images/picture_1.png,images/picture_1.png,0,"[-11.733433509789466, -11.733433509789462]",-11.733433509789464,-11.733433509789462,images/picture_2.png,1,"[11.733433509789464, 11.733433509789462]",11.733433509789464,11.733433509789462,images/picture_3.png,2,"[-11.733433509789462, 11.733433509789464]",-11.733433509789462,11.733433509789464,0,1,1,1.0927722435991274,2.092772243599128,0.9072277564008726,3.0,1,1.842772243599128,0,4.0,3.0,1,2,7,0,7,0,0,4,4,7,,,,,,,484.30697912498727,484.30697912498727,485.3074892089935,486.1599785419821,486.3933809589944,486.3933809589944,486.3933809589944,487.30724804199417,487.30724804199417,487.30724804199417,487.30724804199417,488.3261483339884,200008,002,2023-04-14_10h43.28.795,DMS_et_12-36,2022.2.4,None,
64,UNPRED,12,1.0927722435991274,2,images/picture_3.png,images/picture_1.png,0,"[11.733433509789464, 11.733433509789462]",11.733433509789464,11.733433509789462,images/picture_2.png,1,"[11.733433509789462, -11.733433509789466]",11.733433509789462,-11.733433509789464,images/picture_3.png,2,"[-11.733433509789462, 11.733433509789464]",-11.733433509789462,11.733433509789464,0,1,1,1.0927722435991274,2.092772243599128,0.9072277564008726,3.0,1,1.842772243599128,0,4.0,3.0,1,2,7,0,7,0,0,5,5,1,,,,,,,488.3261483339884,488.3261483339884,489.3405034589814,490.1740433749801,490.39363312497153,490.39363312497153,490.39363312497153,491.30743324998184,491.30743324998184,491.30743324998184,491.30743324998184,492.30717862499296,200008,002,2023-04-14_10h43.28.795,DMS_et_12-36,2022.2.4,None,
65,UNPRED,12,1.0927722435991274,1,images/picture_2.png,images/picture_1.png,0,"[11.733433509789464, 11.733433509789462]",11.733433509789464,11.733433509789462,images/picture_2.png,1,"[-11.733433509789466, -11.733433509789462]",-11.733433509789464,-11.733433509789462,images/picture_3.png,2,"[11.733433509789462, -11.733433509789466]",11.733433509789462,-11.733433509789464,0,1,1,1.0927722435991274,2.092772243599128,0.9072277564008726,3.0,1,1.842772243599128,0,4.0,3.0,1,2,7,0,7,0,0,6,6,2,,,,,,,492.30717862499296,492.30717862499296,493.30726395899546,494.15958629199304,494.39248220899026,494.39248220899026,494.39248220899026,495.30727341698366,495.30727341698366,495.30727341698366,495.30727341698366,496.3067965839873,200008,002,2023-04-14_10h43.28.795,DMS_et_12-36,2022.2.4,None,
63,UNPRED,12,1.0927722435991274,0,images/picture_1.png,images/picture_1.png,0,"[11.733433509789462, -11.733433509789466]",11.733433509789462,-11.733433509789464,images/picture_2.png,1,"[-11.733433509789462, 11.733433509789464]",-11.733433509789462,11.733433509789464,images/picture_3.png,2,"[11.733433509789464, 11.733433509789462]",11.733433509789464,11.733433509789462,0,1,1,1.0927722435991274,2.092772243599128,0.9072277564008726,3.0,1,1.842772243599128,0,4.0,3.0,1,2,7,0,7,0,0,7,7,0,,,,,,,496.3067965839873,496.3067965839873,497.30744820897235,498.1606386669737,498.3933790419833,498.3933790419833,498.3933790419833,499.30722358397907,499.30722358397907,499.30722358397907,499.30722358397907,500.3264981669781,200008,002,2023-04-14_10h43.28.795,DMS_et_12-36,2022.2.4,None,
68,UNPRED,12,1.0927722435991274,2,images/picture_3.png,images/picture_1.png,0,"[-11.733433509789462, 11.733433509789464]",-11.733433509789462,11.733433509789464,images/picture_2.png,1,"[11.733433509789464, 11.733433509789462]",11.733433509789464,11.733433509789462,images/picture_3.png,2,"[-11.733433509789466, -11.733433509789462]",-11.733433509789464,-11.733433509789462,0,1,1,1.0927722435991274,2.092772243599128,0.9072277564008726,3.0,1,1.842772243599128,0,4.0,3.0,1,2,7,0,7,0,0,8,8,5,,,,,,,500.3264981669781,500.3264981669781,501.3406082499714,502.1739112089854,502.3933837499935,502.3933837499935,502.3933837499935,503.30731404197286,503.30731404197286,503.30731404197286,503.30731404197286,504.3755151669902,200008,002,2023-04-14_10h43.28.795,DMS_et_12-36,2022.2.4,None,
,,,,,,,,,,,,,,,,,,,,,,,,,,,,,,,,,,,7,0,7,0,,,,,,,,,504.3755151669902,516.4045917499752,,,,,,,,,,,,,200008,002,2023-04-14_10h43.28.795,DMS_et_12-36,2022.2.4,None,
72,PRED,12,1.0927722435991274,2,images/picture_3.png,images/picture_1.png,0,"[11.733433509789462, -11.733433509789466]",11.733433509789462,-11.733433509789464,images/picture_2.png,1,"[-11.733433509789466, -11.733433509789462]",-11.733433509789464,-11.733433509789462,images/picture_3.png,2,"[11.733433509789464, 11.733433509789462]",11.733433509789464,11.733433509789462,0,1,1,1.0927722435991274,2.092772243599128,0.9072277564008726,3.0,1,1.842772243599128,0,4.0,3.0,1,2,8,0,8,0,0,0,0,0,,,,,,,516.4045917499752,516.4045917499752,517.4072784589953,518.260204249993,518.4936067919771,518.4936067919771,518.4936067919771,519.4072433339898,519.4072433339898,519.4072433339898,519.3935484999965,520.4260571249761,200008,002,2023-04-14_10h43.28.795,DMS_et_12-36,2022.2.4,None,
74,PRED,12,1.0927722435991274,2,images/picture_3.png,images/picture_1.png,0,"[11.733433509789462, -11.733433509789466]",11.733433509789462,-11.733433509789464,images/picture_2.png,1,"[-11.733433509789462, 11.733433509789464]",-11.733433509789462,11.733433509789464,images/picture_3.png,2,"[11.733433509789464, 11.733433509789462]",11.733433509789464,11.733433509789462,0,1,1,1.0927722435991274,2.092772243599128,0.9072277564008726,3.0,1,1.842772243599128,0,4.0,3.0,1,2,8,0,8,0,0,1,1,2,,,,,,,520.4260571249761,520.4260571249761,521.4405108749925,522.2741360839864,522.4936877499858,522.4936877499858,522.4936877499858,523.4074685839878,523.4074685839878,523.4074685839878,523.4074685839878,524.4262647499854,200008,002,2023-04-14_10h43.28.795,DMS_et_12-36,2022.2.4,None,
77,PRED,12,1.0927722435991274,2,images/picture_3.png,images/picture_1.png,0,"[-11.733433509789466, -11.733433509789462]",-11.733433509789464,-11.733433509789462,images/picture_2.png,1,"[-11.733433509789462, 11.733433509789464]",-11.733433509789462,11.733433509789464,images/picture_3.png,2,"[11.733433509789464, 11.733433509789462]",11.733433509789464,11.733433509789462,0,1,1,1.0927722435991274,2.092772243599128,0.9072277564008726,3.0,1,1.842772243599128,0,4.0,3.0,1,2,8,0,8,0,0,2,2,5,,,,,,,524.4262647499854,524.4262647499854,525.4404349999968,526.2740025839885,526.4933548749832,526.4933548749832,526.4933548749832,527.4072544169903,527.4072544169903,527.4072544169903,527.4072544169903,528.4268682499824,200008,002,2023-04-14_10h43.28.795,DMS_et_12-36,2022.2.4,None,
78,PRED,12,1.0927722435991274,2,images/picture_3.png,images/picture_1.png,0,"[11.733433509789464, 11.733433509789462]",11.733433509789464,11.733433509789462,images/picture_2.png,1,"[11.733433509789462, -11.733433509789466]",11.733433509789462,-11.733433509789464,images/picture_3.png,2,"[-11.733433509789466, -11.733433509789462]",-11.733433509789464,-11.733433509789462,0,1,1,1.0927722435991274,2.092772243599128,0.9072277564008726,3.0,1,1.842772243599128,0,4.0,3.0,1,2,8,0,8,0,0,3,3,6,,,,,,,528.4268682499824,528.4268682499824,529.4408300839714,530.2738671669795,530.493347791984,530.493347791984,530.493347791984,531.4072716249793,531.4072716249793,531.4072716249793,531.4072716249793,532.429481166997,200008,002,2023-04-14_10h43.28.795,DMS_et_12-36,2022.2.4,None,
76,PRED,12,1.0927722435991274,2,images/picture_3.png,images/picture_1.png,0,"[-11.733433509789462, 11.733433509789464]",-11.733433509789462,11.733433509789464,images/picture_2.png,1,"[-11.733433509789466, -11.733433509789462]",-11.733433509789464,-11.733433509789462,images/picture_3.png,2,"[11.733433509789464, 11.733433509789462]",11.733433509789464,11.733433509789462,0,1,1,1.0927722435991274,2.092772243599128,0.9072277564008726,3.0,1,1.842772243599128,0,4.0,3.0,1,2,8,0,8,0,0,4,4,4,,,,,,,532.429481166997,532.429481166997,533.440787458996,534.2739656669728,534.4938944169844,534.4938944169844,534.4938944169844,535.407283833978,535.407283833978,535.407283833978,535.407283833978,536.4266145839938,200008,002,2023-04-14_10h43.28.795,DMS_et_12-36,2022.2.4,None,
80,PRED,12,1.0927722435991274,2,images/picture_3.png,images/picture_1.png,0,"[11.733433509789462, -11.733433509789466]",11.733433509789462,-11.733433509789464,images/picture_2.png,1,"[-11.733433509789466, -11.733433509789462]",-11.733433509789464,-11.733433509789462,images/picture_3.png,2,"[11.733433509789464, 11.733433509789462]",11.733433509789464,11.733433509789462,0,1,1,1.0927722435991274,2.092772243599128,0.9072277564008726,3.0,1,1.842772243599128,0,4.0,3.0,1,2,8,0,8,0,0,5,5,8,,,,,,,536.4266145839938,536.4266145839938,537.4407448339916,538.2740265839966,538.4933524999942,538.4933524999942,538.4933524999942,539.4072536669846,539.4072536669846,539.4072536669846,539.4072536669846,540.4267620419851,200008,002,2023-04-14_10h43.28.795,DMS_et_12-36,2022.2.4,None,
73,PRED,12,1.0927722435991274,2,images/picture_3.png,images/picture_1.png,0,"[11.733433509789464, 11.733433509789462]",11.733433509789464,11.733433509789462,images/picture_2.png,1,"[11.733433509789462, -11.733433509789466]",11.733433509789462,-11.733433509789464,images/picture_3.png,2,"[-11.733433509789462, 11.733433509789464]",-11.733433509789462,11.733433509789464,0,1,1,1.0927722435991274,2.092772243599128,0.9072277564008726,3.0,1,1.842772243599128,0,4.0,3.0,1,2,8,0,8,0,0,6,6,1,,,,,,,540.4267620419851,540.4267620419851,541.4407508749864,542.2741582089802,542.4941137919959,542.4941137919959,542.4941137919959,543.4074158339936,543.4074158339936,543.4074158339936,543.4074158339936,544.4263372919813,200008,002,2023-04-14_10h43.28.795,DMS_et_12-36,2022.2.4,None,
75,PRED,12,1.0927722435991274,2,images/picture_3.png,images/picture_1.png,0,"[-11.733433509789462, 11.733433509789464]",-11.733433509789462,11.733433509789464,images/picture_2.png,1,"[-11.733433509789466, -11.733433509789462]",-11.733433509789464,-11.733433509789462,images/picture_3.png,2,"[11.733433509789462, -11.733433509789466]",11.733433509789462,-11.733433509789464,0,1,1,1.0927722435991274,2.092772243599128,0.9072277564008726,3.0,1,1.842772243599128,0,4.0,3.0,1,2,8,0,8,0,0,7,7,3,,,,,,,544.4263372919813,544.4263372919813,545.4402964589826,546.2737695839896,546.4942144589731,546.4942144589731,546.4942144589731,547.4074514589738,547.4074514589738,547.4074514589738,547.4074514589738,548.4264119589934,200008,002,2023-04-14_10h43.28.795,DMS_et_12-36,2022.2.4,None,
79,PRED,12,1.0927722435991274,2,images/picture_3.png,images/picture_1.png,0,"[-11.733433509789466, -11.733433509789462]",-11.733433509789464,-11.733433509789462,images/picture_2.png,1,"[-11.733433509789462, 11.733433509789464]",-11.733433509789462,11.733433509789464,images/picture_3.png,2,"[11.733433509789462, -11.733433509789466]",11.733433509789462,-11.733433509789464,0,1,1,1.0927722435991274,2.092772243599128,0.9072277564008726,3.0,1,1.842772243599128,0,4.0,3.0,1,2,8,0,8,0,0,8,8,7,,,,,,,548.4264119589934,548.4264119589934,549.4407124999852,550.2739928749797,550.4937925839913,550.4937925839913,550.4937925839913,551.4072762919823,551.4072762919823,551.4072762919823,551.4072762919823,552.5024819589744,200008,002,2023-04-14_10h43.28.795,DMS_et_12-36,2022.2.4,None,
,,,,,,,,,,,,,,,,,,,,,,,,,,,,,,,,,,,8,0,8,0,,,,,,,,,552.5024819589744,564.5310011669935,,,,,,,,,,,,,200008,002,2023-04-14_10h43.28.795,DMS_et_12-36,2022.2.4,None,
84,UNPRED,12,1.0927722435991274,0,images/picture_1.png,images/picture_1.png,0,"[11.733433509789464, 11.733433509789462]",11.733433509789464,11.733433509789462,images/picture_2.png,1,"[11.733433509789462, -11.733433509789466]",11.733433509789462,-11.733433509789464,images/picture_3.png,2,"[-11.733433509789462, 11.733433509789464]",-11.733433509789462,11.733433509789464,0,1,1,1.0927722435991274,2.092772243599128,0.9072277564008726,3.0,1,1.842772243599128,0,4.0,3.0,1,2,9,0,9,0,0,0,0,3,,,,,,,564.5310011669935,564.5310011669935,565.5408589999715,566.3738337919931,566.6259583339852,566.6259583339852,566.6259583339852,567.5407654999872,567.5407654999872,567.5407654999872,567.5269680419879,568.5402040419867,200008,002,2023-04-14_10h43.28.795,DMS_et_12-36,2022.2.4,None,
86,UNPRED,12,1.0927722435991274,1,images/picture_2.png,images/picture_1.png,0,"[11.733433509789464, 11.733433509789462]",11.733433509789464,11.733433509789462,images/picture_2.png,1,"[11.733433509789462, -11.733433509789466]",11.733433509789462,-11.733433509789464,images/picture_3.png,2,"[-11.733433509789462, 11.733433509789464]",-11.733433509789462,11.733433509789464,0,1,1,1.0927722435991274,2.092772243599128,0.9072277564008726,3.0,1,1.842772243599128,0,4.0,3.0,1,2,9,0,9,0,0,1,1,5,,,,,,,568.5402040419867,568.5402040419867,569.5408125419926,570.393365291995,570.6272420839814,570.6272420839814,570.6272420839814,571.5407283749955,571.5407283749955,571.5407283749955,571.5407283749955,572.5403272499971,200008,002,2023-04-14_10h43.28.795,DMS_et_12-36,2022.2.4,None,
85,UNPRED,12,1.0927722435991274,0,images/picture_1.png,images/picture_1.png,0,"[11.733433509789462, -11.733433509789466]",11.733433509789462,-11.733433509789464,images/picture_2.png,1,"[11.733433509789464, 11.733433509789462]",11.733433509789464,11.733433509789462,images/picture_3.png,2,"[-11.733433509789462, 11.733433509789464]",-11.733433509789462,11.733433509789464,0,1,1,1.0927722435991274,2.092772243599128,0.9072277564008726,3.0,1,1.842772243599128,0,4.0,3.0,1,2,9,0,9,0,0,2,2,4,,,,,,,572.5403272499971,572.5403272499971,573.5407458749833,574.3937057499716,574.6270176249964,574.6270176249964,574.6270176249964,575.5407279589854,575.5407279589854,575.5407279589854,575.5407279589854,576.5595099999919,200008,002,2023-04-14_10h43.28.795,DMS_et_12-36,2022.2.4,None,
81,UNPRED,12,1.0927722435991274,2,images/picture_3.png,images/picture_1.png,0,"[11.733433509789462, -11.733433509789466]",11.733433509789462,-11.733433509789464,images/picture_2.png,1,"[-11.733433509789462, 11.733433509789464]",-11.733433509789462,11.733433509789464,images/picture_3.png,2,"[-11.733433509789466, -11.733433509789462]",-11.733433509789464,-11.733433509789462,0,1,1,1.0927722435991274,2.092772243599128,0.9072277564008726,3.0,1,1.842772243599128,0,4.0,3.0,1,2,9,0,9,0,0,3,3,0,,,,,,,576.5595099999919,576.5595099999919,577.5741814999783,578.4072016669961,578.6267290419783,578.6267290419783,578.6267290419783,579.5409599589766,579.5409599589766,579.5409599589766,579.5409599589766,580.5600484589813,200008,002,2023-04-14_10h43.28.795,DMS_et_12-36,2022.2.4,None,
83,UNPRED,12,1.0927722435991274,2,images/picture_3.png,images/picture_1.png,0,"[11.733433509789464, 11.733433509789462]",11.733433509789464,11.733433509789462,images/picture_2.png,1,"[-11.733433509789466, -11.733433509789462]",-11.733433509789464,-11.733433509789462,images/picture_3.png,2,"[11.733433509789462, -11.733433509789466]",11.733433509789462,-11.733433509789464,0,1,1,1.0927722435991274,2.092772243599128,0.9072277564008726,3.0,1,1.842772243599128,0,4.0,3.0,1,2,9,0,9,0,0,4,4,2,,,,,,,580.5600484589813,580.5600484589813,581.5742209169839,582.4072955419833,582.626972166996,582.626972166996,582.626972166996,583.5407726249832,583.5407726249832,583.5407726249832,583.5407726249832,584.5404035419924,200008,002,2023-04-14_10h43.28.795,DMS_et_12-36,2022.2.4,None,
82,UNPRED,12,1.0927722435991274,1,images/picture_2.png,images/picture_1.png,0,"[-11.733433509789462, 11.733433509789464]",-11.733433509789462,11.733433509789464,images/picture_2.png,1,"[11.733433509789462, -11.733433509789466]",11.733433509789462,-11.733433509789464,images/picture_3.png,2,"[-11.733433509789466, -11.733433509789462]",-11.733433509789464,-11.733433509789462,0,1,1,1.0927722435991274,2.092772243599128,0.9072277564008726,3.0,1,1.842772243599128,0,4.0,3.0,1,2,9,0,9,0,0,5,5,1,,,,,,,584.5404035419924,584.5404035419924,585.5407621669874,586.3927968339995,586.6259705419943,586.6259705419943,586.6259705419943,587.540767916973,587.540767916973,587.540767916973,587.540767916973,588.5407663339865,200008,002,2023-04-14_10h43.28.795,DMS_et_12-36,2022.2.4,None,
88,UNPRED,12,1.0927722435991274,0,images/picture_1.png,images/picture_1.png,0,"[11.733433509789464, 11.733433509789462]",11.733433509789464,11.733433509789462,images/picture_2.png,1,"[-11.733433509789462, 11.733433509789464]",-11.733433509789462,11.733433509789464,images/picture_3.png,2,"[-11.733433509789466, -11.733433509789462]",-11.733433509789464,-11.733433509789462,0,1,1,1.0927722435991274,2.092772243599128,0.9072277564008726,3.0,1,1.842772243599128,0,4.0,3.0,1,2,9,0,9,0,0,6,6,7,,,,,,,588.5407663339865,588.5407663339865,589.5407304999826,590.3935881249781,590.6271004589798,590.6271004589798,590.6271004589798,591.5409918749938,591.5409918749938,591.5409918749938,591.5409918749938,592.540297666972,200008,002,2023-04-14_10h43.28.795,DMS_et_12-36,2022.2.4,None,
87,UNPRED,12,1.0927722435991274,1,images/picture_2.png,images/picture_1.png,0,"[11.733433509789464, 11.733433509789462]",11.733433509789464,11.733433509789462,images/picture_2.png,1,"[-11.733433509789462, 11.733433509789464]",-11.733433509789462,11.733433509789464,images/picture_3.png,2,"[-11.733433509789466, -11.733433509789462]",-11.733433509789464,-11.733433509789462,0,1,1,1.0927722435991274,2.092772243599128,0.9072277564008726,3.0,1,1.842772243599128,0,4.0,3.0,1,2,9,0,9,0,0,7,7,6,,,,,,,592.540297666972,592.540297666972,593.5410387919983,594.3935912499728,594.6270379589987,594.6270379589987,594.6270379589987,595.5409558749816,595.5409558749816,595.5409558749816,595.5409558749816,596.5405436669826,200008,002,2023-04-14_10h43.28.795,DMS_et_12-36,2022.2.4,None,
89,UNPRED,12,1.0927722435991274,1,images/picture_2.png,images/picture_1.png,0,"[-11.733433509789466, -11.733433509789462]",-11.733433509789464,-11.733433509789462,images/picture_2.png,1,"[-11.733433509789462, 11.733433509789464]",-11.733433509789462,11.733433509789464,images/picture_3.png,2,"[11.733433509789462, -11.733433509789466]",11.733433509789462,-11.733433509789464,0,1,1,1.0927722435991274,2.092772243599128,0.9072277564008726,3.0,1,1.842772243599128,0,4.0,3.0,1,2,9,0,9,0,0,8,8,8,,,,,,,596.5405436669826,596.5405436669826,597.5406359589833,598.3935859169869,598.6275786669867,598.6275786669867,598.6275786669867,599.5407952499809,599.5407952499809,599.5407952499809,599.5407952499809,600.6455656249891,200008,002,2023-04-14_10h43.28.795,DMS_et_12-36,2022.2.4,None,
,,,,,,,,,,,,,,,,,,,,,,,,,,,,,,,,,,,9,0,9,0,,,,,,,,,600.6455656249891,612.6810421669798,,,,,,,,,,,,,200008,002,2023-04-14_10h43.28.795,DMS_et_12-36,2022.2.4,None,
96,PRED,12,1.0927722435991274,1,images/picture_2.png,images/picture_1.png,0,"[-11.733433509789466, -11.733433509789462]",-11.733433509789464,-11.733433509789462,images/picture_2.png,1,"[11.733433509789464, 11.733433509789462]",11.733433509789464,11.733433509789462,images/picture_3.png,2,"[-11.733433509789462, 11.733433509789464]",-11.733433509789462,11.733433509789464,0,1,1,1.0927722435991274,2.092772243599128,0.9072277564008726,3.0,1,1.842772243599128,0,4.0,3.0,1,2,10,0,10,0,0,0,0,6,,,,,,,612.6810421669798,612.6810421669798,613.6942326669814,614.5273810419894,614.7742392919899,614.7742392919899,614.7742392919899,615.6934191249893,615.6934191249893,615.6934191249893,615.6742097919923,616.6736426249845,200008,002,2023-04-14_10h43.28.795,DMS_et_12-36,2022.2.4,None,
95,PRED,12,1.0927722435991274,1,images/picture_2.png,images/picture_1.png,0,"[-11.733433509789462, 11.733433509789464]",-11.733433509789462,11.733433509789464,images/picture_2.png,1,"[11.733433509789464, 11.733433509789462]",11.733433509789464,11.733433509789462,images/picture_3.png,2,"[11.733433509789462, -11.733433509789466]",11.733433509789462,-11.733433509789464,0,1,1,1.0927722435991274,2.092772243599128,0.9072277564008726,3.0,1,1.842772243599128,0,4.0,3.0,1,2,10,0,10,0,0,1,1,5,,,,,,,616.6736426249845,616.6736426249845,617.6738925839891,618.5270504169748,618.7604715419875,618.7604715419875,618.7604715419875,619.6742212919926,619.6742212919926,619.6742212919926,619.6742212919926,620.6738383339834,200008,002,2023-04-14_10h43.28.795,DMS_et_12-36,2022.2.4,None,
90,PRED,12,1.0927722435991274,1,images/picture_2.png,images/picture_1.png,0,"[11.733433509789464, 11.733433509789462]",11.733433509789464,11.733433509789462,images/picture_2.png,1,"[11.733433509789462, -11.733433509789466]",11.733433509789462,-11.733433509789464,images/picture_3.png,2,"[-11.733433509789462, 11.733433509789464]",-11.733433509789462,11.733433509789464,0,1,1,1.0927722435991274,2.092772243599128,0.9072277564008726,3.0,1,1.842772243599128,0,4.0,3.0,1,2,10,0,10,0,0,2,2,0,,,,,,,620.6738383339834,620.6738383339834,621.6742569999769,622.5269086669723,622.7605694999802,622.7605694999802,622.7605694999802,623.674215624982,623.674215624982,623.674215624982,623.674215624982,624.673968749994,200008,002,2023-04-14_10h43.28.795,DMS_et_12-36,2022.2.4,None,
97,PRED,12,1.0927722435991274,1,images/picture_2.png,images/picture_1.png,0,"[-11.733433509789462, 11.733433509789464]",-11.733433509789462,11.733433509789464,images/picture_2.png,1,"[11.733433509789464, 11.733433509789462]",11.733433509789464,11.733433509789462,images/picture_3.png,2,"[11.733433509789462, -11.733433509789466]",11.733433509789462,-11.733433509789464,0,1,1,1.0927722435991274,2.092772243599128,0.9072277564008726,3.0,1,1.842772243599128,0,4.0,3.0,1,2,10,0,10,0,0,3,3,7,,,,,,,624.673968749994,624.673968749994,625.6742315839801,626.5276299589896,626.7605279999843,626.7605279999843,626.7605279999843,627.674054958974,627.674054958974,627.674054958974,627.674054958974,628.6737286249991,200008,002,2023-04-14_10h43.28.795,DMS_et_12-36,2022.2.4,None,
98,PRED,12,1.0927722435991274,1,images/picture_2.png,images/picture_1.png,0,"[11.733433509789462, -11.733433509789466]",11.733433509789462,-11.733433509789464,images/picture_2.png,1,"[-11.733433509789462, 11.733433509789464]",-11.733433509789462,11.733433509789464,images/picture_3.png,2,"[11.733433509789464, 11.733433509789462]",11.733433509789464,11.733433509789462,0,1,1,1.0927722435991274,2.092772243599128,0.9072277564008726,3.0,1,1.842772243599128,0,4.0,3.0,1,2,10,0,10,0,0,4,4,8,,,,,,,628.6737286249991,628.6737286249991,629.6742260839965,630.5269546249765,630.7608181249816,630.7608181249816,630.7608181249816,631.674246791983,631.674246791983,631.674246791983,631.674246791983,632.6737546249933,200008,002,2023-04-14_10h43.28.795,DMS_et_12-36,2022.2.4,None,
94,PRED,12,1.0927722435991274,1,images/picture_2.png,images/picture_1.png,0,"[-11.733433509789466, -11.733433509789462]",-11.733433509789464,-11.733433509789462,images/picture_2.png,1,"[-11.733433509789462, 11.733433509789464]",-11.733433509789462,11.733433509789464,images/picture_3.png,2,"[11.733433509789464, 11.733433509789462]",11.733433509789464,11.733433509789462,0,1,1,1.0927722435991274,2.092772243599128,0.9072277564008726,3.0,1,1.842772243599128,0,4.0,3.0,1,2,10,0,10,0,0,5,5,4,,,,,,,632.6737546249933,632.6737546249933,633.6741856669832,634.5270372919913,634.760409208975,634.760409208975,634.760409208975,635.6742488339951,635.6742488339951,635.6742488339951,635.6742488339951,636.673723541986,200008,002,2023-04-14_10h43.28.795,DMS_et_12-36,2022.2.4,None,
91,PRED,12,1.0927722435991274,1,images/picture_2.png,images/picture_1.png,0,"[11.733433509789464, 11.733433509789462]",11.733433509789464,11.733433509789462,images/picture_2.png,1,"[-11.733433509789462, 11.733433509789464]",-11.733433509789462,11.733433509789464,images/picture_3.png,2,"[-11.733433509789466, -11.733433509789462]",-11.733433509789464,-11.733433509789462,0,1,1,1.0927722435991274,2.092772243599128,0.9072277564008726,3.0,1,1.842772243599128,0,4.0,3.0,1,2,10,0,10,0,0,6,6,1,,,,,,,636.673723541986,636.673723541986,637.6739237499714,638.52618729198,638.7600057089876,638.7600057089876,638.7600057089876,639.6742184169998,639.6742184169998,639.6742184169998,639.6742184169998,640.6738081249932,200008,002,2023-04-14_10h43.28.795,DMS_et_12-36,2022.2.4,None,
93,PRED,12,1.0927722435991274,1,images/picture_2.png,images/picture_1.png,0,"[-11.733433509789462, 11.733433509789464]",-11.733433509789462,11.733433509789464,images/picture_2.png,1,"[11.733433509789462, -11.733433509789466]",11.733433509789462,-11.733433509789464,images/picture_3.png,2,"[11.733433509789464, 11.733433509789462]",11.733433509789464,11.733433509789462,0,1,1,1.0927722435991274,2.092772243599128,0.9072277564008726,3.0,1,1.842772243599128,0,4.0,3.0,1,2,10,0,10,0,0,7,7,3,,,,,,,640.6738081249932,640.6738081249932,641.6742303749779,642.5268691669917,642.760215583985,642.760215583985,642.760215583985,643.6742204169859,643.6742204169859,643.6742204169859,643.6742204169859,644.6738866249798,200008,002,2023-04-14_10h43.28.795,DMS_et_12-36,2022.2.4,None,
92,PRED,12,1.0927722435991274,1,images/picture_2.png,images/picture_1.png,0,"[11.733433509789464, 11.733433509789462]",11.733433509789464,11.733433509789462,images/picture_2.png,1,"[-11.733433509789466, -11.733433509789462]",-11.733433509789464,-11.733433509789462,images/picture_3.png,2,"[11.733433509789462, -11.733433509789466]",11.733433509789462,-11.733433509789464,0,1,1,1.0927722435991274,2.092772243599128,0.9072277564008726,3.0,1,1.842772243599128,0,4.0,3.0,1,2,10,0,10,0,0,8,8,2,,,,,,,644.6738866249798,644.6738866249798,645.6742011669849,646.5267779589922,646.7604390419729,646.7604390419729,646.7604390419729,647.6742889169836,647.6742889169836,647.6742889169836,647.6742889169836,648.7704183749738,200008,002,2023-04-14_10h43.28.795,DMS_et_12-36,2022.2.4,None,
,,,,,,,,,,,,,,,,,,,,,,,,,,,,,,,,,,,10,0,10,0,,,,,,,,,648.7704183749738,660.8095172089816,,,,,,,,,,,,,200008,002,2023-04-14_10h43.28.795,DMS_et_12-36,2022.2.4,None,
106,UNPRED,12,1.0927722435991274,2,images/picture_3.png,images/picture_1.png,0,"[-11.733433509789466, -11.733433509789462]",-11.733433509789464,-11.733433509789462,images/picture_2.png,1,"[-11.733433509789462, 11.733433509789464]",-11.733433509789462,11.733433509789464,images/picture_3.png,2,"[11.733433509789462, -11.733433509789466]",11.733433509789462,-11.733433509789464,0,1,1,1.0927722435991274,2.092772243599128,0.9072277564008726,3.0,1,1.842772243599128,0,4.0,3.0,1,2,11,0,11,0,0,0,0,7,,,,,,,660.8095172089816,660.8095172089816,661.8077366669895,662.6607448750001,662.8937957499875,662.8937957499875,662.8937957499875,663.807672416995,663.807672416995,663.807672416995,663.7941898339777,664.827250124974,200008,002,2023-04-14_10h43.28.795,DMS_et_12-36,2022.2.4,None,
103,UNPRED,12,1.0927722435991274,2,images/picture_3.png,images/picture_1.png,0,"[-11.733433509789466, -11.733433509789462]",-11.733433509789464,-11.733433509789462,images/picture_2.png,1,"[-11.733433509789462, 11.733433509789464]",-11.733433509789462,11.733433509789464,images/picture_3.png,2,"[11.733433509789462, -11.733433509789466]",11.733433509789462,-11.733433509789464,0,1,1,1.0927722435991274,2.092772243599128,0.9072277564008726,3.0,1,1.842772243599128,0,4.0,3.0,1,2,11,0,11,0,0,1,1,4,,,,,,,664.827250124974,664.827250124974,665.8409451249754,666.674242374982,666.8938613749924,666.8938613749924,666.8938613749924,667.8072747499973,667.8072747499973,667.8072747499973,667.8072747499973,668.8262754999741,200008,002,2023-04-14_10h43.28.795,DMS_et_12-36,2022.2.4,None,
104,UNPRED,12,1.0927722435991274,2,images/picture_3.png,images/picture_1.png,0,"[11.733433509789462, -11.733433509789466]",11.733433509789462,-11.733433509789464,images/picture_2.png,1,"[11.733433509789464, 11.733433509789462]",11.733433509789464,11.733433509789462,images/picture_3.png,2,"[-11.733433509789466, -11.733433509789462]",-11.733433509789464,-11.733433509789462,0,1,1,1.0927722435991274,2.092772243599128,0.9072277564008726,3.0,1,1.842772243599128,0,4.0,3.0,1,2,11,0,11,0,0,2,2,5,,,,,,,668.8262754999741,668.8262754999741,669.8409743749944,670.6744492919825,670.893750874995,670.893750874995,670.893750874995,671.8076583749789,671.8076583749789,671.8076583749789,671.8076583749789,672.8261433339794,200008,002,2023-04-14_10h43.28.795,DMS_et_12-36,2022.2.4,None,
105,UNPRED,12,1.0927722435991274,2,images/picture_3.png,images/picture_1.png,0,"[11.733433509789464, 11.733433509789462]",11.733433509789464,11.733433509789462,images/picture_2.png,1,"[-11.733433509789466, -11.733433509789462]",-11.733433509789464,-11.733433509789462,images/picture_3.png,2,"[-11.733433509789462, 11.733433509789464]",-11.733433509789462,11.733433509789464,0,1,1,1.0927722435991274,2.092772243599128,0.9072277564008726,3.0,1,1.842772243599128,0,4.0,3.0,1,2,11,0,11,0,0,3,3,6,,,,,,,672.8261433339794,672.8261433339794,673.8410186249821,674.6744230839831,674.8936549589853,674.8936549589853,674.8936549589853,675.8077068339917,675.8077068339917,675.8077068339917,675.8077068339917,676.8264275839902,200008,002,2023-04-14_10h43.28.795,DMS_et_12-36,2022.2.4,None,
100,UNPRED,12,1.0927722435991274,2,images/picture_3.png,images/picture_1.png,0,"[-11.733433509789466, -11.733433509789462]",-11.733433509789464,-11.733433509789462,images/picture_2.png,1,"[11.733433509789464, 11.733433509789462]",11.733433509789464,11.733433509789462,images/picture_3.png,2,"[-11.733433509789462, 11.733433509789464]",-11.733433509789462,11.733433509789464,0,1,1,1.0927722435991274,2.092772243599128,0.9072277564008726,3.0,1,1.842772243599128,0,4.0,3.0,1,2,11,0,11,0,0,4,4,1,,,,,,,676.8264275839902,676.8264275839902,677.8410307089798,678.6740252919844,678.8928520839836,678.8928520839836,678.8928520839836,679.8077979999944,679.8077979999944,679.8077979999944,679.8077979999944,680.82646487499,200008,002,2023-04-14_10h43.28.795,DMS_et_12-36,2022.2.4,None,
107,UNPRED,12,1.0927722435991274,2,images/picture_3.png,images/picture_1.png,0,"[11.733433509789462, -11.733433509789466]",11.733433509789462,-11.733433509789464,images/picture_2.png,1,"[-11.733433509789466, -11.733433509789462]",-11.733433509789464,-11.733433509789462,images/picture_3.png,2,"[11.733433509789464, 11.733433509789462]",11.733433509789464,11.733433509789462,0,1,1,1.0927722435991274,2.092772243599128,0.9072277564008726,3.0,1,1.842772243599128,0,4.0,3.0,1,2,11,0,11,0,0,5,5,8,,,,,,,680.82646487499,680.82646487499,681.841161083983,682.6744424589851,682.8937543749926,682.8937543749926,682.8937543749926,683.8076782089774,683.8076782089774,683.8076782089774,683.8076782089774,684.826660458988,200008,002,2023-04-14_10h43.28.795,DMS_et_12-36,2022.2.4,None,
101,UNPRED,12,1.0927722435991274,2,images/picture_3.png,images/picture_1.png,0,"[-11.733433509789466, -11.733433509789462]",-11.733433509789464,-11.733433509789462,images/picture_2.png,1,"[-11.733433509789462, 11.733433509789464]",-11.733433509789462,11.733433509789464,images/picture_3.png,2,"[11.733433509789462, -11.733433509789466]",11.733433509789462,-11.733433509789464,0,1,1,1.0927722435991274,2.092772243599128,0.9072277564008726,3.0,1,1.842772243599128,0,4.0,3.0,1,2,11,0,11,0,0,6,6,2,,,,,,,684.826660458988,684.826660458988,685.8409569589712,686.6742564589949,686.8938466249965,686.8938466249965,686.8938466249965,687.8077612089983,687.8077612089983,687.8077612089983,687.8077612089983,688.8071162089764,200008,002,2023-04-14_10h43.28.795,DMS_et_12-36,2022.2.4,None,
102,UNPRED,12,1.0927722435991274,0,images/picture_1.png,images/picture_1.png,0,"[11.733433509789464, 11.733433509789462]",11.733433509789464,11.733433509789462,images/picture_2.png,1,"[-11.733433509789466, -11.733433509789462]",-11.733433509789464,-11.733433509789462,images/picture_3.png,2,"[11.733433509789462, -11.733433509789466]",11.733433509789462,-11.733433509789464,0,1,1,1.0927722435991274,2.092772243599128,0.9072277564008726,3.0,1,1.842772243599128,0,4.0,3.0,1,2,11,0,11,0,0,7,7,3,,,,,,,688.8071162089764,688.8071162089764,689.8074006249954,690.6603790419758,690.894601041975,690.894601041975,690.894601041975,691.8077223749715,691.8077223749715,691.8077223749715,691.8077223749715,692.8080877919856,200008,002,2023-04-14_10h43.28.795,DMS_et_12-36,2022.2.4,None,
99,UNPRED,12,1.0927722435991274,1,images/picture_2.png,images/picture_1.png,0,"[11.733433509789462, -11.733433509789466]",11.733433509789462,-11.733433509789464,images/picture_2.png,1,"[-11.733433509789462, 11.733433509789464]",-11.733433509789462,11.733433509789464,images/picture_3.png,2,"[-11.733433509789466, -11.733433509789462]",-11.733433509789464,-11.733433509789462,0,1,1,1.0927722435991274,2.092772243599128,0.9072277564008726,3.0,1,1.842772243599128,0,4.0,3.0,1,2,11,0,11,0,0,8,8,0,,,,,,,692.8080877919856,692.8080877919856,693.8075798339851,694.6605762499967,694.8938398749742,694.8938398749742,694.8938398749742,695.8078330839926,695.8078330839926,695.8078330839926,695.8078330839926,696.9777532089793,200008,002,2023-04-14_10h43.28.795,DMS_et_12-36,2022.2.4,None,
,,,,,,,,,,,,,,,,,,,,,,,,,,,,,,,,,,,11,0,11,0,,,,,,,,,696.9777532089793,709.1043869999994,,,,,,,,,,,,,200008,002,2023-04-14_10h43.28.795,DMS_et_12-36,2022.2.4,None,
,,,,,,,,,,,,,,,,,,,,,,,,,,,,,,,,,,,,,,,,,,,,,,,709.1043869999994,721.6370214169729,,,,,,,,,,,,,,,,,,,
