trial_count,blockType,blockNum,delay_time,stimImage_i,stimImage,responseImage1,responseImage1_i,responseImage1_pos,responseImage1_X,responseImage1_Y,responseImage2,responseImage2_i,responseImage2_pos,responseImage2_X,responseImage2_Y,responseImage3,responseImage3_i,responseImage3_pos,responseImage3_X,responseImage3_Y,cue_onset,cue_dur,delay_onset,delay_dur,resp_onset,resp_dur,rest_onset,rest_dur,circle_dur,circle_onset,total_dur,cross_onset,cross_dur,delay_resp_period,blocks.thisRepN,blocks.thisTrialN,blocks.thisN,blocks.thisIndex,trials.thisRepN,trials.thisTrialN,trials.thisN,trials.thisIndex,key_resp.started,text.started,key_resp.keys,key_resp.rt,text_2.started,text_2.stopped,sample.started,Delay.started,sample.stopped,Delay.stopped,Response_1.started,Response_2.started,Response_3.started,polygon.started,Response_1.stopped,Response_2.stopped,Response_3.stopped,polygon.stopped,participant,session,date,expName,psychopyVersion,frameRate,
,,,,,,,,,,,,,,,,,,,,,,,,,,,,,,,,,,,,,,,,,,,52.10246187500161,52.10246187500161,t,69.6514509999979,,,,,,,,,,,,,,,200006,005,2023-04-07_11h28.09.141,DMS_et_12-36,2022.2.4,None,
2,PRED,12,0.6458442310748047,0,images/picture_1.png,images/picture_1.png,0,"[11.733433509789462, -11.733433509789466]",11.733433509789462,-11.733433509789464,images/picture_2.png,1,"[-11.733433509789462, 11.733433509789464]",-11.733433509789462,11.733433509789464,images/picture_3.png,2,"[-11.733433509789466, -11.733433509789462]",-11.733433509789464,-11.733433509789462,0,1,1,0.6458442310748047,1.6458442310748047,1.3541557689251953,3.0,1,1.3958442310748047,0,4.0,3.0,1,2,0,0,0,0,0,0,0,2,,,,,122.27285150000534,134.3075770409996,134.3075770409996,134.3075770409996,135.31641066600423,135.71646012500423,135.94985620800435,135.94985620800435,135.94985620800435,137.30255029100226,137.31642737500079,137.31642737500079,137.31642737500079,138.31617979099974,200006,005,2023-04-07_11h28.09.141,DMS_et_12-36,2022.2.4,None,
6,PRED,12,0.6458442310748047,0,images/picture_1.png,images/picture_1.png,0,"[-11.733433509789462, 11.733433509789464]",-11.733433509789462,11.733433509789464,images/picture_2.png,1,"[-11.733433509789466, -11.733433509789462]",-11.733433509789464,-11.733433509789462,images/picture_3.png,2,"[11.733433509789464, 11.733433509789462]",11.733433509789464,11.733433509789462,0,1,1,0.6458442310748047,1.6458442310748047,1.3541557689251953,3.0,1,1.3958442310748047,0,4.0,3.0,1,2,0,0,0,0,0,1,1,6,,,,,,,138.31617979099974,138.31617979099974,139.31638929100154,139.71643308300554,139.9496843750021,139.9496843750021,139.9496843750021,141.3162340830022,141.3162340830022,141.3162340830022,141.3162340830022,142.3159309160037,200006,005,2023-04-07_11h28.09.141,DMS_et_12-36,2022.2.4,None,
7,PRED,12,0.6458442310748047,0,images/picture_1.png,images/picture_1.png,0,"[-11.733433509789462, 11.733433509789464]",-11.733433509789462,11.733433509789464,images/picture_2.png,1,"[11.733433509789464, 11.733433509789462]",11.733433509789464,11.733433509789462,images/picture_3.png,2,"[11.733433509789462, -11.733433509789466]",11.733433509789462,-11.733433509789464,0,1,1,0.6458442310748047,1.6458442310748047,1.3541557689251953,3.0,1,1.3958442310748047,0,4.0,3.0,1,2,0,0,0,0,0,2,2,7,,,,,,,142.3159309160037,142.3159309160037,143.31644941600098,143.716420458004,143.9499284160047,143.9499284160047,143.9499284160047,145.3163964580017,145.3163964580017,145.3163964580017,145.3163964580017,146.31615979100025,200006,005,2023-04-07_11h28.09.141,DMS_et_12-36,2022.2.4,None,
8,PRED,12,0.6458442310748047,0,images/picture_1.png,images/picture_1.png,0,"[-11.733433509789466, -11.733433509789462]",-11.733433509789464,-11.733433509789462,images/picture_2.png,1,"[-11.733433509789462, 11.733433509789464]",-11.733433509789462,11.733433509789464,images/picture_3.png,2,"[11.733433509789464, 11.733433509789462]",11.733433509789464,11.733433509789462,0,1,1,0.6458442310748047,1.6458442310748047,1.3541557689251953,3.0,1,1.3958442310748047,0,4.0,3.0,1,2,0,0,0,0,0,3,3,8,,,,,,,146.31615979100025,146.31615979100025,147.31640195799991,147.7163975000003,147.9501536250027,147.9501536250027,147.9501536250027,149.31659812500584,149.31659812500584,149.31659812500584,149.31659812500584,150.31618945800437,200006,005,2023-04-07_11h28.09.141,DMS_et_12-36,2022.2.4,None,
1,PRED,12,0.6458442310748047,0,images/picture_1.png,images/picture_1.png,0,"[11.733433509789464, 11.733433509789462]",11.733433509789464,11.733433509789462,images/picture_2.png,1,"[11.733433509789462, -11.733433509789466]",11.733433509789462,-11.733433509789464,images/picture_3.png,2,"[-11.733433509789466, -11.733433509789462]",-11.733433509789464,-11.733433509789462,0,1,1,0.6458442310748047,1.6458442310748047,1.3541557689251953,3.0,1,1.3958442310748047,0,4.0,3.0,1,2,0,0,0,0,0,4,4,1,,,,,,,150.31618945800437,150.31618945800437,151.31652879100147,151.71625520800444,151.9494625830048,151.9494625830048,151.9494625830048,153.31662937500369,153.31662937500369,153.31662937500369,153.31662937500369,154.31614916599938,200006,005,2023-04-07_11h28.09.141,DMS_et_12-36,2022.2.4,None,
3,PRED,12,0.6458442310748047,0,images/picture_1.png,images/picture_1.png,0,"[11.733433509789464, 11.733433509789462]",11.733433509789464,11.733433509789462,images/picture_2.png,1,"[-11.733433509789462, 11.733433509789464]",-11.733433509789462,11.733433509789464,images/picture_3.png,2,"[-11.733433509789466, -11.733433509789462]",-11.733433509789464,-11.733433509789462,0,1,1,0.6458442310748047,1.6458442310748047,1.3541557689251953,3.0,1,1.3958442310748047,0,4.0,3.0,1,2,0,0,0,0,0,5,5,3,,,,,,,154.31614916599938,154.31614916599938,155.31647591599904,155.71663900000567,155.9498683330021,155.9498683330021,155.9498683330021,157.31642779100366,157.31642779100366,157.31642779100366,157.31642779100366,158.3159327079993,200006,005,2023-04-07_11h28.09.141,DMS_et_12-36,2022.2.4,None,
0,PRED,12,0.6458442310748047,0,images/picture_1.png,images/picture_1.png,0,"[11.733433509789464, 11.733433509789462]",11.733433509789464,11.733433509789462,images/picture_2.png,1,"[-11.733433509789466, -11.733433509789462]",-11.733433509789464,-11.733433509789462,images/picture_3.png,2,"[11.733433509789462, -11.733433509789466]",11.733433509789462,-11.733433509789464,0,1,1,0.6458442310748047,1.6458442310748047,1.3541557689251953,3.0,1,1.3958442310748047,0,4.0,3.0,1,2,0,0,0,0,0,6,6,0,,,,,,,158.3159327079993,158.3159327079993,159.31669041600253,159.71661825000047,159.94990125000186,159.94990125000186,159.94990125000186,161.31669983300526,161.31669983300526,161.31669983300526,161.31669983300526,162.3162436660059,200006,005,2023-04-07_11h28.09.141,DMS_et_12-36,2022.2.4,None,
4,PRED,12,0.6458442310748047,0,images/picture_1.png,images/picture_1.png,0,"[11.733433509789462, -11.733433509789466]",11.733433509789462,-11.733433509789464,images/picture_2.png,1,"[-11.733433509789466, -11.733433509789462]",-11.733433509789464,-11.733433509789462,images/picture_3.png,2,"[11.733433509789464, 11.733433509789462]",11.733433509789464,11.733433509789462,0,1,1,0.6458442310748047,1.6458442310748047,1.3541557689251953,3.0,1,1.3958442310748047,0,4.0,3.0,1,2,0,0,0,0,0,7,7,4,,,,,,,162.3162436660059,162.3162436660059,163.31646400000318,163.71643675000087,163.9499334159991,163.9499334159991,163.9499334159991,165.31645508300426,165.31645508300426,165.31645508300426,165.31645508300426,166.31595575000392,200006,005,2023-04-07_11h28.09.141,DMS_et_12-36,2022.2.4,None,
5,PRED,12,0.6458442310748047,0,images/picture_1.png,images/picture_1.png,0,"[-11.733433509789466, -11.733433509789462]",-11.733433509789464,-11.733433509789462,images/picture_2.png,1,"[-11.733433509789462, 11.733433509789464]",-11.733433509789462,11.733433509789464,images/picture_3.png,2,"[11.733433509789464, 11.733433509789462]",11.733433509789464,11.733433509789462,0,1,1,0.6458442310748047,1.6458442310748047,1.3541557689251953,3.0,1,1.3958442310748047,0,4.0,3.0,1,2,0,0,0,0,0,8,8,5,,,,,,,166.31595575000392,166.31595575000392,167.31660545799969,167.7166342910059,167.9497960410008,167.9497960410008,167.9497960410008,169.3166500830048,169.3166500830048,169.3166500830048,169.3166500830048,170.3356491250015,200006,005,2023-04-07_11h28.09.141,DMS_et_12-36,2022.2.4,None,
,,,,,,,,,,,,,,,,,,,,,,,,,,,,,,,,,,,0,0,0,0,,,,,,,,,170.3356491250015,182.36813558300491,,,,,,,,,,,,,200006,005,2023-04-07_11h28.09.141,DMS_et_12-36,2022.2.4,None,
10,UNPRED,12,0.6458442310748047,0,images/picture_1.png,images/picture_1.png,0,"[11.733433509789464, 11.733433509789462]",11.733433509789464,11.733433509789462,images/picture_2.png,1,"[-11.733433509789462, 11.733433509789464]",-11.733433509789462,11.733433509789464,images/picture_3.png,2,"[-11.733433509789466, -11.733433509789462]",-11.733433509789464,-11.733433509789462,0,1,1,0.6458442310748047,1.6458442310748047,1.3541557689251953,3.0,1,1.3958442310748047,0,4.0,3.0,1,2,1,0,1,0,0,0,0,1,,,,,,,182.36813558300491,182.36813558300491,183.38326487500308,183.76930637500482,184.00252058300248,184.00252058300248,184.00252058300248,185.3498791250022,185.3691865830042,185.3691865830042,185.3691865830042,186.36913529100275,200006,005,2023-04-07_11h28.09.141,DMS_et_12-36,2022.2.4,None,
13,UNPRED,12,0.6458442310748047,2,images/picture_3.png,images/picture_1.png,0,"[11.733433509789464, 11.733433509789462]",11.733433509789464,11.733433509789462,images/picture_2.png,1,"[11.733433509789462, -11.733433509789466]",11.733433509789462,-11.733433509789464,images/picture_3.png,2,"[-11.733433509789466, -11.733433509789462]",-11.733433509789464,-11.733433509789462,0,1,1,0.6458442310748047,1.6458442310748047,1.3541557689251953,3.0,1,1.3958442310748047,0,4.0,3.0,1,2,1,0,1,0,0,1,1,4,,,,,,,186.36913529100275,186.36913529100275,187.38317420800013,187.76973700000235,187.98319558300136,187.98319558300136,187.98319558300136,189.34989525000128,189.34989525000128,189.34989525000128,189.34989525000128,190.35041816600278,200006,005,2023-04-07_11h28.09.141,DMS_et_12-36,2022.2.4,None,
14,UNPRED,12,0.6458442310748047,1,images/picture_2.png,images/picture_1.png,0,"[11.733433509789464, 11.733433509789462]",11.733433509789464,11.733433509789462,images/picture_2.png,1,"[-11.733433509789462, 11.733433509789464]",-11.733433509789462,11.733433509789464,images/picture_3.png,2,"[-11.733433509789466, -11.733433509789462]",-11.733433509789464,-11.733433509789462,0,1,1,0.6458442310748047,1.6458442310748047,1.3541557689251953,3.0,1,1.3958442310748047,0,4.0,3.0,1,2,1,0,1,0,0,2,2,5,,,,,,,190.35041816600278,190.35041816600278,191.34989287500503,191.74988049999956,191.98332433299947,191.98332433299947,191.98332433299947,193.34978629100078,193.34978629100078,193.34978629100078,193.34978629100078,194.36839362500177,200006,005,2023-04-07_11h28.09.141,DMS_et_12-36,2022.2.4,None,
9,UNPRED,12,0.6458442310748047,2,images/picture_3.png,images/picture_1.png,0,"[-11.733433509789466, -11.733433509789462]",-11.733433509789464,-11.733433509789462,images/picture_2.png,1,"[11.733433509789464, 11.733433509789462]",11.733433509789464,11.733433509789462,images/picture_3.png,2,"[-11.733433509789462, 11.733433509789464]",-11.733433509789462,11.733433509789464,0,1,1,0.6458442310748047,1.6458442310748047,1.3541557689251953,3.0,1,1.3958442310748047,0,4.0,3.0,1,2,1,0,1,0,0,3,3,0,,,,,,,194.36839362500177,194.36839362500177,195.38317512500362,195.7689094160014,195.98336295800254,195.98336295800254,195.98336295800254,197.34994300000108,197.34994300000108,197.34994300000108,197.34994300000108,198.3493969580013,200006,005,2023-04-07_11h28.09.141,DMS_et_12-36,2022.2.4,None,
15,UNPRED,12,0.6458442310748047,0,images/picture_1.png,images/picture_1.png,0,"[-11.733433509789466, -11.733433509789462]",-11.733433509789464,-11.733433509789462,images/picture_2.png,1,"[11.733433509789464, 11.733433509789462]",11.733433509789464,11.733433509789462,images/picture_3.png,2,"[11.733433509789462, -11.733433509789466]",11.733433509789462,-11.733433509789464,0,1,1,0.6458442310748047,1.6458442310748047,1.3541557689251953,3.0,1,1.3958442310748047,0,4.0,3.0,1,2,1,0,1,0,0,4,4,6,,,,,,,198.3493969580013,198.3493969580013,199.349907833006,199.74994691600295,199.9831483750022,199.9831483750022,199.9831483750022,201.3499141249995,201.3499141249995,201.3499141249995,201.3499141249995,202.36872683300317,200006,005,2023-04-07_11h28.09.141,DMS_et_12-36,2022.2.4,None,
11,UNPRED,12,0.6458442310748047,2,images/picture_3.png,images/picture_1.png,0,"[-11.733433509789466, -11.733433509789462]",-11.733433509789464,-11.733433509789462,images/picture_2.png,1,"[11.733433509789464, 11.733433509789462]",11.733433509789464,11.733433509789462,images/picture_3.png,2,"[-11.733433509789462, 11.733433509789464]",-11.733433509789462,11.733433509789464,0,1,1,0.6458442310748047,1.6458442310748047,1.3541557689251953,3.0,1,1.3958442310748047,0,4.0,3.0,1,2,1,0,1,0,0,5,5,2,,,,,,,202.36872683300317,202.36872683300317,203.3830847499994,203.769297208004,203.9833803750007,203.9833803750007,203.9833803750007,205.34988449999946,205.34988449999946,205.34988449999946,205.34988449999946,206.34941387500294,200006,005,2023-04-07_11h28.09.141,DMS_et_12-36,2022.2.4,None,
16,UNPRED,12,0.6458442310748047,0,images/picture_1.png,images/picture_1.png,0,"[-11.733433509789466, -11.733433509789462]",-11.733433509789464,-11.733433509789462,images/picture_2.png,1,"[11.733433509789462, -11.733433509789466]",11.733433509789462,-11.733433509789464,images/picture_3.png,2,"[-11.733433509789462, 11.733433509789464]",-11.733433509789462,11.733433509789464,0,1,1,0.6458442310748047,1.6458442310748047,1.3541557689251953,3.0,1,1.3958442310748047,0,4.0,3.0,1,2,1,0,1,0,0,6,6,7,,,,,,,206.34941387500294,206.34941387500294,207.34979395800474,207.74999037499947,207.98307770800602,207.98307770800602,207.98307770800602,209.34993266600213,209.34993266600213,209.34993266600213,209.34993266600213,210.34962704100326,200006,005,2023-04-07_11h28.09.141,DMS_et_12-36,2022.2.4,None,
12,UNPRED,12,0.6458442310748047,0,images/picture_1.png,images/picture_1.png,0,"[11.733433509789462, -11.733433509789466]",11.733433509789462,-11.733433509789464,images/picture_2.png,1,"[-11.733433509789462, 11.733433509789464]",-11.733433509789462,11.733433509789464,images/picture_3.png,2,"[11.733433509789464, 11.733433509789462]",11.733433509789464,11.733433509789462,0,1,1,0.6458442310748047,1.6458442310748047,1.3541557689251953,3.0,1,1.3958442310748047,0,4.0,3.0,1,2,1,0,1,0,0,7,7,3,,,,,,,210.34962704100326,210.34962704100326,211.34987541600276,211.74993070799974,211.98320100000274,211.98320100000274,211.98320100000274,213.34978329099977,213.34978329099977,213.34978329099977,213.34978329099977,214.3685467910036,200006,005,2023-04-07_11h28.09.141,DMS_et_12-36,2022.2.4,None,
17,UNPRED,12,0.6458442310748047,2,images/picture_3.png,images/picture_1.png,0,"[-11.733433509789466, -11.733433509789462]",-11.733433509789464,-11.733433509789462,images/picture_2.png,1,"[11.733433509789462, -11.733433509789466]",11.733433509789462,-11.733433509789464,images/picture_3.png,2,"[-11.733433509789462, 11.733433509789464]",-11.733433509789462,11.733433509789464,0,1,1,0.6458442310748047,1.6458442310748047,1.3541557689251953,3.0,1,1.3958442310748047,0,4.0,3.0,1,2,1,0,1,0,0,8,8,8,,,,,,,214.3685467910036,214.3685467910036,215.38316679100535,215.76979254100297,215.9832272910062,215.9832272910062,215.9832272910062,217.3500299160005,217.3500299160005,217.3500299160005,217.3500299160005,218.38292266600183,200006,005,2023-04-07_11h28.09.141,DMS_et_12-36,2022.2.4,None,
,,,,,,,,,,,,,,,,,,,,,,,,,,,,,,,,,,,1,0,1,0,,,,,,,,,218.38292266600183,230.40251195800374,,,,,,,,,,,,,200006,005,2023-04-07_11h28.09.141,DMS_et_12-36,2022.2.4,None,
20,PRED,12,0.6458442310748047,1,images/picture_2.png,images/picture_1.png,0,"[-11.733433509789466, -11.733433509789462]",-11.733433509789464,-11.733433509789462,images/picture_2.png,1,"[-11.733433509789462, 11.733433509789464]",-11.733433509789462,11.733433509789464,images/picture_3.png,2,"[11.733433509789462, -11.733433509789466]",11.733433509789462,-11.733433509789464,0,1,1,0.6458442310748047,1.6458442310748047,1.3541557689251953,3.0,1,1.3958442310748047,0,4.0,3.0,1,2,2,0,2,0,0,0,0,2,,,,,,,230.40251195800374,230.40251195800374,231.41666037500545,231.8024594160015,232.04995625000447,232.04995625000447,232.04995625000447,233.4015609160051,233.41620479099947,233.41620479099947,233.41620479099947,234.41565175000142,200006,005,2023-04-07_11h28.09.141,DMS_et_12-36,2022.2.4,None,
19,PRED,12,0.6458442310748047,1,images/picture_2.png,images/picture_1.png,0,"[11.733433509789464, 11.733433509789462]",11.733433509789464,11.733433509789462,images/picture_2.png,1,"[11.733433509789462, -11.733433509789466]",11.733433509789462,-11.733433509789464,images/picture_3.png,2,"[-11.733433509789462, 11.733433509789464]",-11.733433509789462,11.733433509789464,0,1,1,0.6458442310748047,1.6458442310748047,1.3541557689251953,3.0,1,1.3958442310748047,0,4.0,3.0,1,2,2,0,2,0,0,1,1,1,,,,,,,234.41565175000142,234.41565175000142,235.41661441600445,235.81646216600348,236.04998720800359,236.04998720800359,236.04998720800359,237.41663629100367,237.41663629100367,237.41663629100367,237.41663629100367,238.4160074579995,200006,005,2023-04-07_11h28.09.141,DMS_et_12-36,2022.2.4,None,
22,PRED,12,0.6458442310748047,1,images/picture_2.png,images/picture_1.png,0,"[-11.733433509789462, 11.733433509789464]",-11.733433509789462,11.733433509789464,images/picture_2.png,1,"[11.733433509789464, 11.733433509789462]",11.733433509789464,11.733433509789462,images/picture_3.png,2,"[11.733433509789462, -11.733433509789466]",11.733433509789462,-11.733433509789464,0,1,1,0.6458442310748047,1.6458442310748047,1.3541557689251953,3.0,1,1.3958442310748047,0,4.0,3.0,1,2,2,0,2,0,0,2,2,4,,,,,,,238.4160074579995,238.4160074579995,239.41661958300392,239.8165811660001,240.04993954100064,240.04993954100064,240.04993954100064,241.4166202080014,241.4166202080014,241.4166202080014,241.4166202080014,242.41644445800193,200006,005,2023-04-07_11h28.09.141,DMS_et_12-36,2022.2.4,None,
23,PRED,12,0.6458442310748047,1,images/picture_2.png,images/picture_1.png,0,"[-11.733433509789462, 11.733433509789464]",-11.733433509789462,11.733433509789464,images/picture_2.png,1,"[11.733433509789464, 11.733433509789462]",11.733433509789464,11.733433509789462,images/picture_3.png,2,"[-11.733433509789466, -11.733433509789462]",-11.733433509789464,-11.733433509789462,0,1,1,0.6458442310748047,1.6458442310748047,1.3541557689251953,3.0,1,1.3958442310748047,0,4.0,3.0,1,2,2,0,2,0,0,3,3,5,,,,,,,242.41644445800193,242.41644445800193,243.41650083300192,243.81626287499967,244.049890125003,244.049890125003,244.049890125003,245.41673591600556,245.41673591600556,245.41673591600556,245.41673591600556,246.41616858300404,200006,005,2023-04-07_11h28.09.141,DMS_et_12-36,2022.2.4,None,
26,PRED,12,0.6458442310748047,1,images/picture_2.png,images/picture_1.png,0,"[11.733433509789462, -11.733433509789466]",11.733433509789462,-11.733433509789464,images/picture_2.png,1,"[11.733433509789464, 11.733433509789462]",11.733433509789464,11.733433509789462,images/picture_3.png,2,"[-11.733433509789466, -11.733433509789462]",-11.733433509789464,-11.733433509789462,0,1,1,0.6458442310748047,1.6458442310748047,1.3541557689251953,3.0,1,1.3958442310748047,0,4.0,3.0,1,2,2,0,2,0,0,4,4,8,,,,,,,246.41616858300404,246.41616858300404,247.41664212500473,247.8166865000021,248.0501576250026,248.0501576250026,248.0501576250026,249.41665962499974,249.41665962499974,249.41665962499974,249.41665962499974,250.4161480410039,200006,005,2023-04-07_11h28.09.141,DMS_et_12-36,2022.2.4,None,
24,PRED,12,0.6458442310748047,1,images/picture_2.png,images/picture_1.png,0,"[11.733433509789462, -11.733433509789466]",11.733433509789462,-11.733433509789464,images/picture_2.png,1,"[11.733433509789464, 11.733433509789462]",11.733433509789464,11.733433509789462,images/picture_3.png,2,"[-11.733433509789462, 11.733433509789464]",-11.733433509789462,11.733433509789464,0,1,1,0.6458442310748047,1.6458442310748047,1.3541557689251953,3.0,1,1.3958442310748047,0,4.0,3.0,1,2,2,0,2,0,0,5,5,6,,,,,,,250.4161480410039,250.4161480410039,251.4167873750048,251.81674116600334,252.04993654099962,252.04993654099962,252.04993654099962,253.41663866599993,253.41663866599993,253.41663866599993,253.41663866599993,254.41634487500414,200006,005,2023-04-07_11h28.09.141,DMS_et_12-36,2022.2.4,None,
18,PRED,12,0.6458442310748047,1,images/picture_2.png,images/picture_1.png,0,"[-11.733433509789466, -11.733433509789462]",-11.733433509789464,-11.733433509789462,images/picture_2.png,1,"[-11.733433509789462, 11.733433509789464]",-11.733433509789462,11.733433509789464,images/picture_3.png,2,"[11.733433509789464, 11.733433509789462]",11.733433509789464,11.733433509789462,0,1,1,0.6458442310748047,1.6458442310748047,1.3541557689251953,3.0,1,1.3958442310748047,0,4.0,3.0,1,2,2,0,2,0,0,6,6,0,,,,,,,254.41634487500414,254.41634487500414,255.4166286250038,255.81675895800436,256.0499262910016,256.0499262910016,256.0499262910016,257.41663783300464,257.41663783300464,257.41663783300464,257.41663783300464,258.4161673330018,200006,005,2023-04-07_11h28.09.141,DMS_et_12-36,2022.2.4,None,
21,PRED,12,0.6458442310748047,1,images/picture_2.png,images/picture_1.png,0,"[-11.733433509789466, -11.733433509789462]",-11.733433509789464,-11.733433509789462,images/picture_2.png,1,"[-11.733433509789462, 11.733433509789464]",-11.733433509789462,11.733433509789464,images/picture_3.png,2,"[11.733433509789464, 11.733433509789462]",11.733433509789464,11.733433509789462,0,1,1,0.6458442310748047,1.6458442310748047,1.3541557689251953,3.0,1,1.3958442310748047,0,4.0,3.0,1,2,2,0,2,0,0,7,7,3,,,,,,,258.4161673330018,258.4161673330018,259.41662958300003,259.81666366600257,260.04995254100504,260.04995254100504,260.04995254100504,261.41662616599933,261.41662616599933,261.41662616599933,261.41662616599933,262.4160563750047,200006,005,2023-04-07_11h28.09.141,DMS_et_12-36,2022.2.4,None,
25,PRED,12,0.6458442310748047,1,images/picture_2.png,images/picture_1.png,0,"[-11.733433509789466, -11.733433509789462]",-11.733433509789464,-11.733433509789462,images/picture_2.png,1,"[11.733433509789464, 11.733433509789462]",11.733433509789464,11.733433509789462,images/picture_3.png,2,"[-11.733433509789462, 11.733433509789464]",-11.733433509789462,11.733433509789464,0,1,1,0.6458442310748047,1.6458442310748047,1.3541557689251953,3.0,1,1.3958442310748047,0,4.0,3.0,1,2,2,0,2,0,0,8,8,7,,,,,,,262.4160563750047,262.4160563750047,263.416680291004,263.8167772080051,264.0496451660001,264.0496451660001,264.0496451660001,265.4166422500057,265.4166422500057,265.4166422500057,265.4166422500057,266.4586569160019,200006,005,2023-04-07_11h28.09.141,DMS_et_12-36,2022.2.4,None,
,,,,,,,,,,,,,,,,,,,,,,,,,,,,,,,,,,,2,0,2,0,,,,,,,,,266.4586569160019,278.4817640830006,,,,,,,,,,,,,200006,005,2023-04-07_11h28.09.141,DMS_et_12-36,2022.2.4,None,
27,UNPRED,12,0.6458442310748047,0,images/picture_1.png,images/picture_1.png,0,"[-11.733433509789462, 11.733433509789464]",-11.733433509789462,11.733433509789464,images/picture_2.png,1,"[-11.733433509789466, -11.733433509789462]",-11.733433509789464,-11.733433509789462,images/picture_3.png,2,"[11.733433509789464, 11.733433509789462]",11.733433509789464,11.733433509789462,0,1,1,0.6458442310748047,1.6458442310748047,1.3541557689251953,3.0,1,1.3958442310748047,0,4.0,3.0,1,2,3,0,3,0,0,0,0,0,,,,,,,278.4817640830006,278.4817640830006,279.48340895800357,279.8833549580013,280.11666216600133,280.11666216600133,280.11666216600133,281.48341708299995,281.48341708299995,281.48341708299995,281.48341708299995,282.5027814999994,200006,005,2023-04-07_11h28.09.141,DMS_et_12-36,2022.2.4,None,
30,UNPRED,12,0.6458442310748047,2,images/picture_3.png,images/picture_1.png,0,"[-11.733433509789466, -11.733433509789462]",-11.733433509789464,-11.733433509789462,images/picture_2.png,1,"[-11.733433509789462, 11.733433509789464]",-11.733433509789462,11.733433509789464,images/picture_3.png,2,"[11.733433509789464, 11.733433509789462]",11.733433509789464,11.733433509789462,0,1,1,0.6458442310748047,1.6458442310748047,1.3541557689251953,3.0,1,1.3958442310748047,0,4.0,3.0,1,2,3,0,3,0,0,1,1,3,,,,,,,282.5027814999994,282.5027814999994,283.5167085409994,283.9022800830062,284.1166880410019,284.1166880410019,284.1166880410019,285.482912958003,285.482912958003,285.482912958003,285.482912958003,286.48303545800445,200006,005,2023-04-07_11h28.09.141,DMS_et_12-36,2022.2.4,None,
29,UNPRED,12,0.6458442310748047,1,images/picture_2.png,images/picture_1.png,0,"[11.733433509789464, 11.733433509789462]",11.733433509789464,11.733433509789462,images/picture_2.png,1,"[11.733433509789462, -11.733433509789466]",11.733433509789462,-11.733433509789464,images/picture_3.png,2,"[-11.733433509789462, 11.733433509789464]",-11.733433509789462,11.733433509789464,0,1,1,0.6458442310748047,1.6458442310748047,1.3541557689251953,3.0,1,1.3958442310748047,0,4.0,3.0,1,2,3,0,3,0,0,2,2,2,,,,,,,286.48303545800445,286.48303545800445,287.48335570800555,287.88338145799935,288.11669750000146,288.11669750000146,288.11669750000146,289.4833821249995,289.4833821249995,289.4833821249995,289.4833821249995,290.50232308300474,200006,005,2023-04-07_11h28.09.141,DMS_et_12-36,2022.2.4,None,
33,UNPRED,12,0.6458442310748047,2,images/picture_3.png,images/picture_1.png,0,"[11.733433509789464, 11.733433509789462]",11.733433509789464,11.733433509789462,images/picture_2.png,1,"[-11.733433509789462, 11.733433509789464]",-11.733433509789462,11.733433509789464,images/picture_3.png,2,"[-11.733433509789466, -11.733433509789462]",-11.733433509789464,-11.733433509789462,0,1,1,0.6458442310748047,1.6458442310748047,1.3541557689251953,3.0,1,1.3958442310748047,0,4.0,3.0,1,2,3,0,3,0,0,3,3,6,,,,,,,290.50232308300474,290.50232308300474,291.51663845800067,291.9029292080013,292.1166580000063,292.1166580000063,292.1166580000063,293.48339004100126,293.48339004100126,293.48339004100126,293.48339004100126,294.4826955000026,200006,005,2023-04-07_11h28.09.141,DMS_et_12-36,2022.2.4,None,
35,UNPRED,12,0.6458442310748047,0,images/picture_1.png,images/picture_1.png,0,"[-11.733433509789466, -11.733433509789462]",-11.733433509789464,-11.733433509789462,images/picture_2.png,1,"[11.733433509789464, 11.733433509789462]",11.733433509789464,11.733433509789462,images/picture_3.png,2,"[11.733433509789462, -11.733433509789466]",11.733433509789462,-11.733433509789464,0,1,1,0.6458442310748047,1.6458442310748047,1.3541557689251953,3.0,1,1.3958442310748047,0,4.0,3.0,1,2,3,0,3,0,0,4,4,8,,,,,,,294.4826955000026,294.4826955000026,295.4831447079996,295.88344566600426,296.11670183300157,296.11670183300157,296.11670183300157,297.48339795799984,297.48339795799984,297.48339795799984,297.48339795799984,298.48285479100014,200006,005,2023-04-07_11h28.09.141,DMS_et_12-36,2022.2.4,None,
31,UNPRED,12,0.6458442310748047,1,images/picture_2.png,images/picture_1.png,0,"[-11.733433509789462, 11.733433509789464]",-11.733433509789462,11.733433509789464,images/picture_2.png,1,"[11.733433509789464, 11.733433509789462]",11.733433509789464,11.733433509789462,images/picture_3.png,2,"[-11.733433509789466, -11.733433509789462]",-11.733433509789464,-11.733433509789462,0,1,1,0.6458442310748047,1.6458442310748047,1.3541557689251953,3.0,1,1.3958442310748047,0,4.0,3.0,1,2,3,0,3,0,0,5,5,4,,,,,,,298.48285479100014,298.48285479100014,299.4833987910024,299.88340700000117,300.1166550830021,300.1166550830021,300.1166550830021,301.4834315000044,301.4834315000044,301.4834315000044,301.4834315000044,302.48278616600146,200006,005,2023-04-07_11h28.09.141,DMS_et_12-36,2022.2.4,None,
28,UNPRED,12,0.6458442310748047,0,images/picture_1.png,images/picture_1.png,0,"[-11.733433509789466, -11.733433509789462]",-11.733433509789464,-11.733433509789462,images/picture_2.png,1,"[11.733433509789464, 11.733433509789462]",11.733433509789464,11.733433509789462,images/picture_3.png,2,"[-11.733433509789462, 11.733433509789464]",-11.733433509789462,11.733433509789464,0,1,1,0.6458442310748047,1.6458442310748047,1.3541557689251953,3.0,1,1.3958442310748047,0,4.0,3.0,1,2,3,0,3,0,0,6,6,1,,,,,,,302.48278616600146,302.48278616600146,303.48335775000305,303.88336787500157,304.1166467910007,304.1166467910007,304.1166467910007,305.4832213750051,305.4832213750051,305.4832213750051,305.4832213750051,306.50197895800375,200006,005,2023-04-07_11h28.09.141,DMS_et_12-36,2022.2.4,None,
32,UNPRED,12,0.6458442310748047,2,images/picture_3.png,images/picture_1.png,0,"[11.733433509789464, 11.733433509789462]",11.733433509789464,11.733433509789462,images/picture_2.png,1,"[-11.733433509789466, -11.733433509789462]",-11.733433509789464,-11.733433509789462,images/picture_3.png,2,"[-11.733433509789462, 11.733433509789464]",-11.733433509789462,11.733433509789464,0,1,1,0.6458442310748047,1.6458442310748047,1.3541557689251953,3.0,1,1.3958442310748047,0,4.0,3.0,1,2,3,0,3,0,0,7,7,5,,,,,,,306.50197895800375,306.50197895800375,307.5166560830039,307.9023651660027,308.1166704999996,308.1166704999996,308.1166704999996,309.4833685000049,309.4833685000049,309.4833685000049,309.4833685000049,310.48311566600023,200006,005,2023-04-07_11h28.09.141,DMS_et_12-36,2022.2.4,None,
34,UNPRED,12,0.6458442310748047,1,images/picture_2.png,images/picture_1.png,0,"[11.733433509789462, -11.733433509789466]",11.733433509789462,-11.733433509789464,images/picture_2.png,1,"[-11.733433509789466, -11.733433509789462]",-11.733433509789464,-11.733433509789462,images/picture_3.png,2,"[11.733433509789464, 11.733433509789462]",11.733433509789464,11.733433509789462,0,1,1,0.6458442310748047,1.6458442310748047,1.3541557689251953,3.0,1,1.3958442310748047,0,4.0,3.0,1,2,3,0,3,0,0,8,8,7,,,,,,,310.48311566600023,310.48311566600023,311.4833967080049,311.8834005000026,312.11667179100186,312.11667179100186,312.11667179100186,313.4834155830031,313.4834155830031,313.4834155830031,313.4834155830031,314.53352304100554,200006,005,2023-04-07_11h28.09.141,DMS_et_12-36,2022.2.4,None,
,,,,,,,,,,,,,,,,,,,,,,,,,,,,,,,,,,,3,0,3,0,,,,,,,,,314.53352304100554,326.5517358330035,,,,,,,,,,,,,200006,005,2023-04-07_11h28.09.141,DMS_et_12-36,2022.2.4,None,
38,PRED,12,0.6458442310748047,1,images/picture_2.png,images/picture_1.png,0,"[11.733433509789464, 11.733433509789462]",11.733433509789464,11.733433509789462,images/picture_2.png,1,"[-11.733433509789462, 11.733433509789464]",-11.733433509789462,11.733433509789464,images/picture_3.png,2,"[11.733433509789462, -11.733433509789466]",11.733433509789462,-11.733433509789464,0,1,1,0.6458442310748047,1.6458442310748047,1.3541557689251953,3.0,1,1.3958442310748047,0,4.0,3.0,1,2,4,0,4,0,0,0,0,2,,,,,,,326.5517358330035,326.5517358330035,327.5501607910046,327.9501552080037,328.2026519580031,328.2026519580031,328.2026519580031,329.5500896250014,329.5695100000012,329.5695100000012,329.5695100000012,330.54999987500196,200006,005,2023-04-07_11h28.09.141,DMS_et_12-36,2022.2.4,None,
37,PRED,12,0.6458442310748047,1,images/picture_2.png,images/picture_1.png,0,"[-11.733433509789462, 11.733433509789464]",-11.733433509789462,11.733433509789464,images/picture_2.png,1,"[-11.733433509789466, -11.733433509789462]",-11.733433509789464,-11.733433509789462,images/picture_3.png,2,"[11.733433509789462, -11.733433509789466]",11.733433509789462,-11.733433509789464,0,1,1,0.6458442310748047,1.6458442310748047,1.3541557689251953,3.0,1,1.3958442310748047,0,4.0,3.0,1,2,4,0,4,0,0,1,1,1,,,,,,,330.54999987500196,330.54999987500196,331.54993212500267,331.9499258750002,332.18336004100274,332.18336004100274,332.18336004100274,333.5499162500055,333.5499162500055,333.5499162500055,333.5499162500055,334.5496244580063,200006,005,2023-04-07_11h28.09.141,DMS_et_12-36,2022.2.4,None,
41,PRED,12,0.6458442310748047,1,images/picture_2.png,images/picture_1.png,0,"[-11.733433509789462, 11.733433509789464]",-11.733433509789462,11.733433509789464,images/picture_2.png,1,"[11.733433509789462, -11.733433509789466]",11.733433509789462,-11.733433509789464,images/picture_3.png,2,"[-11.733433509789466, -11.733433509789462]",-11.733433509789464,-11.733433509789462,0,1,1,0.6458442310748047,1.6458442310748047,1.3541557689251953,3.0,1,1.3958442310748047,0,4.0,3.0,1,2,4,0,4,0,0,2,2,5,,,,,,,334.5496244580063,334.5496244580063,335.54979808300413,335.9498221660033,336.1830856660017,336.1830856660017,336.1830856660017,337.550142291002,337.550142291002,337.550142291002,337.550142291002,338.5495630830046,200006,005,2023-04-07_11h28.09.141,DMS_et_12-36,2022.2.4,None,
42,PRED,12,0.6458442310748047,1,images/picture_2.png,images/picture_1.png,0,"[11.733433509789464, 11.733433509789462]",11.733433509789464,11.733433509789462,images/picture_2.png,1,"[11.733433509789462, -11.733433509789466]",11.733433509789462,-11.733433509789464,images/picture_3.png,2,"[-11.733433509789466, -11.733433509789462]",-11.733433509789464,-11.733433509789462,0,1,1,0.6458442310748047,1.6458442310748047,1.3541557689251953,3.0,1,1.3958442310748047,0,4.0,3.0,1,2,4,0,4,0,0,3,3,6,,,,,,,338.5495630830046,338.5495630830046,339.55007945800025,339.95010458300385,340.18336716600606,340.18336716600606,340.18336716600606,341.5500905410008,341.5500905410008,341.5500905410008,341.5500905410008,342.549952500005,200006,005,2023-04-07_11h28.09.141,DMS_et_12-36,2022.2.4,None,
43,PRED,12,0.6458442310748047,1,images/picture_2.png,images/picture_1.png,0,"[-11.733433509789462, 11.733433509789464]",-11.733433509789462,11.733433509789464,images/picture_2.png,1,"[-11.733433509789466, -11.733433509789462]",-11.733433509789464,-11.733433509789462,images/picture_3.png,2,"[11.733433509789464, 11.733433509789462]",11.733433509789464,11.733433509789462,0,1,1,0.6458442310748047,1.6458442310748047,1.3541557689251953,3.0,1,1.3958442310748047,0,4.0,3.0,1,2,4,0,4,0,0,4,4,7,,,,,,,342.549952500005,342.549952500005,343.55015975000424,343.950141375004,344.1834607910059,344.1834607910059,344.1834607910059,345.54997483300394,345.54997483300394,345.54997483300394,345.54997483300394,346.54979883300257,200006,005,2023-04-07_11h28.09.141,DMS_et_12-36,2022.2.4,None,
39,PRED,12,0.6458442310748047,1,images/picture_2.png,images/picture_1.png,0,"[11.733433509789462, -11.733433509789466]",11.733433509789462,-11.733433509789464,images/picture_2.png,1,"[-11.733433509789462, 11.733433509789464]",-11.733433509789462,11.733433509789464,images/picture_3.png,2,"[-11.733433509789466, -11.733433509789462]",-11.733433509789464,-11.733433509789462,0,1,1,0.6458442310748047,1.6458442310748047,1.3541557689251953,3.0,1,1.3958442310748047,0,4.0,3.0,1,2,4,0,4,0,0,5,5,3,,,,,,,346.54979883300257,346.54979883300257,347.55009062500176,347.9500870000047,348.18338683299953,348.18338683299953,348.18338683299953,349.55012404100125,349.55012404100125,349.55012404100125,349.55012404100125,350.54957637500047,200006,005,2023-04-07_11h28.09.141,DMS_et_12-36,2022.2.4,None,
44,PRED,12,0.6458442310748047,1,images/picture_2.png,images/picture_1.png,0,"[-11.733433509789462, 11.733433509789464]",-11.733433509789462,11.733433509789464,images/picture_2.png,1,"[11.733433509789464, 11.733433509789462]",11.733433509789464,11.733433509789462,images/picture_3.png,2,"[-11.733433509789466, -11.733433509789462]",-11.733433509789464,-11.733433509789462,0,1,1,0.6458442310748047,1.6458442310748047,1.3541557689251953,3.0,1,1.3958442310748047,0,4.0,3.0,1,2,4,0,4,0,0,6,6,8,,,,,,,350.54957637500047,350.54957637500047,351.55010858300375,351.9501513330033,352.1833915000025,352.1833915000025,352.1833915000025,353.55020454100304,353.55020454100304,353.55020454100304,353.55020454100304,354.5496476250046,200006,005,2023-04-07_11h28.09.141,DMS_et_12-36,2022.2.4,None,
40,PRED,12,0.6458442310748047,1,images/picture_2.png,images/picture_1.png,0,"[-11.733433509789462, 11.733433509789464]",-11.733433509789462,11.733433509789464,images/picture_2.png,1,"[-11.733433509789466, -11.733433509789462]",-11.733433509789464,-11.733433509789462,images/picture_3.png,2,"[11.733433509789462, -11.733433509789466]",11.733433509789462,-11.733433509789464,0,1,1,0.6458442310748047,1.6458442310748047,1.3541557689251953,3.0,1,1.3958442310748047,0,4.0,3.0,1,2,4,0,4,0,0,7,7,4,,,,,,,354.5496476250046,354.5496476250046,355.5501311660046,355.95022216600046,356.1831283749998,356.1831283749998,356.1831283749998,357.5501507910012,357.5501507910012,357.5501507910012,357.5501507910012,358.55002279100154,200006,005,2023-04-07_11h28.09.141,DMS_et_12-36,2022.2.4,None,
36,PRED,12,0.6458442310748047,1,images/picture_2.png,images/picture_1.png,0,"[-11.733433509789462, 11.733433509789464]",-11.733433509789462,11.733433509789464,images/picture_2.png,1,"[-11.733433509789466, -11.733433509789462]",-11.733433509789464,-11.733433509789462,images/picture_3.png,2,"[11.733433509789464, 11.733433509789462]",11.733433509789464,11.733433509789462,0,1,1,0.6458442310748047,1.6458442310748047,1.3541557689251953,3.0,1,1.3958442310748047,0,4.0,3.0,1,2,4,0,4,0,0,8,8,0,,,,,,,358.55002279100154,358.55002279100154,359.5501220830047,359.9501378749992,360.183350916006,360.183350916006,360.183350916006,361.5501540000041,361.5501540000041,361.5501540000041,361.5501540000041,362.6643887500031,200006,005,2023-04-07_11h28.09.141,DMS_et_12-36,2022.2.4,None,
,,,,,,,,,,,,,,,,,,,,,,,,,,,,,,,,,,,4,0,4,0,,,,,,,,,362.6643887500031,374.6835250830045,,,,,,,,,,,,,200006,005,2023-04-07_11h28.09.141,DMS_et_12-36,2022.2.4,None,
49,UNPRED,12,0.6458442310748047,1,images/picture_2.png,images/picture_1.png,0,"[11.733433509789462, -11.733433509789466]",11.733433509789462,-11.733433509789464,images/picture_2.png,1,"[11.733433509789464, 11.733433509789462]",11.733433509789464,11.733433509789462,images/picture_3.png,2,"[-11.733433509789466, -11.733433509789462]",-11.733433509789464,-11.733433509789462,0,1,1,0.6458442310748047,1.6458442310748047,1.3541557689251953,3.0,1,1.3958442310748047,0,4.0,3.0,1,2,5,0,5,0,0,0,0,4,,,,,,,374.6835250830045,374.6835250830045,375.6834120830026,376.0834440000035,376.3361097500019,376.3361097500019,376.3361097500019,377.68315487500513,377.70182541599934,377.70182541599934,377.70182541599934,378.70214600000327,200006,005,2023-04-07_11h28.09.141,DMS_et_12-36,2022.2.4,None,
53,UNPRED,12,0.6458442310748047,2,images/picture_3.png,images/picture_1.png,0,"[-11.733433509789466, -11.733433509789462]",-11.733433509789464,-11.733433509789462,images/picture_2.png,1,"[11.733433509789464, 11.733433509789462]",11.733433509789464,11.733433509789462,images/picture_3.png,2,"[11.733433509789462, -11.733433509789466]",11.733433509789462,-11.733433509789464,0,1,1,0.6458442310748047,1.6458442310748047,1.3541557689251953,3.0,1,1.3958442310748047,0,4.0,3.0,1,2,5,0,5,0,0,1,1,8,,,,,,,378.70214600000327,378.70214600000327,379.71673629100405,380.1026785830036,380.31667545800155,380.31667545800155,380.31667545800155,381.68343766600447,381.68343766600447,381.68343766600447,381.68343766600447,382.68293291600276,200006,005,2023-04-07_11h28.09.141,DMS_et_12-36,2022.2.4,None,
47,UNPRED,12,0.6458442310748047,0,images/picture_1.png,images/picture_1.png,0,"[-11.733433509789462, 11.733433509789464]",-11.733433509789462,11.733433509789464,images/picture_2.png,1,"[-11.733433509789466, -11.733433509789462]",-11.733433509789464,-11.733433509789462,images/picture_3.png,2,"[11.733433509789462, -11.733433509789466]",11.733433509789462,-11.733433509789464,0,1,1,0.6458442310748047,1.6458442310748047,1.3541557689251953,3.0,1,1.3958442310748047,0,4.0,3.0,1,2,5,0,5,0,0,2,2,2,,,,,,,382.68293291600276,382.68293291600276,383.68351245800295,384.0834708750044,384.31674504100374,384.31674504100374,384.31674504100374,385.6834435830024,385.6834435830024,385.6834435830024,385.6834435830024,386.7021208750011,200006,005,2023-04-07_11h28.09.141,DMS_et_12-36,2022.2.4,None,
52,UNPRED,12,0.6458442310748047,2,images/picture_3.png,images/picture_1.png,0,"[-11.733433509789462, 11.733433509789464]",-11.733433509789462,11.733433509789464,images/picture_2.png,1,"[11.733433509789462, -11.733433509789466]",11.733433509789462,-11.733433509789464,images/picture_3.png,2,"[-11.733433509789466, -11.733433509789462]",-11.733433509789464,-11.733433509789462,0,1,1,0.6458442310748047,1.6458442310748047,1.3541557689251953,3.0,1,1.3958442310748047,0,4.0,3.0,1,2,5,0,5,0,0,3,3,7,,,,,,,386.7021208750011,386.7021208750011,387.7166003330058,388.1022389160062,388.31687995800166,388.31687995800166,388.31687995800166,389.68340558300406,389.68340558300406,389.68340558300406,389.68340558300406,390.6845445409999,200006,005,2023-04-07_11h28.09.141,DMS_et_12-36,2022.2.4,None,
46,UNPRED,12,0.6458442310748047,1,images/picture_2.png,images/picture_1.png,0,"[-11.733433509789462, 11.733433509789464]",-11.733433509789462,11.733433509789464,images/picture_2.png,1,"[11.733433509789462, -11.733433509789466]",11.733433509789462,-11.733433509789464,images/picture_3.png,2,"[-11.733433509789466, -11.733433509789462]",-11.733433509789464,-11.733433509789462,0,1,1,0.6458442310748047,1.6458442310748047,1.3541557689251953,3.0,1,1.3958442310748047,0,4.0,3.0,1,2,5,0,5,0,0,4,4,1,,,,,,,390.6845445409999,390.6845445409999,391.6834311250059,392.08346708300087,392.3166764580019,392.3166764580019,392.3166764580019,393.68347241599986,393.68347241599986,393.68347241599986,393.68347241599986,394.68309620800574,200006,005,2023-04-07_11h28.09.141,DMS_et_12-36,2022.2.4,None,
50,UNPRED,12,0.6458442310748047,1,images/picture_2.png,images/picture_1.png,0,"[11.733433509789462, -11.733433509789466]",11.733433509789462,-11.733433509789464,images/picture_2.png,1,"[-11.733433509789466, -11.733433509789462]",-11.733433509789464,-11.733433509789462,images/picture_3.png,2,"[-11.733433509789462, 11.733433509789464]",-11.733433509789462,11.733433509789464,0,1,1,0.6458442310748047,1.6458442310748047,1.3541557689251953,3.0,1,1.3958442310748047,0,4.0,3.0,1,2,5,0,5,0,0,5,5,5,,,,,,,394.68309620800574,394.68309620800574,395.6833957080016,396.083428583006,396.3168058750016,396.3168058750016,396.3168058750016,397.6831656249997,397.6831656249997,397.6831656249997,397.6831656249997,398.68279183300183,200006,005,2023-04-07_11h28.09.141,DMS_et_12-36,2022.2.4,None,
51,UNPRED,12,0.6458442310748047,0,images/picture_1.png,images/picture_1.png,0,"[-11.733433509789466, -11.733433509789462]",-11.733433509789464,-11.733433509789462,images/picture_2.png,1,"[11.733433509789464, 11.733433509789462]",11.733433509789464,11.733433509789462,images/picture_3.png,2,"[-11.733433509789462, 11.733433509789464]",-11.733433509789462,11.733433509789464,0,1,1,0.6458442310748047,1.6458442310748047,1.3541557689251953,3.0,1,1.3958442310748047,0,4.0,3.0,1,2,5,0,5,0,0,6,6,6,,,,,,,398.68279183300183,398.68279183300183,399.6834256660004,400.08343362500455,400.3168753330028,400.3168753330028,400.3168753330028,401.68341329100076,401.68341329100076,401.68341329100076,401.68341329100076,402.68289266600186,200006,005,2023-04-07_11h28.09.141,DMS_et_12-36,2022.2.4,None,
48,UNPRED,12,0.6458442310748047,0,images/picture_1.png,images/picture_1.png,0,"[11.733433509789464, 11.733433509789462]",11.733433509789464,11.733433509789462,images/picture_2.png,1,"[-11.733433509789462, 11.733433509789464]",-11.733433509789462,11.733433509789464,images/picture_3.png,2,"[-11.733433509789466, -11.733433509789462]",-11.733433509789464,-11.733433509789462,0,1,1,0.6458442310748047,1.6458442310748047,1.3541557689251953,3.0,1,1.3958442310748047,0,4.0,3.0,1,2,5,0,5,0,0,7,7,3,,,,,,,402.68289266600186,402.68289266600186,403.68340941600036,404.0834956250037,404.3167214999994,404.3167214999994,404.3167214999994,405.68346129100246,405.68346129100246,405.68346129100246,405.68346129100246,406.68317762500374,200006,005,2023-04-07_11h28.09.141,DMS_et_12-36,2022.2.4,None,
45,UNPRED,12,0.6458442310748047,0,images/picture_1.png,images/picture_1.png,0,"[11.733433509789464, 11.733433509789462]",11.733433509789464,11.733433509789462,images/picture_2.png,1,"[-11.733433509789462, 11.733433509789464]",-11.733433509789462,11.733433509789464,images/picture_3.png,2,"[11.733433509789462, -11.733433509789466]",11.733433509789462,-11.733433509789464,0,1,1,0.6458442310748047,1.6458442310748047,1.3541557689251953,3.0,1,1.3958442310748047,0,4.0,3.0,1,2,5,0,5,0,0,8,8,0,,,,,,,406.68317762500374,406.68317762500374,407.6831295410011,408.08339629100374,408.3166065000041,408.3166065000041,408.3166065000041,409.68342350000603,409.68342350000603,409.68342350000603,409.68342350000603,410.75213158300176,200006,005,2023-04-07_11h28.09.141,DMS_et_12-36,2022.2.4,None,
,,,,,,,,,,,,,,,,,,,,,,,,,,,,,,,,,,,5,0,5,0,,,,,,,,,410.75213158300176,422.77339716600545,,,,,,,,,,,,,200006,005,2023-04-07_11h28.09.141,DMS_et_12-36,2022.2.4,None,
56,PRED,12,0.6458442310748047,0,images/picture_1.png,images/picture_1.png,0,"[11.733433509789464, 11.733433509789462]",11.733433509789464,11.733433509789462,images/picture_2.png,1,"[-11.733433509789466, -11.733433509789462]",-11.733433509789464,-11.733433509789462,images/picture_3.png,2,"[-11.733433509789462, 11.733433509789464]",-11.733433509789462,11.733433509789464,0,1,1,0.6458442310748047,1.6458442310748047,1.3541557689251953,3.0,1,1.3958442310748047,0,4.0,3.0,1,2,6,0,6,0,0,0,0,2,,,,,,,422.77339716600545,422.77339716600545,423.7834148750044,424.1836463330037,424.4169089160059,424.4169089160059,424.4169089160059,425.76915058300074,425.7834187910048,425.7834187910048,425.7834187910048,426.78303925000364,200006,005,2023-04-07_11h28.09.141,DMS_et_12-36,2022.2.4,None,
58,PRED,12,0.6458442310748047,0,images/picture_1.png,images/picture_1.png,0,"[-11.733433509789466, -11.733433509789462]",-11.733433509789464,-11.733433509789462,images/picture_2.png,1,"[-11.733433509789462, 11.733433509789464]",-11.733433509789462,11.733433509789464,images/picture_3.png,2,"[11.733433509789462, -11.733433509789466]",11.733433509789462,-11.733433509789464,0,1,1,0.6458442310748047,1.6458442310748047,1.3541557689251953,3.0,1,1.3958442310748047,0,4.0,3.0,1,2,6,0,6,0,0,1,1,4,,,,,,,426.78303925000364,426.78303925000364,427.78341958300007,428.18318170800194,428.41664941600175,428.41664941600175,428.41664941600175,429.78359287499916,429.78359287499916,429.78359287499916,429.78359287499916,430.78295741600596,200006,005,2023-04-07_11h28.09.141,DMS_et_12-36,2022.2.4,None,
61,PRED,12,0.6458442310748047,0,images/picture_1.png,images/picture_1.png,0,"[11.733433509789462, -11.733433509789466]",11.733433509789462,-11.733433509789464,images/picture_2.png,1,"[-11.733433509789466, -11.733433509789462]",-11.733433509789464,-11.733433509789462,images/picture_3.png,2,"[11.733433509789464, 11.733433509789462]",11.733433509789464,11.733433509789462,0,1,1,0.6458442310748047,1.6458442310748047,1.3541557689251953,3.0,1,1.3958442310748047,0,4.0,3.0,1,2,6,0,6,0,0,2,2,7,,,,,,,430.78295741600596,430.78295741600596,431.783457166006,432.1834230000022,432.416951666004,432.416951666004,432.416951666004,433.7834624160023,433.7834624160023,433.7834624160023,433.7834624160023,434.7829265410037,200006,005,2023-04-07_11h28.09.141,DMS_et_12-36,2022.2.4,None,
62,PRED,12,0.6458442310748047,0,images/picture_1.png,images/picture_1.png,0,"[-11.733433509789466, -11.733433509789462]",-11.733433509789464,-11.733433509789462,images/picture_2.png,1,"[11.733433509789464, 11.733433509789462]",11.733433509789464,11.733433509789462,images/picture_3.png,2,"[11.733433509789462, -11.733433509789466]",11.733433509789462,-11.733433509789464,0,1,1,0.6458442310748047,1.6458442310748047,1.3541557689251953,3.0,1,1.3958442310748047,0,4.0,3.0,1,2,6,0,6,0,0,3,3,8,,,,,,,434.7829265410037,434.7829265410037,435.7831303330022,436.1836631250044,436.41694058300345,436.41694058300345,436.41694058300345,437.7831669160005,437.7831669160005,437.7831669160005,437.7831669160005,438.7832647500036,200006,005,2023-04-07_11h28.09.141,DMS_et_12-36,2022.2.4,None,
60,PRED,12,0.6458442310748047,0,images/picture_1.png,images/picture_1.png,0,"[11.733433509789462, -11.733433509789466]",11.733433509789462,-11.733433509789464,images/picture_2.png,1,"[-11.733433509789466, -11.733433509789462]",-11.733433509789464,-11.733433509789462,images/picture_3.png,2,"[11.733433509789464, 11.733433509789462]",11.733433509789464,11.733433509789462,0,1,1,0.6458442310748047,1.6458442310748047,1.3541557689251953,3.0,1,1.3958442310748047,0,4.0,3.0,1,2,6,0,6,0,0,4,4,6,,,,,,,438.7832647500036,438.7832647500036,439.7830514580055,440.1831816660051,440.4166256250028,440.4166256250028,440.4166256250028,441.7834312910054,441.7834312910054,441.7834312910054,441.7834312910054,442.78213062500436,200006,005,2023-04-07_11h28.09.141,DMS_et_12-36,2022.2.4,None,
59,PRED,12,0.6458442310748047,0,images/picture_1.png,images/picture_1.png,0,"[-11.733433509789466, -11.733433509789462]",-11.733433509789464,-11.733433509789462,images/picture_2.png,1,"[11.733433509789462, -11.733433509789466]",11.733433509789462,-11.733433509789464,images/picture_3.png,2,"[-11.733433509789462, 11.733433509789464]",-11.733433509789462,11.733433509789464,0,1,1,0.6458442310748047,1.6458442310748047,1.3541557689251953,3.0,1,1.3958442310748047,0,4.0,3.0,1,2,6,0,6,0,0,5,5,5,,,,,,,442.78213062500436,442.78213062500436,443.7832042910013,444.1831857500001,444.41671383300127,444.41671383300127,444.41671383300127,445.78320370800066,445.78320370800066,445.78320370800066,445.78320370800066,446.78269312500197,200006,005,2023-04-07_11h28.09.141,DMS_et_12-36,2022.2.4,None,
57,PRED,12,0.6458442310748047,0,images/picture_1.png,images/picture_1.png,0,"[-11.733433509789462, 11.733433509789464]",-11.733433509789462,11.733433509789464,images/picture_2.png,1,"[11.733433509789462, -11.733433509789466]",11.733433509789462,-11.733433509789464,images/picture_3.png,2,"[-11.733433509789466, -11.733433509789462]",-11.733433509789464,-11.733433509789462,0,1,1,0.6458442310748047,1.6458442310748047,1.3541557689251953,3.0,1,1.3958442310748047,0,4.0,3.0,1,2,6,0,6,0,0,6,6,3,,,,,,,446.78269312500197,446.78269312500197,447.78315229100554,448.1833682910001,448.4164455830032,448.4164455830032,448.4164455830032,449.7832052080048,449.7832052080048,449.7832052080048,449.7832052080048,450.7827127500059,200006,005,2023-04-07_11h28.09.141,DMS_et_12-36,2022.2.4,None,
54,PRED,12,0.6458442310748047,0,images/picture_1.png,images/picture_1.png,0,"[11.733433509789464, 11.733433509789462]",11.733433509789464,11.733433509789462,images/picture_2.png,1,"[11.733433509789462, -11.733433509789466]",11.733433509789462,-11.733433509789464,images/picture_3.png,2,"[-11.733433509789462, 11.733433509789464]",-11.733433509789462,11.733433509789464,0,1,1,0.6458442310748047,1.6458442310748047,1.3541557689251953,3.0,1,1.3958442310748047,0,4.0,3.0,1,2,6,0,6,0,0,7,7,0,,,,,,,450.7827127500059,450.7827127500059,451.78300579100323,452.1832937500003,452.4166752080055,452.4166752080055,452.4166752080055,453.78320141600125,453.78320141600125,453.78320141600125,453.78320141600125,454.782696166003,200006,005,2023-04-07_11h28.09.141,DMS_et_12-36,2022.2.4,None,
55,PRED,12,0.6458442310748047,0,images/picture_1.png,images/picture_1.png,0,"[11.733433509789464, 11.733433509789462]",11.733433509789464,11.733433509789462,images/picture_2.png,1,"[-11.733433509789462, 11.733433509789464]",-11.733433509789462,11.733433509789464,images/picture_3.png,2,"[11.733433509789462, -11.733433509789466]",11.733433509789462,-11.733433509789464,0,1,1,0.6458442310748047,1.6458442310748047,1.3541557689251953,3.0,1,1.3958442310748047,0,4.0,3.0,1,2,6,0,6,0,0,8,8,1,,,,,,,454.782696166003,454.782696166003,455.783260958,456.1831834580007,456.4166380000024,456.4166380000024,456.4166380000024,457.7829899580029,457.7829899580029,457.7829899580029,457.7829899580029,458.8418435000058,200006,005,2023-04-07_11h28.09.141,DMS_et_12-36,2022.2.4,None,
,,,,,,,,,,,,,,,,,,,,,,,,,,,,,,,,,,,6,0,6,0,,,,,,,,,458.8418435000058,470.8702481250002,,,,,,,,,,,,,200006,005,2023-04-07_11h28.09.141,DMS_et_12-36,2022.2.4,None,
65,UNPRED,12,0.6458442310748047,1,images/picture_2.png,images/picture_1.png,0,"[11.733433509789464, 11.733433509789462]",11.733433509789464,11.733433509789462,images/picture_2.png,1,"[11.733433509789462, -11.733433509789466]",11.733433509789462,-11.733433509789464,images/picture_3.png,2,"[-11.733433509789462, 11.733433509789464]",-11.733433509789462,11.733433509789464,0,1,1,0.6458442310748047,1.6458442310748047,1.3541557689251953,3.0,1,1.3958442310748047,0,4.0,3.0,1,2,7,0,7,0,0,0,0,2,,,,,,,470.8702481250002,470.8702481250002,471.88337741600117,472.26927429100033,472.5162629580009,472.5162629580009,472.5162629580009,473.86921150000126,473.88324408300105,473.88324408300105,473.88324408300105,474.88268779100326,200006,005,2023-04-07_11h28.09.141,DMS_et_12-36,2022.2.4,None,
67,UNPRED,12,0.6458442310748047,0,images/picture_1.png,images/picture_1.png,0,"[-11.733433509789462, 11.733433509789464]",-11.733433509789462,11.733433509789464,images/picture_2.png,1,"[11.733433509789464, 11.733433509789462]",11.733433509789464,11.733433509789462,images/picture_3.png,2,"[11.733433509789462, -11.733433509789466]",11.733433509789462,-11.733433509789464,0,1,1,0.6458442310748047,1.6458442310748047,1.3541557689251953,3.0,1,1.3958442310748047,0,4.0,3.0,1,2,7,0,7,0,0,1,1,4,,,,,,,474.88268779100326,474.88268779100326,475.8832309999998,476.28315141600615,476.51662025000405,476.51662025000405,476.51662025000405,477.88336537500436,477.88336537500436,477.88336537500436,477.88336537500436,478.88293070800137,200006,005,2023-04-07_11h28.09.141,DMS_et_12-36,2022.2.4,None,
64,UNPRED,12,0.6458442310748047,0,images/picture_1.png,images/picture_1.png,0,"[-11.733433509789462, 11.733433509789464]",-11.733433509789462,11.733433509789464,images/picture_2.png,1,"[11.733433509789464, 11.733433509789462]",11.733433509789464,11.733433509789462,images/picture_3.png,2,"[11.733433509789462, -11.733433509789466]",11.733433509789462,-11.733433509789464,0,1,1,0.6458442310748047,1.6458442310748047,1.3541557689251953,3.0,1,1.3958442310748047,0,4.0,3.0,1,2,7,0,7,0,0,2,2,1,,,,,,,478.88293070800137,478.88293070800137,479.8829815000063,480.2831162910006,480.51662000000215,480.51662000000215,480.51662000000215,481.8831777910018,481.8831777910018,481.8831777910018,481.8831777910018,482.9019132500034,200006,005,2023-04-07_11h28.09.141,DMS_et_12-36,2022.2.4,None,
68,UNPRED,12,0.6458442310748047,2,images/picture_3.png,images/picture_1.png,0,"[-11.733433509789466, -11.733433509789462]",-11.733433509789464,-11.733433509789462,images/picture_2.png,1,"[11.733433509789462, -11.733433509789466]",11.733433509789462,-11.733433509789464,images/picture_3.png,2,"[11.733433509789464, 11.733433509789462]",11.733433509789464,11.733433509789462,0,1,1,0.6458442310748047,1.6458442310748047,1.3541557689251953,3.0,1,1.3958442310748047,0,4.0,3.0,1,2,7,0,7,0,0,3,3,5,,,,,,,482.9019132500034,482.9019132500034,483.91660937500274,484.3023575000043,484.51649895800074,484.51649895800074,484.51649895800074,485.88349883300543,485.88349883300543,485.88349883300543,485.88349883300543,486.8830425000051,200006,005,2023-04-07_11h28.09.141,DMS_et_12-36,2022.2.4,None,
70,UNPRED,12,0.6458442310748047,1,images/picture_2.png,images/picture_1.png,0,"[11.733433509789464, 11.733433509789462]",11.733433509789464,11.733433509789462,images/picture_2.png,1,"[-11.733433509789462, 11.733433509789464]",-11.733433509789462,11.733433509789464,images/picture_3.png,2,"[-11.733433509789466, -11.733433509789462]",-11.733433509789464,-11.733433509789462,0,1,1,0.6458442310748047,1.6458442310748047,1.3541557689251953,3.0,1,1.3958442310748047,0,4.0,3.0,1,2,7,0,7,0,0,4,4,7,,,,,,,486.8830425000051,486.8830425000051,487.88318270799937,488.28303291600605,488.51659674999974,488.51659674999974,488.51659674999974,489.88305958300043,489.88305958300043,489.88305958300043,489.88305958300043,490.8827127080003,200006,005,2023-04-07_11h28.09.141,DMS_et_12-36,2022.2.4,None,
66,UNPRED,12,0.6458442310748047,0,images/picture_1.png,images/picture_1.png,0,"[11.733433509789464, 11.733433509789462]",11.733433509789464,11.733433509789462,images/picture_2.png,1,"[-11.733433509789466, -11.733433509789462]",-11.733433509789464,-11.733433509789462,images/picture_3.png,2,"[11.733433509789462, -11.733433509789466]",11.733433509789462,-11.733433509789464,0,1,1,0.6458442310748047,1.6458442310748047,1.3541557689251953,3.0,1,1.3958442310748047,0,4.0,3.0,1,2,7,0,7,0,0,5,5,3,,,,,,,490.8827127080003,490.8827127080003,491.8833241250031,492.2832631660058,492.51662270800443,492.51662270800443,492.51662270800443,493.8831700830051,493.8831700830051,493.8831700830051,493.8831700830051,494.8829690000057,200006,005,2023-04-07_11h28.09.141,DMS_et_12-36,2022.2.4,None,
69,UNPRED,12,0.6458442310748047,0,images/picture_1.png,images/picture_1.png,0,"[11.733433509789464, 11.733433509789462]",11.733433509789464,11.733433509789462,images/picture_2.png,1,"[-11.733433509789462, 11.733433509789464]",-11.733433509789462,11.733433509789464,images/picture_3.png,2,"[-11.733433509789466, -11.733433509789462]",-11.733433509789464,-11.733433509789462,0,1,1,0.6458442310748047,1.6458442310748047,1.3541557689251953,3.0,1,1.3958442310748047,0,4.0,3.0,1,2,7,0,7,0,0,6,6,6,,,,,,,494.8829690000057,494.8829690000057,495.88321500000166,496.28335925000283,496.51641166600166,496.51641166600166,496.51641166600166,497.88320000000385,497.88320000000385,497.88320000000385,497.88320000000385,498.88295454100444,200006,005,2023-04-07_11h28.09.141,DMS_et_12-36,2022.2.4,None,
63,UNPRED,12,0.6458442310748047,0,images/picture_1.png,images/picture_1.png,0,"[-11.733433509789462, 11.733433509789464]",-11.733433509789462,11.733433509789464,images/picture_2.png,1,"[11.733433509789462, -11.733433509789466]",11.733433509789462,-11.733433509789464,images/picture_3.png,2,"[-11.733433509789466, -11.733433509789462]",-11.733433509789464,-11.733433509789462,0,1,1,0.6458442310748047,1.6458442310748047,1.3541557689251953,3.0,1,1.3958442310748047,0,4.0,3.0,1,2,7,0,7,0,0,7,7,0,,,,,,,498.88295454100444,498.88295454100444,499.88306629100407,500.2828929160023,500.5163374160038,500.5163374160038,500.5163374160038,501.8831841249994,501.8831841249994,501.8831841249994,501.8831841249994,502.90187187500123,200006,005,2023-04-07_11h28.09.141,DMS_et_12-36,2022.2.4,None,
71,UNPRED,12,0.6458442310748047,2,images/picture_3.png,images/picture_1.png,0,"[11.733433509789464, 11.733433509789462]",11.733433509789464,11.733433509789462,images/picture_2.png,1,"[-11.733433509789462, 11.733433509789464]",-11.733433509789462,11.733433509789464,images/picture_3.png,2,"[-11.733433509789466, -11.733433509789462]",-11.733433509789464,-11.733433509789462,0,1,1,0.6458442310748047,1.6458442310748047,1.3541557689251953,3.0,1,1.3958442310748047,0,4.0,3.0,1,2,7,0,7,0,0,8,8,8,,,,,,,502.90187187500123,502.90187187500123,503.9166315830007,504.30231650000496,504.5166062499993,504.5166062499993,504.5166062499993,505.88339487500343,505.88339487500343,505.88339487500343,505.88339487500343,506.97501004100195,200006,005,2023-04-07_11h28.09.141,DMS_et_12-36,2022.2.4,None,
,,,,,,,,,,,,,,,,,,,,,,,,,,,,,,,,,,,7,0,7,0,,,,,,,,,506.97501004100195,519.0136737499997,,,,,,,,,,,,,200006,005,2023-04-07_11h28.09.141,DMS_et_12-36,2022.2.4,None,
74,PRED,12,0.6458442310748047,2,images/picture_3.png,images/picture_1.png,0,"[11.733433509789462, -11.733433509789466]",11.733433509789462,-11.733433509789464,images/picture_2.png,1,"[-11.733433509789466, -11.733433509789462]",-11.733433509789464,-11.733433509789462,images/picture_3.png,2,"[11.733433509789464, 11.733433509789462]",11.733433509789464,11.733433509789462,0,1,1,0.6458442310748047,1.6458442310748047,1.3541557689251953,3.0,1,1.3958442310748047,0,4.0,3.0,1,2,8,0,8,0,0,0,0,2,,,,,,,519.0136737499997,519.0136737499997,520.01652225,520.4163134160044,520.6496089580032,520.6496089580032,520.6496089580032,522.0023120000042,522.016608291,522.016608291,522.016608291,523.0354134160007,200006,005,2023-04-07_11h28.09.141,DMS_et_12-36,2022.2.4,None,
75,PRED,12,0.6458442310748047,2,images/picture_3.png,images/picture_1.png,0,"[11.733433509789462, -11.733433509789466]",11.733433509789462,-11.733433509789464,images/picture_2.png,1,"[-11.733433509789466, -11.733433509789462]",-11.733433509789464,-11.733433509789462,images/picture_3.png,2,"[11.733433509789464, 11.733433509789462]",11.733433509789464,11.733433509789462,0,1,1,0.6458442310748047,1.6458442310748047,1.3541557689251953,3.0,1,1.3958442310748047,0,4.0,3.0,1,2,8,0,8,0,0,1,1,3,,,,,,,523.0354134160007,523.0354134160007,524.0498936660006,524.4356800000023,524.6499374160048,524.6499374160048,524.6499374160048,526.0166126250042,526.0166126250042,526.0166126250042,526.0166126250042,527.0354451250023,200006,005,2023-04-07_11h28.09.141,DMS_et_12-36,2022.2.4,None,
77,PRED,12,0.6458442310748047,2,images/picture_3.png,images/picture_1.png,0,"[-11.733433509789462, 11.733433509789464]",-11.733433509789462,11.733433509789464,images/picture_2.png,1,"[11.733433509789462, -11.733433509789466]",11.733433509789462,-11.733433509789464,images/picture_3.png,2,"[-11.733433509789466, -11.733433509789462]",-11.733433509789464,-11.733433509789462,0,1,1,0.6458442310748047,1.6458442310748047,1.3541557689251953,3.0,1,1.3958442310748047,0,4.0,3.0,1,2,8,0,8,0,0,2,2,5,,,,,,,527.0354451250023,527.0354451250023,528.0498758750036,528.4356503750023,528.649867416003,528.649867416003,528.649867416003,530.0166668330057,530.0166668330057,530.0166668330057,530.0166668330057,531.0170857080011,200006,005,2023-04-07_11h28.09.141,DMS_et_12-36,2022.2.4,None,
73,PRED,12,0.6458442310748047,2,images/picture_3.png,images/picture_1.png,0,"[11.733433509789462, -11.733433509789466]",11.733433509789462,-11.733433509789464,images/picture_2.png,1,"[-11.733433509789462, 11.733433509789464]",-11.733433509789462,11.733433509789464,images/picture_3.png,2,"[11.733433509789464, 11.733433509789462]",11.733433509789464,11.733433509789462,0,1,1,0.6458442310748047,1.6458442310748047,1.3541557689251953,3.0,1,1.3958442310748047,0,4.0,3.0,1,2,8,0,8,0,0,3,3,1,,,,,,,531.0170857080011,531.0170857080011,532.0166820000013,532.4166365410056,532.6499150830059,532.6499150830059,532.6499150830059,534.0166387080026,534.0166387080026,534.0166387080026,534.0166387080026,535.0353940830028,200006,005,2023-04-07_11h28.09.141,DMS_et_12-36,2022.2.4,None,
78,PRED,12,0.6458442310748047,2,images/picture_3.png,images/picture_1.png,0,"[11.733433509789462, -11.733433509789466]",11.733433509789462,-11.733433509789464,images/picture_2.png,1,"[11.733433509789464, 11.733433509789462]",11.733433509789464,11.733433509789462,images/picture_3.png,2,"[-11.733433509789462, 11.733433509789464]",-11.733433509789462,11.733433509789464,0,1,1,0.6458442310748047,1.6458442310748047,1.3541557689251953,3.0,1,1.3958442310748047,0,4.0,3.0,1,2,8,0,8,0,0,4,4,6,,,,,,,535.0353940830028,535.0353940830028,536.049888708003,536.4357411660021,536.649862833001,536.649862833001,536.649862833001,538.0166545410029,538.0166545410029,538.0166545410029,538.0166545410029,539.0351068330056,200006,005,2023-04-07_11h28.09.141,DMS_et_12-36,2022.2.4,None,
79,PRED,12,0.6458442310748047,2,images/picture_3.png,images/picture_1.png,0,"[-11.733433509789466, -11.733433509789462]",-11.733433509789464,-11.733433509789462,images/picture_2.png,1,"[11.733433509789462, -11.733433509789466]",11.733433509789462,-11.733433509789464,images/picture_3.png,2,"[-11.733433509789462, 11.733433509789464]",-11.733433509789462,11.733433509789464,0,1,1,0.6458442310748047,1.6458442310748047,1.3541557689251953,3.0,1,1.3958442310748047,0,4.0,3.0,1,2,8,0,8,0,0,5,5,7,,,,,,,539.0351068330056,539.0351068330056,540.0499126249997,540.4357351660001,540.6495900000009,540.6495900000009,540.6495900000009,542.0166368749997,542.0166368749997,542.0166368749997,542.0166368749997,543.0356435830035,200006,005,2023-04-07_11h28.09.141,DMS_et_12-36,2022.2.4,None,
80,PRED,12,0.6458442310748047,2,images/picture_3.png,images/picture_1.png,0,"[11.733433509789462, -11.733433509789466]",11.733433509789462,-11.733433509789464,images/picture_2.png,1,"[-11.733433509789462, 11.733433509789464]",-11.733433509789462,11.733433509789464,images/picture_3.png,2,"[11.733433509789464, 11.733433509789462]",11.733433509789464,11.733433509789462,0,1,1,0.6458442310748047,1.6458442310748047,1.3541557689251953,3.0,1,1.3958442310748047,0,4.0,3.0,1,2,8,0,8,0,0,6,6,8,,,,,,,543.0356435830035,543.0356435830035,544.049915333002,544.4356442909993,544.6499637080051,544.6499637080051,544.6499637080051,546.0164419580033,546.0164419580033,546.0164419580033,546.0164419580033,547.0360102080012,200006,005,2023-04-07_11h28.09.141,DMS_et_12-36,2022.2.4,None,
72,PRED,12,0.6458442310748047,2,images/picture_3.png,images/picture_1.png,0,"[11.733433509789464, 11.733433509789462]",11.733433509789464,11.733433509789462,images/picture_2.png,1,"[-11.733433509789462, 11.733433509789464]",-11.733433509789462,11.733433509789464,images/picture_3.png,2,"[-11.733433509789466, -11.733433509789462]",-11.733433509789464,-11.733433509789462,0,1,1,0.6458442310748047,1.6458442310748047,1.3541557689251953,3.0,1,1.3958442310748047,0,4.0,3.0,1,2,8,0,8,0,0,7,7,0,,,,,,,547.0360102080012,547.0360102080012,548.0498964580038,548.4363787080001,548.6498903750035,548.6498903750035,548.6498903750035,550.0166087079997,550.0166087079997,550.0166087079997,550.0166087079997,551.0171340000015,200006,005,2023-04-07_11h28.09.141,DMS_et_12-36,2022.2.4,None,
76,PRED,12,0.6458442310748047,2,images/picture_3.png,images/picture_1.png,0,"[11.733433509789464, 11.733433509789462]",11.733433509789464,11.733433509789462,images/picture_2.png,1,"[-11.733433509789466, -11.733433509789462]",-11.733433509789464,-11.733433509789462,images/picture_3.png,2,"[11.733433509789462, -11.733433509789466]",11.733433509789462,-11.733433509789464,0,1,1,0.6458442310748047,1.6458442310748047,1.3541557689251953,3.0,1,1.3958442310748047,0,4.0,3.0,1,2,8,0,8,0,0,8,8,4,,,,,,,551.0171340000015,551.0171340000015,552.0164374580054,552.416761833003,552.6499300830037,552.6499300830037,552.6499300830037,554.0166412910039,554.0166412910039,554.0166412910039,554.0166412910039,555.1093515829998,200006,005,2023-04-07_11h28.09.141,DMS_et_12-36,2022.2.4,None,
,,,,,,,,,,,,,,,,,,,,,,,,,,,,,,,,,,,8,0,8,0,,,,,,,,,555.1093515829998,567.1457445410051,,,,,,,,,,,,,200006,005,2023-04-07_11h28.09.141,DMS_et_12-36,2022.2.4,None,
89,UNPRED,12,0.6458442310748047,2,images/picture_3.png,images/picture_1.png,0,"[-11.733433509789466, -11.733433509789462]",-11.733433509789464,-11.733433509789462,images/picture_2.png,1,"[11.733433509789464, 11.733433509789462]",11.733433509789464,11.733433509789462,images/picture_3.png,2,"[11.733433509789462, -11.733433509789466]",11.733433509789462,-11.733433509789464,0,1,1,0.6458442310748047,1.6458442310748047,1.3541557689251953,3.0,1,1.3958442310748047,0,4.0,3.0,1,2,9,0,9,0,0,0,0,8,,,,,,,567.1457445410051,567.1457445410051,568.1500165830003,568.5499805,568.7829492500023,568.7829492500023,568.7829492500023,570.1363711660015,570.1498693750036,570.1498693750036,570.1498693750036,571.1491394580007,200006,005,2023-04-07_11h28.09.141,DMS_et_12-36,2022.2.4,None,
83,UNPRED,12,0.6458442310748047,0,images/picture_1.png,images/picture_1.png,0,"[-11.733433509789466, -11.733433509789462]",-11.733433509789464,-11.733433509789462,images/picture_2.png,1,"[-11.733433509789462, 11.733433509789464]",-11.733433509789462,11.733433509789464,images/picture_3.png,2,"[11.733433509789462, -11.733433509789466]",11.733433509789462,-11.733433509789464,0,1,1,0.6458442310748047,1.6458442310748047,1.3541557689251953,3.0,1,1.3958442310748047,0,4.0,3.0,1,2,9,0,9,0,0,1,1,2,,,,,,,571.1491394580007,571.1491394580007,572.1495551660046,572.550062125003,572.7833248330062,572.7833248330062,572.7833248330062,574.1499365410054,574.1499365410054,574.1499365410054,574.1499365410054,575.1495163330037,200006,005,2023-04-07_11h28.09.141,DMS_et_12-36,2022.2.4,None,
85,UNPRED,12,0.6458442310748047,0,images/picture_1.png,images/picture_1.png,0,"[-11.733433509789462, 11.733433509789464]",-11.733433509789462,11.733433509789464,images/picture_2.png,1,"[11.733433509789464, 11.733433509789462]",11.733433509789464,11.733433509789462,images/picture_3.png,2,"[-11.733433509789466, -11.733433509789462]",-11.733433509789464,-11.733433509789462,0,1,1,0.6458442310748047,1.6458442310748047,1.3541557689251953,3.0,1,1.3958442310748047,0,4.0,3.0,1,2,9,0,9,0,0,2,2,4,,,,,,,575.1495163330037,575.1495163330037,576.1499847080049,576.5499534580013,576.7832132910044,576.7832132910044,576.7832132910044,578.1498878330021,578.1498878330021,578.1498878330021,578.1498878330021,579.1685179160049,200006,005,2023-04-07_11h28.09.141,DMS_et_12-36,2022.2.4,None,
81,UNPRED,12,0.6458442310748047,2,images/picture_3.png,images/picture_1.png,0,"[-11.733433509789466, -11.733433509789462]",-11.733433509789464,-11.733433509789462,images/picture_2.png,1,"[-11.733433509789462, 11.733433509789464]",-11.733433509789462,11.733433509789464,images/picture_3.png,2,"[11.733433509789462, -11.733433509789466]",11.733433509789462,-11.733433509789464,0,1,1,0.6458442310748047,1.6458442310748047,1.3541557689251953,3.0,1,1.3958442310748047,0,4.0,3.0,1,2,9,0,9,0,0,3,3,0,,,,,,,579.1685179160049,579.1685179160049,580.1831809159994,580.5691069580062,580.7829948330036,580.7829948330036,580.7829948330036,582.1495949160017,582.1495949160017,582.1495949160017,582.1495949160017,583.1690572080042,200006,005,2023-04-07_11h28.09.141,DMS_et_12-36,2022.2.4,None,
88,UNPRED,12,0.6458442310748047,2,images/picture_3.png,images/picture_1.png,0,"[11.733433509789464, 11.733433509789462]",11.733433509789464,11.733433509789462,images/picture_2.png,1,"[-11.733433509789466, -11.733433509789462]",-11.733433509789464,-11.733433509789462,images/picture_3.png,2,"[-11.733433509789462, 11.733433509789464]",-11.733433509789462,11.733433509789464,0,1,1,0.6458442310748047,1.6458442310748047,1.3541557689251953,3.0,1,1.3958442310748047,0,4.0,3.0,1,2,9,0,9,0,0,4,4,7,,,,,,,583.1690572080042,583.1690572080042,584.1832193750015,584.5687908750042,584.7831933330017,584.7831933330017,584.7831933330017,586.1499450000047,586.1499450000047,586.1499450000047,586.1499450000047,587.1494512499994,200006,005,2023-04-07_11h28.09.141,DMS_et_12-36,2022.2.4,None,
82,UNPRED,12,0.6458442310748047,0,images/picture_1.png,images/picture_1.png,0,"[11.733433509789464, 11.733433509789462]",11.733433509789464,11.733433509789462,images/picture_2.png,1,"[-11.733433509789462, 11.733433509789464]",-11.733433509789462,11.733433509789464,images/picture_3.png,2,"[-11.733433509789466, -11.733433509789462]",-11.733433509789464,-11.733433509789462,0,1,1,0.6458442310748047,1.6458442310748047,1.3541557689251953,3.0,1,1.3958442310748047,0,4.0,3.0,1,2,9,0,9,0,0,5,5,1,,,,,,,587.1494512499994,587.1494512499994,588.1499467500034,588.5499631250059,588.7832157500015,588.7832157500015,588.7832157500015,590.1498804580042,590.1498804580042,590.1498804580042,590.1498804580042,591.1686595409992,200006,005,2023-04-07_11h28.09.141,DMS_et_12-36,2022.2.4,None,
84,UNPRED,12,0.6458442310748047,2,images/picture_3.png,images/picture_1.png,0,"[11.733433509789462, -11.733433509789466]",11.733433509789462,-11.733433509789464,images/picture_2.png,1,"[-11.733433509789466, -11.733433509789462]",-11.733433509789464,-11.733433509789462,images/picture_3.png,2,"[-11.733433509789462, 11.733433509789464]",-11.733433509789462,11.733433509789464,0,1,1,0.6458442310748047,1.6458442310748047,1.3541557689251953,3.0,1,1.3958442310748047,0,4.0,3.0,1,2,9,0,9,0,0,6,6,3,,,,,,,591.1686595409992,591.1686595409992,592.1830140830061,592.568392291003,592.7830443330022,592.7830443330022,592.7830443330022,594.1499416250008,594.1499416250008,594.1499416250008,594.1499416250008,595.1494495830048,200006,005,2023-04-07_11h28.09.141,DMS_et_12-36,2022.2.4,None,
87,UNPRED,12,0.6458442310748047,0,images/picture_1.png,images/picture_1.png,0,"[-11.733433509789466, -11.733433509789462]",-11.733433509789464,-11.733433509789462,images/picture_2.png,1,"[11.733433509789462, -11.733433509789466]",11.733433509789462,-11.733433509789464,images/picture_3.png,2,"[11.733433509789464, 11.733433509789462]",11.733433509789464,11.733433509789462,0,1,1,0.6458442310748047,1.6458442310748047,1.3541557689251953,3.0,1,1.3958442310748047,0,4.0,3.0,1,2,9,0,9,0,0,7,7,6,,,,,,,595.1494495830048,595.1494495830048,596.149918957999,596.5497093750018,596.783409333002,596.783409333002,596.783409333002,598.1499404160058,598.1499404160058,598.1499404160058,598.1499404160058,599.1495537500014,200006,005,2023-04-07_11h28.09.141,DMS_et_12-36,2022.2.4,None,
86,UNPRED,12,0.6458442310748047,1,images/picture_2.png,images/picture_1.png,0,"[11.733433509789464, 11.733433509789462]",11.733433509789464,11.733433509789462,images/picture_2.png,1,"[-11.733433509789462, 11.733433509789464]",-11.733433509789462,11.733433509789464,images/picture_3.png,2,"[-11.733433509789466, -11.733433509789462]",-11.733433509789464,-11.733433509789462,0,1,1,0.6458442310748047,1.6458442310748047,1.3541557689251953,3.0,1,1.3958442310748047,0,4.0,3.0,1,2,9,0,9,0,0,8,8,5,,,,,,,599.1495537500014,599.1495537500014,600.1499369580051,600.5499865830061,600.7832042080045,600.7832042080045,600.7832042080045,602.1496426660015,602.1496426660015,602.1496426660015,602.1496426660015,603.2458392500048,200006,005,2023-04-07_11h28.09.141,DMS_et_12-36,2022.2.4,None,
,,,,,,,,,,,,,,,,,,,,,,,,,,,,,,,,,,,9,0,9,0,,,,,,,,,603.2458392500048,615.2737830410042,,,,,,,,,,,,,200006,005,2023-04-07_11h28.09.141,DMS_et_12-36,2022.2.4,None,
93,PRED,12,0.6458442310748047,1,images/picture_2.png,images/picture_1.png,0,"[-11.733433509789466, -11.733433509789462]",-11.733433509789464,-11.733433509789462,images/picture_2.png,1,"[11.733433509789462, -11.733433509789466]",11.733433509789462,-11.733433509789464,images/picture_3.png,2,"[-11.733433509789462, 11.733433509789464]",-11.733433509789462,11.733433509789464,0,1,1,0.6458442310748047,1.6458442310748047,1.3541557689251953,3.0,1,1.3958442310748047,0,4.0,3.0,1,2,10,0,10,0,0,0,0,3,,,,,,,615.2737830410042,615.2737830410042,616.2832090830052,616.6831958750045,616.9166533750031,616.9166533750031,616.9166533750031,618.2690265830024,618.2831740000038,618.2831740000038,618.2831740000038,619.2826972500043,200006,005,2023-04-07_11h28.09.141,DMS_et_12-36,2022.2.4,None,
91,PRED,12,0.6458442310748047,1,images/picture_2.png,images/picture_1.png,0,"[11.733433509789464, 11.733433509789462]",11.733433509789464,11.733433509789462,images/picture_2.png,1,"[11.733433509789462, -11.733433509789466]",11.733433509789462,-11.733433509789464,images/picture_3.png,2,"[-11.733433509789466, -11.733433509789462]",-11.733433509789464,-11.733433509789462,0,1,1,0.6458442310748047,1.6458442310748047,1.3541557689251953,3.0,1,1.3958442310748047,0,4.0,3.0,1,2,10,0,10,0,0,1,1,1,,,,,,,619.2826972500043,619.2826972500043,620.2833894580035,620.6831812500022,620.9166912500004,620.9166912500004,620.9166912500004,622.2831665410049,622.2831665410049,622.2831665410049,622.2831665410049,623.2829513329998,200006,005,2023-04-07_11h28.09.141,DMS_et_12-36,2022.2.4,None,
90,PRED,12,0.6458442310748047,1,images/picture_2.png,images/picture_1.png,0,"[-11.733433509789466, -11.733433509789462]",-11.733433509789464,-11.733433509789462,images/picture_2.png,1,"[11.733433509789462, -11.733433509789466]",11.733433509789462,-11.733433509789464,images/picture_3.png,2,"[11.733433509789464, 11.733433509789462]",11.733433509789464,11.733433509789462,0,1,1,0.6458442310748047,1.6458442310748047,1.3541557689251953,3.0,1,1.3958442310748047,0,4.0,3.0,1,2,10,0,10,0,0,2,2,0,,,,,,,623.2829513329998,623.2829513329998,624.283158875005,624.6833813330013,624.9166525410037,624.9166525410037,624.9166525410037,626.283181208004,626.283181208004,626.283181208004,626.283181208004,627.2830074580052,200006,005,2023-04-07_11h28.09.141,DMS_et_12-36,2022.2.4,None,
96,PRED,12,0.6458442310748047,1,images/picture_2.png,images/picture_1.png,0,"[11.733433509789462, -11.733433509789466]",11.733433509789462,-11.733433509789464,images/picture_2.png,1,"[-11.733433509789466, -11.733433509789462]",-11.733433509789464,-11.733433509789462,images/picture_3.png,2,"[-11.733433509789462, 11.733433509789464]",-11.733433509789462,11.733433509789464,0,1,1,0.6458442310748047,1.6458442310748047,1.3541557689251953,3.0,1,1.3958442310748047,0,4.0,3.0,1,2,10,0,10,0,0,3,3,6,,,,,,,627.2830074580052,627.2830074580052,628.2832250409992,628.6833722910014,628.9165295410057,628.9165295410057,628.9165295410057,630.2833692910062,630.2833692910062,630.2833692910062,630.2833692910062,631.2827510000061,200006,005,2023-04-07_11h28.09.141,DMS_et_12-36,2022.2.4,None,
92,PRED,12,0.6458442310748047,1,images/picture_2.png,images/picture_1.png,0,"[11.733433509789464, 11.733433509789462]",11.733433509789464,11.733433509789462,images/picture_2.png,1,"[-11.733433509789466, -11.733433509789462]",-11.733433509789464,-11.733433509789462,images/picture_3.png,2,"[-11.733433509789462, 11.733433509789464]",-11.733433509789462,11.733433509789464,0,1,1,0.6458442310748047,1.6458442310748047,1.3541557689251953,3.0,1,1.3958442310748047,0,4.0,3.0,1,2,10,0,10,0,0,4,4,2,,,,,,,631.2827510000061,631.2827510000061,632.2833044159997,632.683291625006,632.9162346660014,632.9162346660014,632.9162346660014,634.2832682080043,634.2832682080043,634.2832682080043,634.2832682080043,635.282719916002,200006,005,2023-04-07_11h28.09.141,DMS_et_12-36,2022.2.4,None,
97,PRED,12,0.6458442310748047,1,images/picture_2.png,images/picture_1.png,0,"[11.733433509789462, -11.733433509789466]",11.733433509789462,-11.733433509789464,images/picture_2.png,1,"[11.733433509789464, 11.733433509789462]",11.733433509789464,11.733433509789462,images/picture_3.png,2,"[-11.733433509789462, 11.733433509789464]",-11.733433509789462,11.733433509789464,0,1,1,0.6458442310748047,1.6458442310748047,1.3541557689251953,3.0,1,1.3958442310748047,0,4.0,3.0,1,2,10,0,10,0,0,5,5,7,,,,,,,635.282719916002,635.282719916002,636.2833562500018,636.6831717500027,636.9166946660043,636.9166946660043,636.9166946660043,638.283186916,638.283186916,638.283186916,638.283186916,639.2827012910057,200006,005,2023-04-07_11h28.09.141,DMS_et_12-36,2022.2.4,None,
94,PRED,12,0.6458442310748047,1,images/picture_2.png,images/picture_1.png,0,"[11.733433509789464, 11.733433509789462]",11.733433509789464,11.733433509789462,images/picture_2.png,1,"[-11.733433509789462, 11.733433509789464]",-11.733433509789462,11.733433509789464,images/picture_3.png,2,"[11.733433509789462, -11.733433509789466]",11.733433509789462,-11.733433509789464,0,1,1,0.6458442310748047,1.6458442310748047,1.3541557689251953,3.0,1,1.3958442310748047,0,4.0,3.0,1,2,10,0,10,0,0,6,6,4,,,,,,,639.2827012910057,639.2827012910057,640.2831746250013,640.6831792500016,640.9166502500011,640.9166502500011,640.9166502500011,642.2833492499994,642.2833492499994,642.2833492499994,642.2833492499994,643.2829835830053,200006,005,2023-04-07_11h28.09.141,DMS_et_12-36,2022.2.4,None,
98,PRED,12,0.6458442310748047,1,images/picture_2.png,images/picture_1.png,0,"[11.733433509789462, -11.733433509789466]",11.733433509789462,-11.733433509789464,images/picture_2.png,1,"[-11.733433509789462, 11.733433509789464]",-11.733433509789462,11.733433509789464,images/picture_3.png,2,"[-11.733433509789466, -11.733433509789462]",-11.733433509789464,-11.733433509789462,0,1,1,0.6458442310748047,1.6458442310748047,1.3541557689251953,3.0,1,1.3958442310748047,0,4.0,3.0,1,2,10,0,10,0,0,7,7,8,,,,,,,643.2829835830053,643.2829835830053,644.2833622500038,644.6833705000026,644.9166671660059,644.9166671660059,644.9166671660059,646.2831951660046,646.2831951660046,646.2831951660046,646.2831951660046,647.2832112079996,200006,005,2023-04-07_11h28.09.141,DMS_et_12-36,2022.2.4,None,
95,PRED,12,0.6458442310748047,1,images/picture_2.png,images/picture_1.png,0,"[-11.733433509789466, -11.733433509789462]",-11.733433509789464,-11.733433509789462,images/picture_2.png,1,"[11.733433509789464, 11.733433509789462]",11.733433509789464,11.733433509789462,images/picture_3.png,2,"[-11.733433509789462, 11.733433509789464]",-11.733433509789462,11.733433509789464,0,1,1,0.6458442310748047,1.6458442310748047,1.3541557689251953,3.0,1,1.3958442310748047,0,4.0,3.0,1,2,10,0,10,0,0,8,8,5,,,,,,,647.2832112079996,647.2832112079996,648.2839305830057,648.6831942909994,648.916634125002,648.916634125002,648.916634125002,650.2831730000034,650.2831730000034,650.2831730000034,650.2831730000034,651.3943605410022,200006,005,2023-04-07_11h28.09.141,DMS_et_12-36,2022.2.4,None,
,,,,,,,,,,,,,,,,,,,,,,,,,,,,,,,,,,,10,0,10,0,,,,,,,,,651.3943605410022,663.4168823750006,,,,,,,,,,,,,200006,005,2023-04-07_11h28.09.141,DMS_et_12-36,2022.2.4,None,
103,UNPRED,12,0.6458442310748047,2,images/picture_3.png,images/picture_1.png,0,"[11.733433509789464, 11.733433509789462]",11.733433509789464,11.733433509789462,images/picture_2.png,1,"[11.733433509789462, -11.733433509789466]",11.733433509789462,-11.733433509789464,images/picture_3.png,2,"[-11.733433509789466, -11.733433509789462]",-11.733433509789464,-11.733433509789462,0,1,1,0.6458442310748047,1.6458442310748047,1.3541557689251953,3.0,1,1.3958442310748047,0,4.0,3.0,1,2,11,0,11,0,0,0,0,4,,,,,,,663.4168823750006,663.4168823750006,664.4165509580052,664.8167038329993,665.0499958330038,665.0499958330038,665.0499958330038,666.416619458003,666.416619458003,666.416619458003,666.416619458003,667.4356942910017,200006,005,2023-04-07_11h28.09.141,DMS_et_12-36,2022.2.4,None,
102,UNPRED,12,0.6458442310748047,1,images/picture_2.png,images/picture_1.png,0,"[-11.733433509789466, -11.733433509789462]",-11.733433509789464,-11.733433509789462,images/picture_2.png,1,"[11.733433509789462, -11.733433509789466]",11.733433509789462,-11.733433509789464,images/picture_3.png,2,"[-11.733433509789462, 11.733433509789464]",-11.733433509789462,11.733433509789464,0,1,1,0.6458442310748047,1.6458442310748047,1.3541557689251953,3.0,1,1.3958442310748047,0,4.0,3.0,1,2,11,0,11,0,0,1,1,3,,,,,,,667.4356942910017,667.4356942910017,668.4498815830011,668.8359054160028,669.049909333,669.049909333,669.049909333,670.4166103330062,670.4166103330062,670.4166103330062,670.4166103330062,671.4354883750057,200006,005,2023-04-07_11h28.09.141,DMS_et_12-36,2022.2.4,None,
101,UNPRED,12,0.6458442310748047,2,images/picture_3.png,images/picture_1.png,0,"[-11.733433509789466, -11.733433509789462]",-11.733433509789464,-11.733433509789462,images/picture_2.png,1,"[11.733433509789462, -11.733433509789466]",11.733433509789462,-11.733433509789464,images/picture_3.png,2,"[-11.733433509789462, 11.733433509789464]",-11.733433509789462,11.733433509789464,0,1,1,0.6458442310748047,1.6458442310748047,1.3541557689251953,3.0,1,1.3958442310748047,0,4.0,3.0,1,2,11,0,11,0,0,2,2,2,,,,,,,671.4354883750057,671.4354883750057,672.4500079999998,672.8356895000034,673.0500584580004,673.0500584580004,673.0500584580004,674.4162110830002,674.4162110830002,674.4162110830002,674.4162110830002,675.4157424160003,200006,005,2023-04-07_11h28.09.141,DMS_et_12-36,2022.2.4,None,
106,UNPRED,12,0.6458442310748047,0,images/picture_1.png,images/picture_1.png,0,"[11.733433509789462, -11.733433509789466]",11.733433509789462,-11.733433509789464,images/picture_2.png,1,"[-11.733433509789466, -11.733433509789462]",-11.733433509789464,-11.733433509789462,images/picture_3.png,2,"[-11.733433509789462, 11.733433509789464]",-11.733433509789462,11.733433509789464,0,1,1,0.6458442310748047,1.6458442310748047,1.3541557689251953,3.0,1,1.3958442310748047,0,4.0,3.0,1,2,11,0,11,0,0,3,3,7,,,,,,,675.4157424160003,675.4157424160003,676.4167109160044,676.8164435409999,677.0499088330034,677.0499088330034,677.0499088330034,678.4164573750022,678.4164573750022,678.4164573750022,678.4164573750022,679.416069208004,200006,005,2023-04-07_11h28.09.141,DMS_et_12-36,2022.2.4,None,
99,UNPRED,12,0.6458442310748047,1,images/picture_2.png,images/picture_1.png,0,"[-11.733433509789466, -11.733433509789462]",-11.733433509789464,-11.733433509789462,images/picture_2.png,1,"[-11.733433509789462, 11.733433509789464]",-11.733433509789462,11.733433509789464,images/picture_3.png,2,"[11.733433509789464, 11.733433509789462]",11.733433509789464,11.733433509789462,0,1,1,0.6458442310748047,1.6458442310748047,1.3541557689251953,3.0,1,1.3958442310748047,0,4.0,3.0,1,2,11,0,11,0,0,4,4,0,,,,,,,679.416069208004,679.416069208004,680.4163112910028,680.8166967910001,681.0499602500058,681.0499602500058,681.0499602500058,682.4166525830005,682.4166525830005,682.4166525830005,682.4166525830005,683.4161398750002,200006,005,2023-04-07_11h28.09.141,DMS_et_12-36,2022.2.4,None,
107,UNPRED,12,0.6458442310748047,0,images/picture_1.png,images/picture_1.png,0,"[11.733433509789464, 11.733433509789462]",11.733433509789464,11.733433509789462,images/picture_2.png,1,"[11.733433509789462, -11.733433509789466]",11.733433509789462,-11.733433509789464,images/picture_3.png,2,"[-11.733433509789462, 11.733433509789464]",-11.733433509789462,11.733433509789464,0,1,1,0.6458442310748047,1.6458442310748047,1.3541557689251953,3.0,1,1.3958442310748047,0,4.0,3.0,1,2,11,0,11,0,0,5,5,8,,,,,,,683.4161398750002,683.4161398750002,684.416230791001,684.816407833001,685.050051916005,685.050051916005,685.050051916005,686.4166347499995,686.4166347499995,686.4166347499995,686.4166347499995,687.4153959579999,200006,005,2023-04-07_11h28.09.141,DMS_et_12-36,2022.2.4,None,
105,UNPRED,12,0.6458442310748047,1,images/picture_2.png,images/picture_1.png,0,"[-11.733433509789466, -11.733433509789462]",-11.733433509789464,-11.733433509789462,images/picture_2.png,1,"[11.733433509789464, 11.733433509789462]",11.733433509789464,11.733433509789462,images/picture_3.png,2,"[11.733433509789462, -11.733433509789466]",11.733433509789462,-11.733433509789464,0,1,1,0.6458442310748047,1.6458442310748047,1.3541557689251953,3.0,1,1.3958442310748047,0,4.0,3.0,1,2,11,0,11,0,0,6,6,6,,,,,,,687.4153959579999,687.4153959579999,688.4166052500004,688.8167099580023,689.0499032080043,689.0499032080043,689.0499032080043,690.4166671660059,690.4166671660059,690.4166671660059,690.4166671660059,691.4162214160024,200006,005,2023-04-07_11h28.09.141,DMS_et_12-36,2022.2.4,None,
100,UNPRED,12,0.6458442310748047,1,images/picture_2.png,images/picture_1.png,0,"[-11.733433509789462, 11.733433509789464]",-11.733433509789462,11.733433509789464,images/picture_2.png,1,"[-11.733433509789466, -11.733433509789462]",-11.733433509789464,-11.733433509789462,images/picture_3.png,2,"[11.733433509789462, -11.733433509789466]",11.733433509789462,-11.733433509789464,0,1,1,0.6458442310748047,1.6458442310748047,1.3541557689251953,3.0,1,1.3958442310748047,0,4.0,3.0,1,2,11,0,11,0,0,7,7,1,,,,,,,691.4162214160024,691.4162214160024,692.4167019580054,692.8167164580009,693.0499021249998,693.0499021249998,693.0499021249998,694.4163469160048,694.4163469160048,694.4163469160048,694.4163469160048,695.4351223750054,200006,005,2023-04-07_11h28.09.141,DMS_et_12-36,2022.2.4,None,
104,UNPRED,12,0.6458442310748047,2,images/picture_3.png,images/picture_1.png,0,"[11.733433509789462, -11.733433509789466]",11.733433509789462,-11.733433509789464,images/picture_2.png,1,"[11.733433509789464, 11.733433509789462]",11.733433509789464,11.733433509789462,images/picture_3.png,2,"[-11.733433509789462, 11.733433509789464]",-11.733433509789462,11.733433509789464,0,1,1,0.6458442310748047,1.6458442310748047,1.3541557689251953,3.0,1,1.3958442310748047,0,4.0,3.0,1,2,11,0,11,0,0,8,8,5,,,,,,,695.4351223750054,695.4351223750054,696.4499755409997,696.8358272910045,697.0499188750036,697.0499188750036,697.0499188750036,698.4166816659999,698.4166816659999,698.4166816659999,698.4166816659999,699.5830060410008,200006,005,2023-04-07_11h28.09.141,DMS_et_12-36,2022.2.4,None,
,,,,,,,,,,,,,,,,,,,,,,,,,,,,,,,,,,,11,0,11,0,,,,,,,,,699.5830060410008,711.7137400409993,,,,,,,,,,,,,200006,005,2023-04-07_11h28.09.141,DMS_et_12-36,2022.2.4,None,
,,,,,,,,,,,,,,,,,,,,,,,,,,,,,,,,,,,,,,,,,,,,,,,711.7137400409993,724.2463407500036,,,,,,,,,,,,,,,,,,,
