trial_count,blockType,blockNum,delay_time,stimImage_i,stimImage,responseImage1,responseImage1_i,responseImage1_pos,responseImage1_X,responseImage1_Y,responseImage2,responseImage2_i,responseImage2_pos,responseImage2_X,responseImage2_Y,responseImage3,responseImage3_i,responseImage3_pos,responseImage3_X,responseImage3_Y,cue_onset,cue_dur,delay_onset,delay_dur,resp_onset,resp_dur,rest_onset,rest_dur,circle_dur,circle_onset,blocks.thisRepN,blocks.thisTrialN,blocks.thisN,blocks.thisIndex,trials.thisRepN,trials.thisTrialN,trials.thisN,trials.thisIndex,key_resp.started,text.started,key_resp.keys,key_resp.rt,text_2.started,text_2.stopped,etRecord.started,sample.started,Delay.started,sample.stopped,Response_1.started,Response_2.started,Response_3.started,Delay.stopped,polygon.started,Response_1.stopped,Response_2.stopped,Response_3.stopped,polygon.stopped,etRecord.stopped,participant,session,date,expName,psychopyVersion,frameRate,
,,,,,,,,,,,,,,,,,,,,,,,,,,,,,,,,,,,,,,,158.56994991598185,158.56994991598185,t,64.46061112498865,,,,,,,,,,,,,,,,,200002,202,2023-03-21_15h31.16.864,DMS_BEST_eyetracking_DAN_base_12-36_looped_10minWORKING,2022.2.4,None,
5,PRED,12,0.674812367879708,2,images/picture_3.png,images/picture_1.png,0,"[11.733433509789464, 11.733433509789462]",11.733433509789464,11.733433509789462,images/picture_2.png,1,"[-11.733433509789462, 11.733433509789464]",-11.733433509789462,11.733433509789464,images/picture_3.png,2,"[-11.733433509789466, -11.733433509789462]",-11.733433509789464,-11.733433509789462,0,1,1,0.674812367879708,1.6748123678797082,1.325187632120292,3,1,1.4248123678797082,0,0,0,0,0,0,0,0,5,,,,,223.04769141599536,235.6010064999573,,,,,,,,,,,,,,,200002,202,2023-03-21_15h31.16.864,DMS_BEST_eyetracking_DAN_base_12-36_looped_10minWORKING,2022.2.4,None,
5,PRED,12,0.674812367879708,2,images/picture_3.png,images/picture_1.png,0,"[11.733433509789464, 11.733433509789462]",11.733433509789464,11.733433509789462,images/picture_2.png,1,"[-11.733433509789462, 11.733433509789464]",-11.733433509789462,11.733433509789464,images/picture_3.png,2,"[-11.733433509789466, -11.733433509789462]",-11.733433509789464,-11.733433509789462,0,1,1,0.674812367879708,1.6748123678797082,1.325187632120292,3,1,1.4248123678797082,0,0,0,0,0,0,0,0,5,,,,,,,0.004985125036910176,235.6010064999573,235.6010064999573,236.61483395798132,236.7623645409476,236.7623645409476,236.7623645409476,237.02941650000867,238.0818100409815,238.09557666594628,238.09557666594628,238.09557666594628,239.09588462498505,4.518255125032738,200002,202,2023-03-21_15h31.16.864,DMS_BEST_eyetracking_DAN_base_12-36_looped_10minWORKING,2022.2.4,None,
0,PRED,12,1.075128457307858,2,images/picture_3.png,images/picture_1.png,0,"[11.733433509789462, -11.733433509789466]",11.733433509789462,-11.733433509789464,images/picture_2.png,1,"[11.733433509789464, 11.733433509789462]",11.733433509789464,11.733433509789462,images/picture_3.png,2,"[-11.733433509789462, 11.733433509789464]",-11.733433509789462,11.733433509789464,0,1,1,1.075128457307858,2.0751284573078577,0.924871542692142,3,1,1.8251284573078577,0,0,0,0,0,0,1,1,0,,,,,,,,,,,,,,,,,,,,,200002,202,2023-03-21_15h31.16.864,DMS_BEST_eyetracking_DAN_base_12-36_looped_10minWORKING,2022.2.4,None,
0,PRED,12,1.075128457307858,2,images/picture_3.png,images/picture_1.png,0,"[11.733433509789462, -11.733433509789466]",11.733433509789462,-11.733433509789464,images/picture_2.png,1,"[11.733433509789464, 11.733433509789462]",11.733433509789464,11.733433509789462,images/picture_3.png,2,"[-11.733433509789462, 11.733433509789464]",-11.733433509789462,11.733433509789464,0,1,1,1.075128457307858,2.0751284573078577,0.924871542692142,3,1,1.8251284573078577,0,0,0,0,0,0,1,1,0,,,,,,,0.004957958939485252,240.62685845792294,240.62685845792294,241.629189249943,242.1820880000014,242.1820880000014,242.1820880000014,242.46232583292294,243.11440112499986,243.11440112499986,243.11440112499986,243.11440112499986,244.1293089579558,4.511275083990768,200002,202,2023-03-21_15h31.16.864,DMS_BEST_eyetracking_DAN_base_12-36_looped_10minWORKING,2022.2.4,None,
3,PRED,12,0.5427231093647411,2,images/picture_3.png,images/picture_1.png,0,"[11.733433509789464, 11.733433509789462]",11.733433509789464,11.733433509789462,images/picture_2.png,1,"[11.733433509789462, -11.733433509789466]",11.733433509789462,-11.733433509789464,images/picture_3.png,2,"[-11.733433509789462, 11.733433509789464]",-11.733433509789462,11.733433509789464,0,1,1,0.5427231093647411,1.5427231093647409,1.4572768906352591,3,1,1.292723109364741,0,0,0,0,0,0,2,2,3,,,,,,,,,,,,,,,,,,,,,200002,202,2023-03-21_15h31.16.864,DMS_BEST_eyetracking_DAN_base_12-36_looped_10minWORKING,2022.2.4,None,
3,PRED,12,0.5427231093647411,2,images/picture_3.png,images/picture_1.png,0,"[11.733433509789464, 11.733433509789462]",11.733433509789464,11.733433509789462,images/picture_2.png,1,"[11.733433509789462, -11.733433509789466]",11.733433509789462,-11.733433509789464,images/picture_3.png,2,"[-11.733433509789462, 11.733433509789464]",-11.733433509789462,11.733433509789464,0,1,1,0.5427231093647411,1.5427231093647409,1.4572768906352591,3,1,1.292723109364741,0,0,0,0,0,0,2,2,3,,,,,,,0.004868125077337027,245.65019487496465,245.65019487496465,246.66258574998938,246.66258574998938,246.66258574998938,246.66258574998938,246.94849541597068,248.12930191599298,248.12930191599298,248.12930191599298,248.12930191599298,249.12929583294317,4.526068959035911,200002,202,2023-03-21_15h31.16.864,DMS_BEST_eyetracking_DAN_base_12-36_looped_10minWORKING,2022.2.4,None,
8,PRED,12,0.6841889975428754,2,images/picture_3.png,images/picture_1.png,0,"[-11.733433509789466, -11.733433509789462]",-11.733433509789464,-11.733433509789462,images/picture_2.png,1,"[11.733433509789464, 11.733433509789462]",11.733433509789464,11.733433509789462,images/picture_3.png,2,"[11.733433509789462, -11.733433509789466]",11.733433509789462,-11.733433509789464,0,1,1,0.6841889975428754,1.6841889975428754,1.3158110024571246,3,1,1.4341889975428754,0,0,0,0,0,0,3,3,8,,,,,,,,,,,,,,,,,,,,,200002,202,2023-03-21_15h31.16.864,DMS_BEST_eyetracking_DAN_base_12-36_looped_10minWORKING,2022.2.4,None,
8,PRED,12,0.6841889975428754,2,images/picture_3.png,images/picture_1.png,0,"[-11.733433509789466, -11.733433509789462]",-11.733433509789464,-11.733433509789462,images/picture_2.png,1,"[11.733433509789464, 11.733433509789462]",11.733433509789464,11.733433509789462,images/picture_3.png,2,"[11.733433509789462, -11.733433509789466]",11.733433509789462,-11.733433509789464,0,1,1,0.6841889975428754,1.6841889975428754,1.3158110024571246,3,1,1.4341889975428754,0,0,0,0,0,0,3,3,8,,,,,,,0.0031750829657539725,250.68546666600741,250.68546666600741,251.69605583301745,251.84851662500296,251.84851662500296,251.84851662500296,252.12903541594278,253.16244629095308,253.16244629095308,253.16244629095308,253.16244629095308,254.1626506659668,4.519444082980044,200002,202,2023-03-21_15h31.16.864,DMS_BEST_eyetracking_DAN_base_12-36_looped_10minWORKING,2022.2.4,None,
1,PRED,12,0.5318170788255379,2,images/picture_3.png,images/picture_1.png,0,"[-11.733433509789462, 11.733433509789464]",-11.733433509789462,11.733433509789464,images/picture_2.png,1,"[-11.733433509789466, -11.733433509789462]",-11.733433509789464,-11.733433509789462,images/picture_3.png,2,"[11.733433509789464, 11.733433509789462]",11.733433509789464,11.733433509789462,0,1,1,0.5318170788255379,1.531817078825538,1.468182921174462,3,1,1.281817078825538,0,0,0,0,0,0,4,4,1,,,,,,,,,,,,,,,,,,,,,200002,202,2023-03-21_15h31.16.864,DMS_BEST_eyetracking_DAN_base_12-36_looped_10minWORKING,2022.2.4,None,
1,PRED,12,0.5318170788255379,2,images/picture_3.png,images/picture_1.png,0,"[-11.733433509789462, 11.733433509789464]",-11.733433509789462,11.733433509789464,images/picture_2.png,1,"[-11.733433509789466, -11.733433509789462]",-11.733433509789464,-11.733433509789462,images/picture_3.png,2,"[11.733433509789464, 11.733433509789462]",11.733433509789464,11.733433509789462,0,1,1,0.5318170788255379,1.531817078825538,1.468182921174462,3,1,1.281817078825538,0,0,0,0,0,0,4,4,1,,,,,,,0.00458608299959451,255.70654012495652,255.70654012495652,256.71517720795237,256.72919362492394,256.72919362492394,256.72919362492394,256.99574225000106,258.1958622080274,258.1958622080274,258.1958622080274,258.1958622080274,259.19610741594806,4.506667332956567,200002,202,2023-03-21_15h31.16.864,DMS_BEST_eyetracking_DAN_base_12-36_looped_10minWORKING,2022.2.4,None,
7,PRED,12,0.505219049668584,2,images/picture_3.png,images/picture_1.png,0,"[-11.733433509789466, -11.733433509789462]",-11.733433509789464,-11.733433509789462,images/picture_2.png,1,"[11.733433509789462, -11.733433509789466]",11.733433509789462,-11.733433509789464,images/picture_3.png,2,"[11.733433509789464, 11.733433509789462]",11.733433509789464,11.733433509789462,0,1,1,0.505219049668584,1.5052190496685838,1.4947809503314162,3,1,1.255219049668584,0,0,0,0,0,0,5,5,7,,,,,,,,,,,,,,,,,,,,,200002,202,2023-03-21_15h31.16.864,DMS_BEST_eyetracking_DAN_base_12-36_looped_10minWORKING,2022.2.4,None,
7,PRED,12,0.505219049668584,2,images/picture_3.png,images/picture_1.png,0,"[-11.733433509789466, -11.733433509789462]",-11.733433509789464,-11.733433509789462,images/picture_2.png,1,"[11.733433509789462, -11.733433509789466]",11.733433509789462,-11.733433509789464,images/picture_3.png,2,"[11.733433509789464, 11.733433509789462]",11.733433509789464,11.733433509789462,0,1,1,0.505219049668584,1.5052190496685838,1.4947809503314162,3,1,1.255219049668584,0,0,0,0,0,0,5,5,7,,,,,,,0.004908833070658147,260.72620041598566,260.72620041598566,261.72933179093525,261.7152530410094,261.7152530410094,261.7152530410094,261.99586341599934,263.2149915000191,263.2149915000191,263.2149915000191,263.2149915000191,264.2292408749927,4.511892750044353,200002,202,2023-03-21_15h31.16.864,DMS_BEST_eyetracking_DAN_base_12-36_looped_10minWORKING,2022.2.4,None,
4,PRED,12,1.1002504885155342,2,images/picture_3.png,images/picture_1.png,0,"[11.733433509789462, -11.733433509789466]",11.733433509789462,-11.733433509789464,images/picture_2.png,1,"[11.733433509789464, 11.733433509789462]",11.733433509789464,11.733433509789462,images/picture_3.png,2,"[-11.733433509789466, -11.733433509789462]",-11.733433509789464,-11.733433509789462,0,1,1,1.1002504885155342,2.100250488515534,0.8997495114844658,3,1,1.8502504885155344,0,0,0,0,0,0,6,6,4,,,,,,,,,,,,,,,,,,,,,200002,202,2023-03-21_15h31.16.864,DMS_BEST_eyetracking_DAN_base_12-36_looped_10minWORKING,2022.2.4,None,
4,PRED,12,1.1002504885155342,2,images/picture_3.png,images/picture_1.png,0,"[11.733433509789462, -11.733433509789466]",11.733433509789462,-11.733433509789464,images/picture_2.png,1,"[11.733433509789464, 11.733433509789462]",11.733433509789464,11.733433509789462,images/picture_3.png,2,"[-11.733433509789466, -11.733433509789462]",-11.733433509789464,-11.733433509789462,0,1,1,1.1002504885155342,2.100250488515534,0.8997495114844658,3,1,1.8502504885155344,0,0,0,0,0,0,6,6,4,,,,,,,0.003252208000048995,265.7493903329596,265.7493903329596,266.7625925409375,267.32929158292245,267.32929158292245,267.32929158292245,267.5960052079754,268.22904775000643,268.22904775000643,268.22904775000643,268.22904775000643,269.2293083749246,4.519140333053656,200002,202,2023-03-21_15h31.16.864,DMS_BEST_eyetracking_DAN_base_12-36_looped_10minWORKING,2022.2.4,None,
2,PRED,12,0.8942287514684624,2,images/picture_3.png,images/picture_1.png,0,"[-11.733433509789462, 11.733433509789464]",-11.733433509789462,11.733433509789464,images/picture_2.png,1,"[-11.733433509789466, -11.733433509789462]",-11.733433509789464,-11.733433509789462,images/picture_3.png,2,"[11.733433509789464, 11.733433509789462]",11.733433509789464,11.733433509789462,0,1,1,0.8942287514684624,1.8942287514684624,1.1057712485315376,3,1,1.6442287514684624,0,0,0,0,0,0,7,7,2,,,,,,,,,,,,,,,,,,,,,200002,202,2023-03-21_15h31.16.864,DMS_BEST_eyetracking_DAN_base_12-36_looped_10minWORKING,2022.2.4,None,
2,PRED,12,0.8942287514684624,2,images/picture_3.png,images/picture_1.png,0,"[-11.733433509789462, 11.733433509789464]",-11.733433509789462,11.733433509789464,images/picture_2.png,1,"[-11.733433509789466, -11.733433509789462]",-11.733433509789464,-11.733433509789462,images/picture_3.png,2,"[11.733433509789464, 11.733433509789462]",11.733433509789464,11.733433509789462,0,1,1,0.8942287514684624,1.8942287514684624,1.1057712485315376,3,1,1.6442287514684624,0,0,0,0,0,0,7,7,2,,,,,,,0.004603542038239539,270.77284154098015,270.77284154098015,271.7820565829752,272.1623723329976,272.1623723329976,272.1623723329976,272.42916070797946,273.262358790962,273.2810462079942,273.2810462079942,273.2810462079942,274.2622235409217,4.506955625023693,200002,202,2023-03-21_15h31.16.864,DMS_BEST_eyetracking_DAN_base_12-36_looped_10minWORKING,2022.2.4,None,
6,PRED,12,0.7810833485805629,2,images/picture_3.png,images/picture_1.png,0,"[-11.733433509789462, 11.733433509789464]",-11.733433509789462,11.733433509789464,images/picture_2.png,1,"[11.733433509789464, 11.733433509789462]",11.733433509789464,11.733433509789462,images/picture_3.png,2,"[11.733433509789462, -11.733433509789466]",11.733433509789462,-11.733433509789464,0,1,1,0.7810833485805629,1.7810833485805628,1.2189166514194372,3,1,1.5310833485805628,0,0,0,0,0,0,8,8,6,,,,,,,,,,,,,,,,,,,,,200002,202,2023-03-21_15h31.16.864,DMS_BEST_eyetracking_DAN_base_12-36_looped_10minWORKING,2022.2.4,None,
6,PRED,12,0.7810833485805629,2,images/picture_3.png,images/picture_1.png,0,"[-11.733433509789462, 11.733433509789464]",-11.733433509789462,11.733433509789464,images/picture_2.png,1,"[11.733433509789464, 11.733433509789462]",11.733433509789464,11.733433509789462,images/picture_3.png,2,"[11.733433509789462, -11.733433509789466]",11.733433509789462,-11.733433509789464,0,1,1,0.7810833485805629,1.7810833485805628,1.2189166514194372,3,1,1.5310833485805628,0,0,0,0,0,0,8,8,6,,,,,,,0.005024124984629452,275.7918011249276,275.7918011249276,276.7959179999307,277.0624545000028,277.0624545000028,277.0624545000028,277.3291227079462,278.28184879093897,278.296063415939,278.296063415939,278.296063415939,279.29584199993405,4.512720333063044,200002,202,2023-03-21_15h31.16.864,DMS_BEST_eyetracking_DAN_base_12-36_looped_10minWORKING,2022.2.4,None,
,,,,,,,,,,,,,,,,,,,,,,,,,,,,,,,0,0,0,0,,,,,,,,,280.33667062502354,292.87347145797685,,,,,,,,,,,,,,,200002,202,2023-03-21_15h31.16.864,DMS_BEST_eyetracking_DAN_base_12-36_looped_10minWORKING,2022.2.4,None,
17,UNPRED,12,0.971094181420976,1,images/picture_2.png,images/picture_1.png,0,"[-11.733433509789462, 11.733433509789464]",-11.733433509789462,11.733433509789464,images/picture_2.png,1,"[-11.733433509789466, -11.733433509789462]",-11.733433509789464,-11.733433509789462,images/picture_3.png,2,"[11.733433509789462, -11.733433509789466]",11.733433509789462,-11.733433509789464,0,1,1,0.971094181420976,1.971094181420976,1.028905818579024,3,1,1.721094181420976,0,1,0,1,0,0,0,0,8,,,,,,,,,,,,,,,,,,,,,200002,202,2023-03-21_15h31.16.864,DMS_BEST_eyetracking_DAN_base_12-36_looped_10minWORKING,2022.2.4,None,
17,UNPRED,12,0.971094181420976,1,images/picture_2.png,images/picture_1.png,0,"[-11.733433509789462, 11.733433509789464]",-11.733433509789462,11.733433509789464,images/picture_2.png,1,"[-11.733433509789466, -11.733433509789462]",-11.733433509789464,-11.733433509789462,images/picture_3.png,2,"[11.733433509789462, -11.733433509789466]",11.733433509789462,-11.733433509789464,0,1,1,0.971094181420976,1.971094181420976,1.028905818579024,3,1,1.721094181420976,0,1,0,1,0,0,0,0,8,,,,,,,0.004640250001102686,292.87347145797685,292.87347145797685,293.88131079101004,294.3290757499635,294.3290757499635,294.3290757499635,294.59572604100686,295.362372207921,295.362372207921,295.362372207921,295.362372207921,296.36270920792595,4.507589666987769,200002,202,2023-03-21_15h31.16.864,DMS_BEST_eyetracking_DAN_base_12-36_looped_10minWORKING,2022.2.4,None,
9,UNPRED,12,0.5125833364486141,2,images/picture_3.png,images/picture_1.png,0,"[-11.733433509789462, 11.733433509789464]",-11.733433509789462,11.733433509789464,images/picture_2.png,1,"[11.733433509789464, 11.733433509789462]",11.733433509789464,11.733433509789462,images/picture_3.png,2,"[-11.733433509789466, -11.733433509789462]",-11.733433509789464,-11.733433509789462,0,1,1,0.5125833364486141,1.512583336448614,1.487416663551386,3,1,1.262583336448614,0,1,0,1,0,0,1,1,0,,,,,,,,,,,,,,,,,,,,,200002,202,2023-03-21_15h31.16.864,DMS_BEST_eyetracking_DAN_base_12-36_looped_10minWORKING,2022.2.4,None,
9,UNPRED,12,0.5125833364486141,2,images/picture_3.png,images/picture_1.png,0,"[-11.733433509789462, 11.733433509789464]",-11.733433509789462,11.733433509789464,images/picture_2.png,1,"[11.733433509789464, 11.733433509789462]",11.733433509789464,11.733433509789462,images/picture_3.png,2,"[-11.733433509789466, -11.733433509789462]",-11.733433509789464,-11.733433509789462,0,1,1,0.5125833364486141,1.512583336448614,1.487416663551386,3,1,1.262583336448614,0,1,0,1,0,0,1,1,0,,,,,,,0.005016583018004894,297.88739854097366,297.88739854097366,298.8960866659181,298.8960866659181,298.8960866659181,298.8960866659181,299.16258745791856,300.38244358298834,300.39620249997824,300.39620249997824,300.39620249997824,301.39590704091825,4.513432958046906,200002,202,2023-03-21_15h31.16.864,DMS_BEST_eyetracking_DAN_base_12-36_looped_10minWORKING,2022.2.4,None,
13,UNPRED,12,0.6763897420066156,1,images/picture_2.png,images/picture_1.png,0,"[-11.733433509789462, 11.733433509789464]",-11.733433509789462,11.733433509789464,images/picture_2.png,1,"[11.733433509789462, -11.733433509789466]",11.733433509789462,-11.733433509789464,images/picture_3.png,2,"[-11.733433509789466, -11.733433509789462]",-11.733433509789464,-11.733433509789462,0,1,1,0.6763897420066156,1.6763897420066156,1.3236102579933844,3,1,1.4263897420066156,0,1,0,1,0,0,2,2,4,,,,,,,,,,,,,,,,,,,,,200002,202,2023-03-21_15h31.16.864,DMS_BEST_eyetracking_DAN_base_12-36_looped_10minWORKING,2022.2.4,None,
13,UNPRED,12,0.6763897420066156,1,images/picture_2.png,images/picture_1.png,0,"[-11.733433509789462, 11.733433509789464]",-11.733433509789462,11.733433509789464,images/picture_2.png,1,"[11.733433509789462, -11.733433509789466]",11.733433509789462,-11.733433509789464,images/picture_3.png,2,"[-11.733433509789466, -11.733433509789462]",-11.733433509789464,-11.733433509789462,0,1,1,0.6763897420066156,1.6763897420066156,1.3236102579933844,3,1,1.4263897420066156,0,1,0,1,0,0,2,2,4,,,,,,,0.006402832921594381,302.9133455409901,302.9133455409901,303.9146839999594,304.06243129097857,304.06243129097857,304.06243129097857,304.34783970797434,305.3957622499438,305.3957622499438,305.3957622499438,305.3957622499438,306.3959944159724,4.506194624933414,200002,202,2023-03-21_15h31.16.864,DMS_BEST_eyetracking_DAN_base_12-36_looped_10minWORKING,2022.2.4,None,
14,UNPRED,12,0.7437226461571029,2,images/picture_3.png,images/picture_1.png,0,"[11.733433509789464, 11.733433509789462]",11.733433509789464,11.733433509789462,images/picture_2.png,1,"[-11.733433509789466, -11.733433509789462]",-11.733433509789464,-11.733433509789462,images/picture_3.png,2,"[11.733433509789462, -11.733433509789466]",11.733433509789462,-11.733433509789464,0,1,1,0.7437226461571029,1.743722646157103,1.256277353842897,3,1,1.493722646157103,0,1,0,1,0,0,3,3,5,,,,,,,,,,,,,,,,,,,,,200002,202,2023-03-21_15h31.16.864,DMS_BEST_eyetracking_DAN_base_12-36_looped_10minWORKING,2022.2.4,None,
14,UNPRED,12,0.7437226461571029,2,images/picture_3.png,images/picture_1.png,0,"[11.733433509789464, 11.733433509789462]",11.733433509789464,11.733433509789462,images/picture_2.png,1,"[-11.733433509789466, -11.733433509789462]",-11.733433509789464,-11.733433509789462,images/picture_3.png,2,"[11.733433509789462, -11.733433509789466]",11.733433509789462,-11.733433509789464,0,1,1,0.7437226461571029,1.743722646157103,1.256277353842897,3,1,1.493722646157103,0,1,0,1,0,0,3,3,5,,,,,,,0.004350250004790723,307.9312456250191,307.9312456250191,308.9294159999117,309.162598707946,309.162598707946,309.162598707946,309.4291708749952,310.41545066598337,310.4292781249387,310.4292781249387,310.4292781249387,311.42940858297516,4.506808542064391,200002,202,2023-03-21_15h31.16.864,DMS_BEST_eyetracking_DAN_base_12-36_looped_10minWORKING,2022.2.4,None,
12,UNPRED,12,1.0749781077450558,2,images/picture_3.png,images/picture_1.png,0,"[11.733433509789462, -11.733433509789466]",11.733433509789462,-11.733433509789464,images/picture_2.png,1,"[-11.733433509789462, 11.733433509789464]",-11.733433509789462,11.733433509789464,images/picture_3.png,2,"[-11.733433509789466, -11.733433509789462]",-11.733433509789464,-11.733433509789462,0,1,1,1.0749781077450558,2.074978107745056,0.9250218922549442,3,1,1.824978107745056,0,1,0,1,0,0,4,4,3,,,,,,,,,,,,,,,,,,,,,200002,202,2023-03-21_15h31.16.864,DMS_BEST_eyetracking_DAN_base_12-36_looped_10minWORKING,2022.2.4,None,
12,UNPRED,12,1.0749781077450558,2,images/picture_3.png,images/picture_1.png,0,"[11.733433509789462, -11.733433509789466]",11.733433509789462,-11.733433509789464,images/picture_2.png,1,"[-11.733433509789462, 11.733433509789464]",-11.733433509789462,11.733433509789464,images/picture_3.png,2,"[-11.733433509789466, -11.733433509789462]",-11.733433509789464,-11.733433509789462,0,1,1,1.0749781077450558,2.074978107745056,0.9250218922549442,3,1,1.824978107745056,0,1,0,1,0,0,4,4,3,,,,,,,0.004654958960600197,312.9399729159195,312.9399729159195,313.9488420409616,314.4955987909343,314.4955987909343,314.4955987909343,314.7624721659813,315.42928662500344,315.42928662500344,315.42928662500344,315.42928662500344,316.4292539579328,4.506739874952473,200002,202,2023-03-21_15h31.16.864,DMS_BEST_eyetracking_DAN_base_12-36_looped_10minWORKING,2022.2.4,None,
16,UNPRED,12,1.1733060224458638,1,images/picture_2.png,images/picture_1.png,0,"[-11.733433509789466, -11.733433509789462]",-11.733433509789464,-11.733433509789462,images/picture_2.png,1,"[11.733433509789464, 11.733433509789462]",11.733433509789464,11.733433509789462,images/picture_3.png,2,"[11.733433509789462, -11.733433509789466]",11.733433509789462,-11.733433509789464,0,1,1,1.1733060224458638,2.173306022445864,0.8266939775541362,3,1,1.923306022445864,0,1,0,1,0,0,5,5,7,,,,,,,,,,,,,,,,,,,,,200002,202,2023-03-21_15h31.16.864,DMS_BEST_eyetracking_DAN_base_12-36_looped_10minWORKING,2022.2.4,None,
16,UNPRED,12,1.1733060224458638,1,images/picture_2.png,images/picture_1.png,0,"[-11.733433509789466, -11.733433509789462]",-11.733433509789464,-11.733433509789462,images/picture_2.png,1,"[11.733433509789464, 11.733433509789462]",11.733433509789464,11.733433509789462,images/picture_3.png,2,"[11.733433509789462, -11.733433509789466]",11.733433509789462,-11.733433509789464,0,1,1,1.1733060224458638,2.173306022445864,0.8266939775541362,3,1,1.923306022445864,0,1,0,1,0,0,5,5,7,,,,,,,0.007088707992807031,317.962578290957,317.962578290957,318.9628858329961,319.61533245793544,319.61533245793544,319.61533245793544,319.8959920000052,320.44886749994475,320.44886749994475,320.44886749994475,320.44886749994475,321.46264966600575,4.512269041966647,200002,202,2023-03-21_15h31.16.864,DMS_BEST_eyetracking_DAN_base_12-36_looped_10minWORKING,2022.2.4,None,
10,UNPRED,12,0.946169441449524,1,images/picture_2.png,images/picture_1.png,0,"[-11.733433509789466, -11.733433509789462]",-11.733433509789464,-11.733433509789462,images/picture_2.png,1,"[11.733433509789462, -11.733433509789466]",11.733433509789462,-11.733433509789464,images/picture_3.png,2,"[-11.733433509789462, 11.733433509789464]",-11.733433509789462,11.733433509789464,0,1,1,0.946169441449524,1.946169441449524,1.053830558550476,3,1,1.696169441449524,0,1,0,1,0,0,6,6,1,,,,,,,,,,,,,,,,,,,,,200002,202,2023-03-21_15h31.16.864,DMS_BEST_eyetracking_DAN_base_12-36_looped_10minWORKING,2022.2.4,None,
10,UNPRED,12,0.946169441449524,1,images/picture_2.png,images/picture_1.png,0,"[-11.733433509789466, -11.733433509789462]",-11.733433509789464,-11.733433509789462,images/picture_2.png,1,"[11.733433509789462, -11.733433509789466]",11.733433509789462,-11.733433509789464,images/picture_3.png,2,"[-11.733433509789462, 11.733433509789464]",-11.733433509789462,11.733433509789464,0,1,1,0.946169441449524,1.946169441449524,1.053830558550476,3,1,1.696169441449524,0,1,0,1,0,0,6,6,1,,,,,,,0.004984374972991645,322.98327837500256,322.98327837500256,323.9959472499322,324.415414707968,324.415414707968,324.415414707968,324.68228920793626,325.46253116591834,325.48145174991805,325.48145174991805,325.48145174991805,326.4622183749452,4.519999666023068,200002,202,2023-03-21_15h31.16.864,DMS_BEST_eyetracking_DAN_base_12-36_looped_10minWORKING,2022.2.4,None,
11,UNPRED,12,0.6395208434140037,2,images/picture_3.png,images/picture_1.png,0,"[11.733433509789464, 11.733433509789462]",11.733433509789464,11.733433509789462,images/picture_2.png,1,"[11.733433509789462, -11.733433509789466]",11.733433509789462,-11.733433509789464,images/picture_3.png,2,"[-11.733433509789466, -11.733433509789462]",-11.733433509789464,-11.733433509789462,0,1,1,0.6395208434140037,1.6395208434140036,1.3604791565859964,3,1,1.3895208434140036,0,1,0,1,0,0,7,7,2,,,,,,,,,,,,,,,,,,,,,200002,202,2023-03-21_15h31.16.864,DMS_BEST_eyetracking_DAN_base_12-36_looped_10minWORKING,2022.2.4,None,
11,UNPRED,12,0.6395208434140037,2,images/picture_3.png,images/picture_1.png,0,"[11.733433509789464, 11.733433509789462]",11.733433509789464,11.733433509789462,images/picture_2.png,1,"[11.733433509789462, -11.733433509789466]",11.733433509789462,-11.733433509789464,images/picture_3.png,2,"[-11.733433509789466, -11.733433509789462]",-11.733433509789464,-11.733433509789462,0,1,1,0.6395208434140037,1.6395208434140036,1.3604791565859964,3,1,1.3895208434140036,0,1,0,1,0,0,7,7,2,,,,,,,0.004777750000357628,328.005798707949,328.005798707949,329.01548954099417,329.1292739579221,329.1292739579221,329.1292739579221,329.3960694579873,330.49606370797846,330.49606370797846,330.49606370797846,330.49606370797846,331.4960505409399,4.507573083974421,200002,202,2023-03-21_15h31.16.864,DMS_BEST_eyetracking_DAN_base_12-36_looped_10minWORKING,2022.2.4,None,
15,UNPRED,12,1.0448705570225436,2,images/picture_3.png,images/picture_1.png,0,"[11.733433509789462, -11.733433509789466]",11.733433509789462,-11.733433509789464,images/picture_2.png,1,"[11.733433509789464, 11.733433509789462]",11.733433509789464,11.733433509789462,images/picture_3.png,2,"[-11.733433509789462, 11.733433509789464]",-11.733433509789462,11.733433509789464,0,1,1,1.0448705570225436,2.044870557022544,0.9551294429774564,3,1,1.7948705570225436,0,1,0,1,0,0,8,8,6,,,,,,,,,,,,,,,,,,,,,200002,202,2023-03-21_15h31.16.864,DMS_BEST_eyetracking_DAN_base_12-36_looped_10minWORKING,2022.2.4,None,
15,UNPRED,12,1.0448705570225436,2,images/picture_3.png,images/picture_1.png,0,"[11.733433509789462, -11.733433509789466]",11.733433509789462,-11.733433509789464,images/picture_2.png,1,"[11.733433509789464, 11.733433509789462]",11.733433509789464,11.733433509789462,images/picture_3.png,2,"[-11.733433509789462, 11.733433509789464]",-11.733433509789462,11.733433509789464,0,1,1,1.0448705570225436,2.044870557022544,0.9551294429774564,3,1,1.7948705570225436,0,1,0,1,0,0,8,8,6,,,,,,,0.004919833969324827,333.0263126249192,333.0263126249192,334.02942016592715,334.5627426659921,334.5627426659921,334.5627426659921,334.8293099999428,335.51445079094265,335.52924570802134,335.52924570802134,335.52924570802134,336.52928100002464,4.512471624999307,200002,202,2023-03-21_15h31.16.864,DMS_BEST_eyetracking_DAN_base_12-36_looped_10minWORKING,2022.2.4,None,
,,,,,,,,,,,,,,,,,,,,,,,,,,,,,,,1,0,1,0,,,,,,,,,337.5838434159523,350.1206541249994,,,,,,,,,,,,,,,200002,202,2023-03-21_15h31.16.864,DMS_BEST_eyetracking_DAN_base_12-36_looped_10minWORKING,2022.2.4,None,
21,PRED,12,0.71521601073616,2,images/picture_3.png,images/picture_1.png,0,"[11.733433509789464, 11.733433509789462]",11.733433509789464,11.733433509789462,images/picture_2.png,1,"[-11.733433509789462, 11.733433509789464]",-11.733433509789462,11.733433509789464,images/picture_3.png,2,"[-11.733433509789466, -11.733433509789462]",-11.733433509789464,-11.733433509789462,0,1,1,0.71521601073616,1.71521601073616,1.28478398926384,3,1,1.46521601073616,0,2,0,2,0,0,0,0,3,,,,,,,,,,,,,,,,,,,,,200002,202,2023-03-21_15h31.16.864,DMS_BEST_eyetracking_DAN_base_12-36_looped_10minWORKING,2022.2.4,None,
21,PRED,12,0.71521601073616,2,images/picture_3.png,images/picture_1.png,0,"[11.733433509789464, 11.733433509789462]",11.733433509789464,11.733433509789462,images/picture_2.png,1,"[-11.733433509789462, 11.733433509789464]",-11.733433509789462,11.733433509789464,images/picture_3.png,2,"[-11.733433509789466, -11.733433509789462]",-11.733433509789464,-11.733433509789462,0,1,1,0.71521601073616,1.71521601073616,1.28478398926384,3,1,1.46521601073616,0,2,0,2,0,0,0,0,3,,,,,,,0.0023932079784572124,350.1206541249994,350.1206541249994,351.12936254101805,351.329557791003,351.329557791003,351.329557791003,351.5959852079395,352.617061582976,352.62959345802665,352.62959345802665,352.62959345802665,353.6291914579924,4.5107222920050845,200002,202,2023-03-21_15h31.16.864,DMS_BEST_eyetracking_DAN_base_12-36_looped_10minWORKING,2022.2.4,None,
25,PRED,12,0.7683988844575655,2,images/picture_3.png,images/picture_1.png,0,"[-11.733433509789466, -11.733433509789462]",-11.733433509789464,-11.733433509789462,images/picture_2.png,1,"[11.733433509789462, -11.733433509789466]",11.733433509789462,-11.733433509789464,images/picture_3.png,2,"[-11.733433509789462, 11.733433509789464]",-11.733433509789462,11.733433509789464,0,1,1,0.7683988844575655,1.7683988844575655,1.2316011155424345,3,1,1.5183988844575655,0,2,0,2,0,0,1,1,7,,,,,,,,,,,,,,,,,,,,,200002,202,2023-03-21_15h31.16.864,DMS_BEST_eyetracking_DAN_base_12-36_looped_10minWORKING,2022.2.4,None,
25,PRED,12,0.7683988844575655,2,images/picture_3.png,images/picture_1.png,0,"[-11.733433509789466, -11.733433509789462]",-11.733433509789464,-11.733433509789462,images/picture_2.png,1,"[11.733433509789462, -11.733433509789466]",11.733433509789462,-11.733433509789464,images/picture_3.png,2,"[-11.733433509789462, 11.733433509789464]",-11.733433509789462,11.733433509789464,0,1,1,0.7683988844575655,1.7683988844575655,1.2316011155424345,3,1,1.5183988844575655,0,2,0,2,0,0,1,1,7,,,,,,,0.00460458395536989,355.14267524995375,355.14267524995375,356.14821999997366,356.3958756249631,356.3958756249631,356.3958756249631,356.6629522909643,357.629573083017,357.629573083017,357.629573083017,357.629573083017,358.62908145796973,4.506167041952722,200002,202,2023-03-21_15h31.16.864,DMS_BEST_eyetracking_DAN_base_12-36_looped_10minWORKING,2022.2.4,None,
24,PRED,12,0.5441977016641952,2,images/picture_3.png,images/picture_1.png,0,"[-11.733433509789466, -11.733433509789462]",-11.733433509789464,-11.733433509789462,images/picture_2.png,1,"[11.733433509789462, -11.733433509789466]",11.733433509789462,-11.733433509789464,images/picture_3.png,2,"[11.733433509789464, 11.733433509789462]",11.733433509789464,11.733433509789462,0,1,1,0.5441977016641952,1.5441977016641952,1.4558022983358048,3,1,1.2941977016641952,0,2,0,2,0,0,2,2,6,,,,,,,,,,,,,,,,,,,,,200002,202,2023-03-21_15h31.16.864,DMS_BEST_eyetracking_DAN_base_12-36_looped_10minWORKING,2022.2.4,None,
24,PRED,12,0.5441977016641952,2,images/picture_3.png,images/picture_1.png,0,"[-11.733433509789466, -11.733433509789462]",-11.733433509789464,-11.733433509789462,images/picture_2.png,1,"[11.733433509789462, -11.733433509789466]",11.733433509789462,-11.733433509789464,images/picture_3.png,2,"[11.733433509789464, 11.733433509789462]",11.733433509789464,11.733433509789462,0,1,1,0.5441977016641952,1.5441977016641952,1.4558022983358048,3,1,1.2941977016641952,0,2,0,2,0,0,2,2,6,,,,,,,0.003580917022190988,360.16312754096,360.16312754096,361.16282829095144,361.1961480829632,361.1961480829632,361.1961480829632,361.4627077499172,362.6491176249692,362.6628487500129,362.6628487500129,362.6628487500129,363.66271441592835,4.506772833992727,200002,202,2023-03-21_15h31.16.864,DMS_BEST_eyetracking_DAN_base_12-36_looped_10minWORKING,2022.2.4,None,
19,PRED,12,0.7013760783315086,2,images/picture_3.png,images/picture_1.png,0,"[11.733433509789464, 11.733433509789462]",11.733433509789464,11.733433509789462,images/picture_2.png,1,"[-11.733433509789462, 11.733433509789464]",-11.733433509789462,11.733433509789464,images/picture_3.png,2,"[11.733433509789462, -11.733433509789466]",11.733433509789462,-11.733433509789464,0,1,1,0.7013760783315086,1.7013760783315086,1.2986239216684914,3,1,1.4513760783315086,0,2,0,2,0,0,3,3,1,,,,,,,,,,,,,,,,,,,,,200002,202,2023-03-21_15h31.16.864,DMS_BEST_eyetracking_DAN_base_12-36_looped_10minWORKING,2022.2.4,None,
19,PRED,12,0.7013760783315086,2,images/picture_3.png,images/picture_1.png,0,"[11.733433509789464, 11.733433509789462]",11.733433509789464,11.733433509789462,images/picture_2.png,1,"[-11.733433509789462, 11.733433509789464]",-11.733433509789462,11.733433509789464,images/picture_3.png,2,"[11.733433509789462, -11.733433509789466]",11.733433509789462,-11.733433509789464,0,1,1,0.7013760783315086,1.7013760783315086,1.2986239216684914,3,1,1.4513760783315086,0,2,0,2,0,0,3,3,1,,,,,,,0.0046255000634118915,365.17228770791553,365.17228770791553,366.18159187491983,366.3626395409228,366.3626395409228,366.3626395409228,366.62939883291256,367.6628315829439,367.6628315829439,367.6628315829439,367.6628315829439,368.66293858294375,4.50648691598326,200002,202,2023-03-21_15h31.16.864,DMS_BEST_eyetracking_DAN_base_12-36_looped_10minWORKING,2022.2.4,None,
18,PRED,12,1.0461474842191938,2,images/picture_3.png,images/picture_1.png,0,"[11.733433509789464, 11.733433509789462]",11.733433509789464,11.733433509789462,images/picture_2.png,1,"[-11.733433509789462, 11.733433509789464]",-11.733433509789462,11.733433509789464,images/picture_3.png,2,"[11.733433509789462, -11.733433509789466]",11.733433509789462,-11.733433509789464,0,1,1,1.0461474842191938,2.046147484219194,0.9538525157808062,3,1,1.796147484219194,0,2,0,2,0,0,4,4,0,,,,,,,,,,,,,,,,,,,,,200002,202,2023-03-21_15h31.16.864,DMS_BEST_eyetracking_DAN_base_12-36_looped_10minWORKING,2022.2.4,None,
18,PRED,12,1.0461474842191938,2,images/picture_3.png,images/picture_1.png,0,"[11.733433509789464, 11.733433509789462]",11.733433509789464,11.733433509789462,images/picture_2.png,1,"[-11.733433509789462, 11.733433509789464]",-11.733433509789462,11.733433509789464,images/picture_3.png,2,"[11.733433509789462, -11.733433509789466]",11.733433509789462,-11.733433509789464,0,1,1,1.0461474842191938,2.046147484219194,0.9538525157808062,3,1,1.796147484219194,0,2,0,2,0,0,4,4,0,,,,,,,0.00474366603884846,370.19164412491955,370.19164412491955,371.19625754095614,371.72958949999884,371.72958949999884,371.72958949999884,371.9962966250023,372.6826198329218,372.696067041019,372.696067041019,372.696067041019,373.6963091659127,4.511802333057858,200002,202,2023-03-21_15h31.16.864,DMS_BEST_eyetracking_DAN_base_12-36_looped_10minWORKING,2022.2.4,None,
22,PRED,12,1.0951361253677585,2,images/picture_3.png,images/picture_1.png,0,"[-11.733433509789462, 11.733433509789464]",-11.733433509789462,11.733433509789464,images/picture_2.png,1,"[-11.733433509789466, -11.733433509789462]",-11.733433509789464,-11.733433509789462,images/picture_3.png,2,"[11.733433509789462, -11.733433509789466]",11.733433509789462,-11.733433509789464,0,1,1,1.0951361253677585,2.0951361253677585,0.9048638746322416,3,1,1.8451361253677585,0,2,0,2,0,0,5,5,4,,,,,,,,,,,,,,,,,,,,,200002,202,2023-03-21_15h31.16.864,DMS_BEST_eyetracking_DAN_base_12-36_looped_10minWORKING,2022.2.4,None,
22,PRED,12,1.0951361253677585,2,images/picture_3.png,images/picture_1.png,0,"[-11.733433509789462, 11.733433509789464]",-11.733433509789462,11.733433509789464,images/picture_2.png,1,"[-11.733433509789466, -11.733433509789462]",-11.733433509789464,-11.733433509789462,images/picture_3.png,2,"[11.733433509789462, -11.733433509789466]",11.733433509789462,-11.733433509789464,0,1,1,1.0951361253677585,2.0951361253677585,0.9048638746322416,3,1,1.8451361253677585,0,2,0,2,0,0,5,5,4,,,,,,,0.003228166955523193,375.21334616595414,375.21334616595414,376.2149838330224,376.7960050830152,376.7960050830152,376.7960050830152,377.0628062499454,377.6963874999201,377.7157250409946,377.7157250409946,377.7157250409946,378.6962338750018,4.503152582910843,200002,202,2023-03-21_15h31.16.864,DMS_BEST_eyetracking_DAN_base_12-36_looped_10minWORKING,2022.2.4,None,
20,PRED,12,0.8723476094354432,2,images/picture_3.png,images/picture_1.png,0,"[11.733433509789462, -11.733433509789466]",11.733433509789462,-11.733433509789464,images/picture_2.png,1,"[11.733433509789464, 11.733433509789462]",11.733433509789464,11.733433509789462,images/picture_3.png,2,"[-11.733433509789466, -11.733433509789462]",-11.733433509789464,-11.733433509789462,0,1,1,0.8723476094354432,1.8723476094354432,1.1276523905645568,3,1,1.6223476094354432,0,2,0,2,0,0,6,6,2,,,,,,,,,,,,,,,,,,,,,200002,202,2023-03-21_15h31.16.864,DMS_BEST_eyetracking_DAN_base_12-36_looped_10minWORKING,2022.2.4,None,
20,PRED,12,0.8723476094354432,2,images/picture_3.png,images/picture_1.png,0,"[11.733433509789462, -11.733433509789466]",11.733433509789462,-11.733433509789464,images/picture_2.png,1,"[11.733433509789464, 11.733433509789462]",11.733433509789464,11.733433509789462,images/picture_3.png,2,"[-11.733433509789466, -11.733433509789462]",-11.733433509789464,-11.733433509789462,0,1,1,0.8723476094354432,1.8723476094354432,1.1276523905645568,3,1,1.6223476094354432,0,2,0,2,0,0,6,6,2,,,,,,,0.005102708004415035,380.22129916597623,380.22129916597623,381.2296402499778,381.5829717499437,381.5829717499437,381.5829717499437,381.8489506249316,382.7154643749818,382.7154643749818,382.7154643749818,382.7154643749818,383.72951366601046,4.512028708006255,200002,202,2023-03-21_15h31.16.864,DMS_BEST_eyetracking_DAN_base_12-36_looped_10minWORKING,2022.2.4,None,
26,PRED,12,0.8854667635657175,2,images/picture_3.png,images/picture_1.png,0,"[-11.733433509789462, 11.733433509789464]",-11.733433509789462,11.733433509789464,images/picture_2.png,1,"[-11.733433509789466, -11.733433509789462]",-11.733433509789464,-11.733433509789462,images/picture_3.png,2,"[11.733433509789462, -11.733433509789466]",11.733433509789462,-11.733433509789464,0,1,1,0.8854667635657175,1.8854667635657172,1.1145332364342826,3,1,1.6354667635657174,0,2,0,2,0,0,7,7,8,,,,,,,,,,,,,,,,,,,,,200002,202,2023-03-21_15h31.16.864,DMS_BEST_eyetracking_DAN_base_12-36_looped_10minWORKING,2022.2.4,None,
26,PRED,12,0.8854667635657175,2,images/picture_3.png,images/picture_1.png,0,"[-11.733433509789462, 11.733433509789464]",-11.733433509789462,11.733433509789464,images/picture_2.png,1,"[-11.733433509789466, -11.733433509789462]",-11.733433509789464,-11.733433509789462,images/picture_3.png,2,"[11.733433509789462, -11.733433509789466]",11.733433509789462,-11.733433509789464,0,1,1,0.8854667635657175,1.8854667635657172,1.1145332364342826,3,1,1.6354667635657174,0,2,0,2,0,0,7,7,8,,,,,,,0.004477833048440516,385.2444872499909,385.2444872499909,386.2483673329698,386.6148412079783,386.6148412079783,386.6148412079783,386.88121699995827,387.7295405829791,387.7295405829791,387.7295405829791,387.7295405829791,388.7295521659544,4.506730291992426,200002,202,2023-03-21_15h31.16.864,DMS_BEST_eyetracking_DAN_base_12-36_looped_10minWORKING,2022.2.4,None,
23,PRED,12,0.7809117270258805,2,images/picture_3.png,images/picture_1.png,0,"[-11.733433509789462, 11.733433509789464]",-11.733433509789462,11.733433509789464,images/picture_2.png,1,"[-11.733433509789466, -11.733433509789462]",-11.733433509789464,-11.733433509789462,images/picture_3.png,2,"[11.733433509789462, -11.733433509789466]",11.733433509789462,-11.733433509789464,0,1,1,0.7809117270258805,1.7809117270258803,1.2190882729741197,3,1,1.5309117270258803,0,2,0,2,0,0,8,8,5,,,,,,,,,,,,,,,,,,,,,200002,202,2023-03-21_15h31.16.864,DMS_BEST_eyetracking_DAN_base_12-36_looped_10minWORKING,2022.2.4,None,
23,PRED,12,0.7809117270258805,2,images/picture_3.png,images/picture_1.png,0,"[-11.733433509789462, 11.733433509789464]",-11.733433509789462,11.733433509789464,images/picture_2.png,1,"[-11.733433509789466, -11.733433509789462]",-11.733433509789464,-11.733433509789462,images/picture_3.png,2,"[11.733433509789462, -11.733433509789466]",11.733433509789462,-11.733433509789464,0,1,1,0.7809117270258805,1.7809117270258803,1.2190882729741197,3,1,1.5309117270258803,0,2,0,2,0,0,8,8,5,,,,,,,0.0033950411016121507,390.25848720793147,390.25848720793147,391.2628559159348,391.52964408299886,391.52964408299886,391.52964408299886,391.79639291600324,392.74922416592017,392.7628302499652,392.7628302499652,392.7628302499652,393.7629192909226,4.505356208072044,200002,202,2023-03-21_15h31.16.864,DMS_BEST_eyetracking_DAN_base_12-36_looped_10minWORKING,2022.2.4,None,
,,,,,,,,,,,,,,,,,,,,,,,,,,,,,,,2,0,2,0,,,,,,,,,394.82338674995117,407.33670795802027,,,,,,,,,,,,,,,200002,202,2023-03-21_15h31.16.864,DMS_BEST_eyetracking_DAN_base_12-36_looped_10minWORKING,2022.2.4,None,
30,UNPRED,12,0.9040539035451678,0,images/picture_1.png,images/picture_1.png,0,"[11.733433509789464, 11.733433509789462]",11.733433509789464,11.733433509789462,images/picture_2.png,1,"[11.733433509789462, -11.733433509789466]",11.733433509789462,-11.733433509789464,images/picture_3.png,2,"[-11.733433509789466, -11.733433509789462]",-11.733433509789464,-11.733433509789462,0,1,1,0.9040539035451678,1.904053903545168,1.0959460964548322,3,1,1.6540539035451678,0,3,0,3,0,0,0,0,3,,,,,,,,,,,,,,,,,,,,,200002,202,2023-03-21_15h31.16.864,DMS_BEST_eyetracking_DAN_base_12-36_looped_10minWORKING,2022.2.4,None,
30,UNPRED,12,0.9040539035451678,0,images/picture_1.png,images/picture_1.png,0,"[11.733433509789464, 11.733433509789462]",11.733433509789464,11.733433509789462,images/picture_2.png,1,"[11.733433509789462, -11.733433509789466]",11.733433509789462,-11.733433509789464,images/picture_3.png,2,"[-11.733433509789466, -11.733433509789462]",-11.733433509789464,-11.733433509789462,0,1,1,0.9040539035451678,1.904053903545168,1.0959460964548322,3,1,1.6540539035451678,0,3,0,3,0,0,0,0,3,,,,,,,0.002223874907940626,407.33670795802027,407.33670795802027,408.3489614579594,408.7295979160117,408.7295979160117,408.7295979160117,408.9963188749971,409.8295864579268,409.8295864579268,409.8295864579268,409.8295864579268,410.829644082929,4.505165874958038,200002,202,2023-03-21_15h31.16.864,DMS_BEST_eyetracking_DAN_base_12-36_looped_10minWORKING,2022.2.4,None,
32,UNPRED,12,0.8969810799569596,0,images/picture_1.png,images/picture_1.png,0,"[11.733433509789462, -11.733433509789466]",11.733433509789462,-11.733433509789464,images/picture_2.png,1,"[-11.733433509789462, 11.733433509789464]",-11.733433509789462,11.733433509789464,images/picture_3.png,2,"[-11.733433509789466, -11.733433509789462]",-11.733433509789464,-11.733433509789462,0,1,1,0.8969810799569596,1.8969810799569595,1.1030189200430405,3,1,1.6469810799569595,0,3,0,3,0,0,1,1,5,,,,,,,,,,,,,,,,,,,,,200002,202,2023-03-21_15h31.16.864,DMS_BEST_eyetracking_DAN_base_12-36_looped_10minWORKING,2022.2.4,None,
32,UNPRED,12,0.8969810799569596,0,images/picture_1.png,images/picture_1.png,0,"[11.733433509789462, -11.733433509789466]",11.733433509789462,-11.733433509789464,images/picture_2.png,1,"[-11.733433509789462, 11.733433509789464]",-11.733433509789462,11.733433509789464,images/picture_3.png,2,"[-11.733433509789466, -11.733433509789462]",-11.733433509789464,-11.733433509789462,0,1,1,0.8969810799569596,1.8969810799569595,1.1030189200430405,3,1,1.6469810799569595,0,3,0,3,0,0,1,1,5,,,,,,,0.004673207993619144,412.3598831249401,412.3598831249401,413.363150625024,413.7487127080094,413.7487127080094,413.7487127080094,414.01569091598503,414.8492967080092,414.8629671660019,414.8629671660019,414.8629671660019,415.8631611249875,4.5126443329500034,200002,202,2023-03-21_15h31.16.864,DMS_BEST_eyetracking_DAN_base_12-36_looped_10minWORKING,2022.2.4,None,
27,UNPRED,12,0.6261326944478051,2,images/picture_3.png,images/picture_1.png,0,"[11.733433509789464, 11.733433509789462]",11.733433509789464,11.733433509789462,images/picture_2.png,1,"[11.733433509789462, -11.733433509789466]",11.733433509789462,-11.733433509789464,images/picture_3.png,2,"[-11.733433509789462, 11.733433509789464]",-11.733433509789462,11.733433509789464,0,1,1,0.6261326944478051,1.6261326944478052,1.3738673055521948,3,1,1.3761326944478052,0,3,0,3,0,0,2,2,0,,,,,,,,,,,,,,,,,,,,,200002,202,2023-03-21_15h31.16.864,DMS_BEST_eyetracking_DAN_base_12-36_looped_10minWORKING,2022.2.4,None,
27,UNPRED,12,0.6261326944478051,2,images/picture_3.png,images/picture_1.png,0,"[11.733433509789464, 11.733433509789462]",11.733433509789464,11.733433509789462,images/picture_2.png,1,"[11.733433509789462, -11.733433509789466]",11.733433509789462,-11.733433509789464,images/picture_3.png,2,"[-11.733433509789462, 11.733433509789464]",-11.733433509789462,11.733433509789464,0,1,1,0.6261326944478051,1.6261326944478052,1.3738673055521948,3,1,1.3761326944478052,0,3,0,3,0,0,2,2,0,,,,,,,0.0028707090532407165,417.37738299998455,417.37738299998455,418.3821484160144,418.4963532909751,418.4963532909751,418.4963532909751,418.762991082971,419.8632022079546,419.8826838330133,419.8826838330133,419.8826838330133,420.86302191601135,4.5033527499763295,200002,202,2023-03-21_15h31.16.864,DMS_BEST_eyetracking_DAN_base_12-36_looped_10minWORKING,2022.2.4,None,
33,UNPRED,12,0.6326445735124042,2,images/picture_3.png,images/picture_1.png,0,"[11.733433509789464, 11.733433509789462]",11.733433509789464,11.733433509789462,images/picture_2.png,1,"[-11.733433509789466, -11.733433509789462]",-11.733433509789464,-11.733433509789462,images/picture_3.png,2,"[-11.733433509789462, 11.733433509789464]",-11.733433509789462,11.733433509789464,0,1,1,0.6326445735124042,1.6326445735124042,1.3673554264875958,3,1,1.3826445735124042,0,3,0,3,0,0,3,3,6,,,,,,,,,,,,,,,,,,,,,200002,202,2023-03-21_15h31.16.864,DMS_BEST_eyetracking_DAN_base_12-36_looped_10minWORKING,2022.2.4,None,
33,UNPRED,12,0.6326445735124042,2,images/picture_3.png,images/picture_1.png,0,"[11.733433509789464, 11.733433509789462]",11.733433509789464,11.733433509789462,images/picture_2.png,1,"[-11.733433509789466, -11.733433509789462]",-11.733433509789464,-11.733433509789462,images/picture_3.png,2,"[-11.733433509789462, 11.733433509789464]",-11.733433509789462,11.733433509789464,0,1,1,0.6326445735124042,1.6326445735124042,1.3673554264875958,3,1,1.3826445735124042,0,3,0,3,0,0,3,3,6,,,,,,,0.004178375005722046,422.3860021249857,422.3860021249857,423.39636529097334,423.5159234579187,423.5159234579187,423.5159234579187,423.7832165409345,424.882744750008,424.8963714999845,424.8963714999845,424.8963714999845,425.89640587498434,4.511538874940015,200002,202,2023-03-21_15h31.16.864,DMS_BEST_eyetracking_DAN_base_12-36_looped_10minWORKING,2022.2.4,None,
35,UNPRED,12,0.6984341332383703,2,images/picture_3.png,images/picture_1.png,0,"[-11.733433509789462, 11.733433509789464]",-11.733433509789462,11.733433509789464,images/picture_2.png,1,"[11.733433509789464, 11.733433509789462]",11.733433509789464,11.733433509789462,images/picture_3.png,2,"[-11.733433509789466, -11.733433509789462]",-11.733433509789464,-11.733433509789462,0,1,1,0.6984341332383703,1.6984341332383703,1.3015658667616297,3,1,1.4484341332383703,0,3,0,3,0,0,4,4,8,,,,,,,,,,,,,,,,,,,,,200002,202,2023-03-21_15h31.16.864,DMS_BEST_eyetracking_DAN_base_12-36_looped_10minWORKING,2022.2.4,None,
35,UNPRED,12,0.6984341332383703,2,images/picture_3.png,images/picture_1.png,0,"[-11.733433509789462, 11.733433509789464]",-11.733433509789462,11.733433509789464,images/picture_2.png,1,"[11.733433509789464, 11.733433509789462]",11.733433509789464,11.733433509789462,images/picture_3.png,2,"[-11.733433509789466, -11.733433509789462]",-11.733433509789464,-11.733433509789462,0,1,1,0.6984341332383703,1.6984341332383703,1.3015658667616297,3,1,1.4484341332383703,0,3,0,3,0,0,4,4,8,,,,,,,0.005078874994069338,427.4081540409243,427.4081540409243,428.4159667909844,428.59652316593565,428.59652316593565,428.59652316593565,428.8629134160001,429.89634983299766,429.89634983299766,429.89634983299766,429.89634983299766,430.89634812495206,4.507972541032359,200002,202,2023-03-21_15h31.16.864,DMS_BEST_eyetracking_DAN_base_12-36_looped_10minWORKING,2022.2.4,None,
29,UNPRED,12,0.7392154021118281,1,images/picture_2.png,images/picture_1.png,0,"[-11.733433509789466, -11.733433509789462]",-11.733433509789464,-11.733433509789462,images/picture_2.png,1,"[11.733433509789464, 11.733433509789462]",11.733433509789464,11.733433509789462,images/picture_3.png,2,"[11.733433509789462, -11.733433509789466]",11.733433509789462,-11.733433509789464,0,1,1,0.7392154021118281,1.739215402111828,1.2607845978881722,3,1,1.489215402111828,0,3,0,3,0,0,5,5,2,,,,,,,,,,,,,,,,,,,,,200002,202,2023-03-21_15h31.16.864,DMS_BEST_eyetracking_DAN_base_12-36_looped_10minWORKING,2022.2.4,None,
29,UNPRED,12,0.7392154021118281,1,images/picture_2.png,images/picture_1.png,0,"[-11.733433509789466, -11.733433509789462]",-11.733433509789464,-11.733433509789462,images/picture_2.png,1,"[11.733433509789464, 11.733433509789462]",11.733433509789464,11.733433509789462,images/picture_3.png,2,"[11.733433509789462, -11.733433509789466]",11.733433509789462,-11.733433509789464,0,1,1,0.7392154021118281,1.739215402111828,1.2607845978881722,3,1,1.489215402111828,0,3,0,3,0,0,5,5,2,,,,,,,0.006205499987117946,432.432162040961,432.432162040961,433.4298287909478,433.6630214159377,433.6630214159377,433.6630214159377,433.92947754100896,434.91580412501935,434.929645499913,434.929645499913,434.929645499913,435.9297948749736,4.507321708952077,200002,202,2023-03-21_15h31.16.864,DMS_BEST_eyetracking_DAN_base_12-36_looped_10minWORKING,2022.2.4,None,
34,UNPRED,12,0.6491818624252973,2,images/picture_3.png,images/picture_1.png,0,"[11.733433509789462, -11.733433509789466]",11.733433509789462,-11.733433509789464,images/picture_2.png,1,"[11.733433509789464, 11.733433509789462]",11.733433509789464,11.733433509789462,images/picture_3.png,2,"[-11.733433509789466, -11.733433509789462]",-11.733433509789464,-11.733433509789462,0,1,1,0.6491818624252973,1.6491818624252974,1.3508181375747026,3,1,1.3991818624252974,0,3,0,3,0,0,6,6,7,,,,,,,,,,,,,,,,,,,,,200002,202,2023-03-21_15h31.16.864,DMS_BEST_eyetracking_DAN_base_12-36_looped_10minWORKING,2022.2.4,None,
34,UNPRED,12,0.6491818624252973,2,images/picture_3.png,images/picture_1.png,0,"[11.733433509789462, -11.733433509789466]",11.733433509789462,-11.733433509789464,images/picture_2.png,1,"[11.733433509789464, 11.733433509789462]",11.733433509789464,11.733433509789462,images/picture_3.png,2,"[-11.733433509789466, -11.733433509789462]",-11.733433509789464,-11.733433509789462,0,1,1,0.6491818624252973,1.6491818624252974,1.3508181375747026,3,1,1.3991818624252974,0,3,0,3,0,0,6,6,7,,,,,,,0.0045417919754981995,437.43935050000437,437.43935050000437,438.4486872080015,438.5820250000106,438.5820250000106,438.5820250000106,438.84912704094313,439.92962429102045,439.92962429102045,439.92962429102045,439.92962429102045,440.92959333292674,4.505967083037831,200002,202,2023-03-21_15h31.16.864,DMS_BEST_eyetracking_DAN_base_12-36_looped_10minWORKING,2022.2.4,None,
31,UNPRED,12,0.7483719601752872,1,images/picture_2.png,images/picture_1.png,0,"[11.733433509789462, -11.733433509789466]",11.733433509789462,-11.733433509789464,images/picture_2.png,1,"[-11.733433509789466, -11.733433509789462]",-11.733433509789464,-11.733433509789462,images/picture_3.png,2,"[-11.733433509789462, 11.733433509789464]",-11.733433509789462,11.733433509789464,0,1,1,0.7483719601752872,1.7483719601752872,1.2516280398247128,3,1,1.4983719601752872,0,3,0,3,0,0,7,7,4,,,,,,,,,,,,,,,,,,,,,200002,202,2023-03-21_15h31.16.864,DMS_BEST_eyetracking_DAN_base_12-36_looped_10minWORKING,2022.2.4,None,
31,UNPRED,12,0.7483719601752872,1,images/picture_2.png,images/picture_1.png,0,"[11.733433509789462, -11.733433509789466]",11.733433509789462,-11.733433509789464,images/picture_2.png,1,"[-11.733433509789466, -11.733433509789462]",-11.733433509789464,-11.733433509789462,images/picture_3.png,2,"[-11.733433509789462, 11.733433509789464]",-11.733433509789462,11.733433509789464,0,1,1,0.7483719601752872,1.7483719601752872,1.2516280398247128,3,1,1.4983719601752872,0,3,0,3,0,0,7,7,4,,,,,,,0.00780279200989753,442.46383933292236,442.46383933292236,443.4630988750141,443.69653929094784,443.69653929094784,443.69653929094784,443.9630686659366,444.949235457927,444.96313645795453,444.96313645795453,444.96313645795453,445.96305983292405,4.511847999994643,200002,202,2023-03-21_15h31.16.864,DMS_BEST_eyetracking_DAN_base_12-36_looped_10minWORKING,2022.2.4,None,
28,UNPRED,12,0.5663634384161214,0,images/picture_1.png,images/picture_1.png,0,"[-11.733433509789462, 11.733433509789464]",-11.733433509789462,11.733433509789464,images/picture_2.png,1,"[11.733433509789462, -11.733433509789466]",11.733433509789462,-11.733433509789464,images/picture_3.png,2,"[11.733433509789464, 11.733433509789462]",11.733433509789464,11.733433509789462,0,1,1,0.5663634384161214,1.5663634384161214,1.4336365615838786,3,1,1.3163634384161214,0,3,0,3,0,0,8,8,1,,,,,,,,,,,,,,,,,,,,,200002,202,2023-03-21_15h31.16.864,DMS_BEST_eyetracking_DAN_base_12-36_looped_10minWORKING,2022.2.4,None,
28,UNPRED,12,0.5663634384161214,0,images/picture_1.png,images/picture_1.png,0,"[-11.733433509789462, 11.733433509789464]",-11.733433509789462,11.733433509789464,images/picture_2.png,1,"[11.733433509789462, -11.733433509789466]",11.733433509789462,-11.733433509789464,images/picture_3.png,2,"[11.733433509789464, 11.733433509789462]",11.733433509789464,11.733433509789462,0,1,1,0.5663634384161214,1.5663634384161214,1.4336365615838786,3,1,1.3163634384161214,0,3,0,3,0,0,8,8,1,,,,,,,0.006410332978703082,447.4849439159734,447.4849439159734,448.4962268329691,448.5294144579675,448.5294144579675,448.5294144579675,448.815473790979,449.9630834580166,449.9630834580166,449.9630834580166,449.9630834580166,450.9631124580046,4.520766417030245,200002,202,2023-03-21_15h31.16.864,DMS_BEST_eyetracking_DAN_base_12-36_looped_10minWORKING,2022.2.4,None,
,,,,,,,,,,,,,,,,,,,,,,,,,,,,,,,3,0,3,0,,,,,,,,,452.0701582499314,464.60727691592183,,,,,,,,,,,,,,,200002,202,2023-03-21_15h31.16.864,DMS_BEST_eyetracking_DAN_base_12-36_looped_10minWORKING,2022.2.4,None,
44,PRED,12,0.9021610626562494,0,images/picture_1.png,images/picture_1.png,0,"[11.733433509789462, -11.733433509789466]",11.733433509789462,-11.733433509789464,images/picture_2.png,1,"[-11.733433509789466, -11.733433509789462]",-11.733433509789464,-11.733433509789462,images/picture_3.png,2,"[-11.733433509789462, 11.733433509789464]",-11.733433509789462,11.733433509789464,0,1,1,0.9021610626562494,1.9021610626562493,1.0978389373437505,3,1,1.6521610626562495,0,4,0,4,0,0,0,0,8,,,,,,,,,,,,,,,,,,,,,200002,202,2023-03-21_15h31.16.864,DMS_BEST_eyetracking_DAN_base_12-36_looped_10minWORKING,2022.2.4,None,
44,PRED,12,0.9021610626562494,0,images/picture_1.png,images/picture_1.png,0,"[11.733433509789462, -11.733433509789466]",11.733433509789462,-11.733433509789464,images/picture_2.png,1,"[-11.733433509789466, -11.733433509789462]",-11.733433509789464,-11.733433509789462,images/picture_3.png,2,"[-11.733433509789462, 11.733433509789464]",-11.733433509789462,11.733433509789464,0,1,1,0.9021610626562494,1.9021610626562493,1.0978389373437505,3,1,1.6521610626562495,0,4,0,4,0,0,0,0,8,,,,,,,0.0032101250253617764,464.60727691592183,464.60727691592183,465.61574866599403,465.99638095800765,465.99638095800765,465.99638095800765,466.2630346249789,467.0962945409119,467.0962945409119,467.0962945409119,467.0962945409119,468.0961906249868,4.508334542042576,200002,202,2023-03-21_15h31.16.864,DMS_BEST_eyetracking_DAN_base_12-36_looped_10minWORKING,2022.2.4,None,
38,PRED,12,0.5087227420101182,0,images/picture_1.png,images/picture_1.png,0,"[11.733433509789464, 11.733433509789462]",11.733433509789464,11.733433509789462,images/picture_2.png,1,"[-11.733433509789466, -11.733433509789462]",-11.733433509789464,-11.733433509789462,images/picture_3.png,2,"[-11.733433509789462, 11.733433509789464]",-11.733433509789462,11.733433509789464,0,1,1,0.5087227420101182,1.5087227420101184,1.4912772579898816,3,1,1.2587227420101184,0,4,0,4,0,0,1,1,2,,,,,,,,,,,,,,,,,,,,,200002,202,2023-03-21_15h31.16.864,DMS_BEST_eyetracking_DAN_base_12-36_looped_10minWORKING,2022.2.4,None,
38,PRED,12,0.5087227420101182,0,images/picture_1.png,images/picture_1.png,0,"[11.733433509789464, 11.733433509789462]",11.733433509789464,11.733433509789462,images/picture_2.png,1,"[-11.733433509789466, -11.733433509789462]",-11.733433509789464,-11.733433509789462,images/picture_3.png,2,"[-11.733433509789462, 11.733433509789464]",-11.733433509789462,11.733433509789464,0,1,1,0.5087227420101182,1.5087227420101184,1.4912772579898816,3,1,1.2587227420101184,0,4,0,4,0,0,1,1,2,,,,,,,0.0013900409685447812,469.62746866594534,469.62746866594534,470.629764790996,470.615975374938,470.615975374938,470.615975374938,470.89609929092694,472.116165000014,472.116165000014,472.116165000014,472.116165000014,473.1297505829716,4.5108197500230744,200002,202,2023-03-21_15h31.16.864,DMS_BEST_eyetracking_DAN_base_12-36_looped_10minWORKING,2022.2.4,None,
37,PRED,12,0.5561375731620182,0,images/picture_1.png,images/picture_1.png,0,"[11.733433509789462, -11.733433509789466]",11.733433509789462,-11.733433509789464,images/picture_2.png,1,"[-11.733433509789462, 11.733433509789464]",-11.733433509789462,11.733433509789464,images/picture_3.png,2,"[11.733433509789464, 11.733433509789462]",11.733433509789464,11.733433509789462,0,1,1,0.5561375731620182,1.5561375731620182,1.4438624268379818,3,1,1.3061375731620182,0,4,0,4,0,0,2,2,1,,,,,,,,,,,,,,,,,,,,,200002,202,2023-03-21_15h31.16.864,DMS_BEST_eyetracking_DAN_base_12-36_looped_10minWORKING,2022.2.4,None,
37,PRED,12,0.5561375731620182,0,images/picture_1.png,images/picture_1.png,0,"[11.733433509789462, -11.733433509789466]",11.733433509789462,-11.733433509789464,images/picture_2.png,1,"[-11.733433509789462, 11.733433509789464]",-11.733433509789462,11.733433509789464,images/picture_3.png,2,"[11.733433509789464, 11.733433509789462]",11.733433509789464,11.733433509789462,0,1,1,0.5561375731620182,1.5561375731620182,1.4438624268379818,3,1,1.3061375731620182,0,4,0,4,0,0,2,2,1,,,,,,,0.003941582981497049,474.6434540830087,474.6434540830087,475.6494348329725,475.6825880409451,475.6825880409451,475.6825880409451,475.96308862499427,477.1300014159642,477.1300014159642,477.1300014159642,477.1300014159642,478.12977362493984,4.508426000014879,200002,202,2023-03-21_15h31.16.864,DMS_BEST_eyetracking_DAN_base_12-36_looped_10minWORKING,2022.2.4,None,
43,PRED,12,0.769448486301045,0,images/picture_1.png,images/picture_1.png,0,"[11.733433509789462, -11.733433509789466]",11.733433509789462,-11.733433509789464,images/picture_2.png,1,"[-11.733433509789462, 11.733433509789464]",-11.733433509789462,11.733433509789464,images/picture_3.png,2,"[-11.733433509789466, -11.733433509789462]",-11.733433509789464,-11.733433509789462,0,1,1,0.769448486301045,1.769448486301045,1.230551513698955,3,1,1.519448486301045,0,4,0,4,0,0,3,3,7,,,,,,,,,,,,,,,,,,,,,200002,202,2023-03-21_15h31.16.864,DMS_BEST_eyetracking_DAN_base_12-36_looped_10minWORKING,2022.2.4,None,
43,PRED,12,0.769448486301045,0,images/picture_1.png,images/picture_1.png,0,"[11.733433509789462, -11.733433509789466]",11.733433509789462,-11.733433509789464,images/picture_2.png,1,"[-11.733433509789462, 11.733433509789464]",-11.733433509789462,11.733433509789464,images/picture_3.png,2,"[-11.733433509789466, -11.733433509789462]",-11.733433509789464,-11.733433509789462,0,1,1,0.769448486301045,1.769448486301045,1.230551513698955,3,1,1.519448486301045,0,4,0,4,0,0,3,3,7,,,,,,,0.004061333020217717,479.66270224994514,479.66270224994514,480.66329941595905,480.9162427079864,480.9162427079864,480.9162427079864,481.19658695801627,482.14929133292753,482.14929133292753,482.14929133292753,482.14929133292753,483.16310883301776,4.514944375026971,200002,202,2023-03-21_15h31.16.864,DMS_BEST_eyetracking_DAN_base_12-36_looped_10minWORKING,2022.2.4,None,
42,PRED,12,0.6298969112301847,0,images/picture_1.png,images/picture_1.png,0,"[11.733433509789462, -11.733433509789466]",11.733433509789462,-11.733433509789464,images/picture_2.png,1,"[-11.733433509789462, 11.733433509789464]",-11.733433509789462,11.733433509789464,images/picture_3.png,2,"[-11.733433509789466, -11.733433509789462]",-11.733433509789464,-11.733433509789462,0,1,1,0.6298969112301847,1.6298969112301849,1.3701030887698151,3,1,1.3798969112301849,0,4,0,4,0,0,4,4,6,,,,,,,,,,,,,,,,,,,,,200002,202,2023-03-21_15h31.16.864,DMS_BEST_eyetracking_DAN_base_12-36_looped_10minWORKING,2022.2.4,None,
42,PRED,12,0.6298969112301847,0,images/picture_1.png,images/picture_1.png,0,"[11.733433509789462, -11.733433509789466]",11.733433509789462,-11.733433509789464,images/picture_2.png,1,"[-11.733433509789462, 11.733433509789464]",-11.733433509789462,11.733433509789464,images/picture_3.png,2,"[-11.733433509789466, -11.733433509789462]",-11.733433509789464,-11.733433509789462,0,1,1,0.6298969112301847,1.6298969112301849,1.3701030887698151,3,1,1.3798969112301849,0,4,0,4,0,0,4,4,6,,,,,,,0.0036910410271957517,484.6866080829641,484.6866080829641,485.6964484580094,485.79655012500007,485.79655012500007,485.79655012500007,486.0830320409732,487.16296395799145,487.18295229098294,487.18295229098294,487.18295229098294,488.16308799991384,4.519236999913119,200002,202,2023-03-21_15h31.16.864,DMS_BEST_eyetracking_DAN_base_12-36_looped_10minWORKING,2022.2.4,None,
40,PRED,12,0.7374871891123452,0,images/picture_1.png,images/picture_1.png,0,"[-11.733433509789466, -11.733433509789462]",-11.733433509789464,-11.733433509789462,images/picture_2.png,1,"[11.733433509789464, 11.733433509789462]",11.733433509789464,11.733433509789462,images/picture_3.png,2,"[11.733433509789462, -11.733433509789466]",11.733433509789462,-11.733433509789464,0,1,1,0.7374871891123452,1.7374871891123451,1.2625128108876549,3,1,1.4874871891123451,0,4,0,4,0,0,5,5,4,,,,,,,,,,,,,,,,,,,,,200002,202,2023-03-21_15h31.16.864,DMS_BEST_eyetracking_DAN_base_12-36_looped_10minWORKING,2022.2.4,None,
40,PRED,12,0.7374871891123452,0,images/picture_1.png,images/picture_1.png,0,"[-11.733433509789466, -11.733433509789462]",-11.733433509789464,-11.733433509789462,images/picture_2.png,1,"[11.733433509789464, 11.733433509789462]",11.733433509789464,11.733433509789462,images/picture_3.png,2,"[11.733433509789462, -11.733433509789466]",11.733433509789462,-11.733433509789464,0,1,1,0.7374871891123452,1.7374871891123451,1.2625128108876549,3,1,1.4874871891123451,0,4,0,4,0,0,5,5,4,,,,,,,0.003887415979988873,489.7079807500122,489.7079807500122,490.7164948330028,490.9296573329484,490.9296573329484,490.9296573329484,491.19662125001196,492.19662204093765,492.19662204093765,492.19662204093765,492.19662204093765,493.19639008294325,4.507984458003193,200002,202,2023-03-21_15h31.16.864,DMS_BEST_eyetracking_DAN_base_12-36_looped_10minWORKING,2022.2.4,None,
39,PRED,12,1.1015901947463973,0,images/picture_1.png,images/picture_1.png,0,"[-11.733433509789466, -11.733433509789462]",-11.733433509789464,-11.733433509789462,images/picture_2.png,1,"[11.733433509789462, -11.733433509789466]",11.733433509789462,-11.733433509789464,images/picture_3.png,2,"[11.733433509789464, 11.733433509789462]",11.733433509789464,11.733433509789462,0,1,1,1.1015901947463973,2.101590194746397,0.8984098052536027,3,1,1.8515901947463973,0,4,0,4,0,0,6,6,3,,,,,,,,,,,,,,,,,,,,,200002,202,2023-03-21_15h31.16.864,DMS_BEST_eyetracking_DAN_base_12-36_looped_10minWORKING,2022.2.4,None,
39,PRED,12,1.1015901947463973,0,images/picture_1.png,images/picture_1.png,0,"[-11.733433509789466, -11.733433509789462]",-11.733433509789464,-11.733433509789462,images/picture_2.png,1,"[11.733433509789462, -11.733433509789466]",11.733433509789462,-11.733433509789464,images/picture_3.png,2,"[11.733433509789464, 11.733433509789462]",11.733433509789464,11.733433509789462,0,1,1,1.1015901947463973,2.101590194746397,0.8984098052536027,3,1,1.8515901947463973,0,4,0,4,0,0,6,6,3,,,,,,,0.004825249896384776,494.7292052080156,494.7292052080156,495.7298099999316,496.31589154095855,496.31589154095855,496.31589154095855,496.5965532079572,497.2160506249638,497.2298254580237,497.2298254580237,497.2298254580237,498.2299292079406,4.511760624940507,200002,202,2023-03-21_15h31.16.864,DMS_BEST_eyetracking_DAN_base_12-36_looped_10minWORKING,2022.2.4,None,
41,PRED,12,0.8358377794679184,0,images/picture_1.png,images/picture_1.png,0,"[-11.733433509789466, -11.733433509789462]",-11.733433509789464,-11.733433509789462,images/picture_2.png,1,"[11.733433509789464, 11.733433509789462]",11.733433509789464,11.733433509789462,images/picture_3.png,2,"[-11.733433509789462, 11.733433509789464]",-11.733433509789462,11.733433509789464,0,1,1,0.8358377794679184,1.8358377794679184,1.1641622205320816,3,1,1.5858377794679184,0,4,0,4,0,0,7,7,5,,,,,,,,,,,,,,,,,,,,,200002,202,2023-03-21_15h31.16.864,DMS_BEST_eyetracking_DAN_base_12-36_looped_10minWORKING,2022.2.4,None,
41,PRED,12,0.8358377794679184,0,images/picture_1.png,images/picture_1.png,0,"[-11.733433509789466, -11.733433509789462]",-11.733433509789464,-11.733433509789462,images/picture_2.png,1,"[11.733433509789464, 11.733433509789462]",11.733433509789464,11.733433509789462,images/picture_3.png,2,"[-11.733433509789462, 11.733433509789464]",-11.733433509789462,11.733433509789464,0,1,1,0.8358377794679184,1.8358377794679184,1.1641622205320816,3,1,1.5858377794679184,0,4,0,4,0,0,7,7,5,,,,,,,0.0015252080047503114,499.74622662493493,499.74622662493493,500.7492290829541,501.0632270829519,501.0632270829519,501.0632270829519,501.3298520829994,502.2298186250264,502.2298186250264,502.2298186250264,502.2298186250264,503.22972862492315,4.504676999989897,200002,202,2023-03-21_15h31.16.864,DMS_BEST_eyetracking_DAN_base_12-36_looped_10minWORKING,2022.2.4,None,
36,PRED,12,0.7720460489961853,0,images/picture_1.png,images/picture_1.png,0,"[11.733433509789462, -11.733433509789466]",11.733433509789462,-11.733433509789464,images/picture_2.png,1,"[-11.733433509789462, 11.733433509789464]",-11.733433509789462,11.733433509789464,images/picture_3.png,2,"[11.733433509789464, 11.733433509789462]",11.733433509789464,11.733433509789462,0,1,1,0.7720460489961853,1.7720460489961851,1.2279539510038149,3,1,1.5220460489961851,0,4,0,4,0,0,8,8,0,,,,,,,,,,,,,,,,,,,,,200002,202,2023-03-21_15h31.16.864,DMS_BEST_eyetracking_DAN_base_12-36_looped_10minWORKING,2022.2.4,None,
36,PRED,12,0.7720460489961853,0,images/picture_1.png,images/picture_1.png,0,"[11.733433509789462, -11.733433509789466]",11.733433509789462,-11.733433509789464,images/picture_2.png,1,"[-11.733433509789462, 11.733433509789464]",-11.733433509789462,11.733433509789464,images/picture_3.png,2,"[11.733433509789464, 11.733433509789462]",11.733433509789464,11.733433509789462,0,1,1,0.7720460489961853,1.7720460489961851,1.2279539510038149,3,1,1.5220460489961851,0,4,0,4,0,0,8,8,0,,,,,,,0.004396083997562528,504.75952229101676,504.75952229101676,505.7631299579516,506.0162201659987,506.0162201659987,506.0162201659987,506.29652733297553,507.2489620830165,507.2489620830165,507.2489620830165,507.2489620830165,508.26323520799633,4.511165917036124,200002,202,2023-03-21_15h31.16.864,DMS_BEST_eyetracking_DAN_base_12-36_looped_10minWORKING,2022.2.4,None,
,,,,,,,,,,,,,,,,,,,,,,,,,,,,,,,4,0,4,0,,,,,,,,,509.3128340409603,521.8451176249655,,,,,,,,,,,,,,,200002,202,2023-03-21_15h31.16.864,DMS_BEST_eyetracking_DAN_base_12-36_looped_10minWORKING,2022.2.4,None,
51,UNPRED,12,1.0441678591764854,1,images/picture_2.png,images/picture_1.png,0,"[-11.733433509789462, 11.733433509789464]",-11.733433509789462,11.733433509789464,images/picture_2.png,1,"[11.733433509789462, -11.733433509789466]",11.733433509789462,-11.733433509789464,images/picture_3.png,2,"[11.733433509789464, 11.733433509789462]",11.733433509789464,11.733433509789462,0,1,1,1.0441678591764854,2.0441678591764854,0.9558321408235146,3,1,1.7941678591764854,0,5,0,5,0,0,0,0,6,,,,,,,,,,,,,,,,,,,,,200002,202,2023-03-21_15h31.16.864,DMS_BEST_eyetracking_DAN_base_12-36_looped_10minWORKING,2022.2.4,None,
51,UNPRED,12,1.0441678591764854,1,images/picture_2.png,images/picture_1.png,0,"[-11.733433509789462, 11.733433509789464]",-11.733433509789462,11.733433509789464,images/picture_2.png,1,"[11.733433509789462, -11.733433509789466]",11.733433509789462,-11.733433509789464,images/picture_3.png,2,"[11.733433509789464, 11.733433509789462]",11.733433509789464,11.733433509789462,0,1,1,1.0441678591764854,2.0441678591764854,0.9558321408235146,3,1,1.7941678591764854,0,5,0,5,0,0,0,0,6,,,,,,,0.005135833052918315,521.8451176249655,521.8451176249655,522.8491072079632,523.3629454579204,523.3629454579204,523.3629454579204,523.6495211659931,524.3298730829265,524.3298730829265,524.3298730829265,524.3298730829265,525.3298251249362,4.508700291044079,200002,202,2023-03-21_15h31.16.864,DMS_BEST_eyetracking_DAN_base_12-36_looped_10minWORKING,2022.2.4,None,
45,UNPRED,12,1.03972725062592,2,images/picture_3.png,images/picture_1.png,0,"[-11.733433509789462, 11.733433509789464]",-11.733433509789462,11.733433509789464,images/picture_2.png,1,"[11.733433509789462, -11.733433509789466]",11.733433509789462,-11.733433509789464,images/picture_3.png,2,"[-11.733433509789466, -11.733433509789462]",-11.733433509789464,-11.733433509789462,0,1,1,1.03972725062592,2.03972725062592,0.96027274937408,3,1,1.78972725062592,0,5,0,5,0,0,1,1,0,,,,,,,,,,,,,,,,,,,,,200002,202,2023-03-21_15h31.16.864,DMS_BEST_eyetracking_DAN_base_12-36_looped_10minWORKING,2022.2.4,None,
45,UNPRED,12,1.03972725062592,2,images/picture_3.png,images/picture_1.png,0,"[-11.733433509789462, 11.733433509789464]",-11.733433509789462,11.733433509789464,images/picture_2.png,1,"[11.733433509789462, -11.733433509789466]",11.733433509789462,-11.733433509789464,images/picture_3.png,2,"[-11.733433509789466, -11.733433509789462]",-11.733433509789464,-11.733433509789462,0,1,1,1.03972725062592,2.03972725062592,0.96027274937408,3,1,1.78972725062592,0,5,0,5,0,0,1,1,0,,,,,,,0.00431450002361089,526.8643887499347,526.8643887499347,527.8633194579743,528.3963344580261,528.3963344580261,528.3963344580261,528.6633901249152,529.3492848329479,529.3629508749582,529.3629508749582,529.3629508749582,530.3633427909808,4.507144041010179,200002,202,2023-03-21_15h31.16.864,DMS_BEST_eyetracking_DAN_base_12-36_looped_10minWORKING,2022.2.4,None,
49,UNPRED,12,0.747556635125091,2,images/picture_3.png,images/picture_1.png,0,"[11.733433509789462, -11.733433509789466]",11.733433509789462,-11.733433509789464,images/picture_2.png,1,"[11.733433509789464, 11.733433509789462]",11.733433509789464,11.733433509789462,images/picture_3.png,2,"[-11.733433509789462, 11.733433509789464]",-11.733433509789462,11.733433509789464,0,1,1,0.747556635125091,1.7475566351250909,1.2524433648749091,3,1,1.4975566351250909,0,5,0,5,0,0,2,2,4,,,,,,,,,,,,,,,,,,,,,200002,202,2023-03-21_15h31.16.864,DMS_BEST_eyetracking_DAN_base_12-36_looped_10minWORKING,2022.2.4,None,
49,UNPRED,12,0.747556635125091,2,images/picture_3.png,images/picture_1.png,0,"[11.733433509789462, -11.733433509789466]",11.733433509789462,-11.733433509789464,images/picture_2.png,1,"[11.733433509789464, 11.733433509789462]",11.733433509789464,11.733433509789462,images/picture_3.png,2,"[-11.733433509789462, 11.733433509789464]",-11.733433509789462,11.733433509789464,0,1,1,0.747556635125091,1.7475566351250909,1.2524433648749091,3,1,1.4975566351250909,0,5,0,5,0,0,2,2,4,,,,,,,0.004677334101870656,531.873893290991,531.873893290991,532.8823077079142,533.1161279999651,533.1161279999651,533.1161279999651,533.3828260409646,534.3632884579711,534.3828812909778,534.3828812909778,534.3828812909778,535.3632892079186,4.506563667091541,200002,202,2023-03-21_15h31.16.864,DMS_BEST_eyetracking_DAN_base_12-36_looped_10minWORKING,2022.2.4,None,
46,UNPRED,12,0.6841106733797635,0,images/picture_1.png,images/picture_1.png,0,"[11.733433509789464, 11.733433509789462]",11.733433509789464,11.733433509789462,images/picture_2.png,1,"[-11.733433509789466, -11.733433509789462]",-11.733433509789464,-11.733433509789462,images/picture_3.png,2,"[-11.733433509789462, 11.733433509789464]",-11.733433509789462,11.733433509789464,0,1,1,0.6841106733797635,1.6841106733797635,1.3158893266202365,3,1,1.4341106733797635,0,5,0,5,0,0,3,3,1,,,,,,,,,,,,,,,,,,,,,200002,202,2023-03-21_15h31.16.864,DMS_BEST_eyetracking_DAN_base_12-36_looped_10minWORKING,2022.2.4,None,
46,UNPRED,12,0.6841106733797635,0,images/picture_1.png,images/picture_1.png,0,"[11.733433509789464, 11.733433509789462]",11.733433509789464,11.733433509789462,images/picture_2.png,1,"[-11.733433509789466, -11.733433509789462]",-11.733433509789464,-11.733433509789462,images/picture_3.png,2,"[-11.733433509789462, 11.733433509789464]",-11.733433509789462,11.733433509789464,0,1,1,0.6841106733797635,1.6841106733797635,1.3158893266202365,3,1,1.4341106733797635,0,5,0,5,0,0,3,3,1,,,,,,,0.006176375085487962,536.8956276659155,536.8956276659155,537.8966879579239,538.0632306250045,538.0632306250045,538.0632306250045,538.3297816659324,539.3824777909322,539.3824777909322,539.3824777909322,539.3824777909322,540.3963839999633,4.511360833072104,200002,202,2023-03-21_15h31.16.864,DMS_BEST_eyetracking_DAN_base_12-36_looped_10minWORKING,2022.2.4,None,
50,UNPRED,12,0.8080119745290409,2,images/picture_3.png,images/picture_1.png,0,"[11.733433509789464, 11.733433509789462]",11.733433509789464,11.733433509789462,images/picture_2.png,1,"[11.733433509789462, -11.733433509789466]",11.733433509789462,-11.733433509789464,images/picture_3.png,2,"[-11.733433509789466, -11.733433509789462]",-11.733433509789464,-11.733433509789462,0,1,1,0.8080119745290409,1.808011974529041,1.191988025470959,3,1,1.558011974529041,0,5,0,5,0,0,4,4,5,,,,,,,,,,,,,,,,,,,,,200002,202,2023-03-21_15h31.16.864,DMS_BEST_eyetracking_DAN_base_12-36_looped_10minWORKING,2022.2.4,None,
50,UNPRED,12,0.8080119745290409,2,images/picture_3.png,images/picture_1.png,0,"[11.733433509789464, 11.733433509789462]",11.733433509789464,11.733433509789462,images/picture_2.png,1,"[11.733433509789462, -11.733433509789466]",11.733433509789462,-11.733433509789464,images/picture_3.png,2,"[-11.733433509789466, -11.733433509789462]",-11.733433509789464,-11.733433509789462,0,1,1,0.8080119745290409,1.808011974529041,1.191988025470959,3,1,1.558011974529041,0,5,0,5,0,0,4,4,5,,,,,,,0.004483249969780445,541.9155479159672,541.9155479159672,542.9298545409692,543.215767125017,543.215767125017,543.215767125017,543.4829758330015,544.3966001659865,544.4157733749598,544.4157733749598,544.4157733749598,545.3966163329314,4.520638457965106,200002,202,2023-03-21_15h31.16.864,DMS_BEST_eyetracking_DAN_base_12-36_looped_10minWORKING,2022.2.4,None,
52,UNPRED,12,1.0082007769239067,0,images/picture_1.png,images/picture_1.png,0,"[-11.733433509789462, 11.733433509789464]",-11.733433509789462,11.733433509789464,images/picture_2.png,1,"[11.733433509789464, 11.733433509789462]",11.733433509789464,11.733433509789462,images/picture_3.png,2,"[-11.733433509789466, -11.733433509789462]",-11.733433509789464,-11.733433509789462,0,1,1,1.0082007769239067,2.008200776923907,0.9917992230760933,3,1,1.7582007769239072,0,5,0,5,0,0,5,5,7,,,,,,,,,,,,,,,,,,,,,200002,202,2023-03-21_15h31.16.864,DMS_BEST_eyetracking_DAN_base_12-36_looped_10minWORKING,2022.2.4,None,
52,UNPRED,12,1.0082007769239067,0,images/picture_1.png,images/picture_1.png,0,"[-11.733433509789462, 11.733433509789464]",-11.733433509789462,11.733433509789464,images/picture_2.png,1,"[11.733433509789464, 11.733433509789462]",11.733433509789464,11.733433509789462,images/picture_3.png,2,"[-11.733433509789466, -11.733433509789462]",-11.733433509789464,-11.733433509789462,0,1,1,1.0082007769239067,2.008200776923907,0.9917992230760933,3,1,1.7582007769239072,0,5,0,5,0,0,5,5,7,,,,,,,0.006148666958324611,546.9426763749216,546.9426763749216,547.949904958019,548.4298444580054,548.4298444580054,548.4298444580054,548.7165437079966,549.4299814159749,549.4299814159749,549.4299814159749,549.4299814159749,550.4298750829184,4.506383250001818,200002,202,2023-03-21_15h31.16.864,DMS_BEST_eyetracking_DAN_base_12-36_looped_10minWORKING,2022.2.4,None,
48,UNPRED,12,0.6542507669229698,0,images/picture_1.png,images/picture_1.png,0,"[-11.733433509789466, -11.733433509789462]",-11.733433509789464,-11.733433509789462,images/picture_2.png,1,"[11.733433509789462, -11.733433509789466]",11.733433509789462,-11.733433509789464,images/picture_3.png,2,"[-11.733433509789462, 11.733433509789464]",-11.733433509789462,11.733433509789464,0,1,1,0.6542507669229698,1.6542507669229698,1.3457492330770302,3,1,1.4042507669229698,0,5,0,5,0,0,6,6,3,,,,,,,,,,,,,,,,,,,,,200002,202,2023-03-21_15h31.16.864,DMS_BEST_eyetracking_DAN_base_12-36_looped_10minWORKING,2022.2.4,None,
48,UNPRED,12,0.6542507669229698,0,images/picture_1.png,images/picture_1.png,0,"[-11.733433509789466, -11.733433509789462]",-11.733433509789464,-11.733433509789462,images/picture_2.png,1,"[11.733433509789462, -11.733433509789466]",11.733433509789462,-11.733433509789464,images/picture_3.png,2,"[-11.733433509789462, 11.733433509789464]",-11.733433509789462,11.733433509789464,0,1,1,0.6542507669229698,1.6542507669229698,1.3457492330770302,3,1,1.4042507669229698,0,5,0,5,0,0,6,6,3,,,,,,,0.004787624930031598,551.9608338329708,551.9608338329708,552.963351708022,553.0968983329367,553.0968983329367,553.0968983329367,553.3633338329382,554.4491353749763,554.4491353749763,554.4491353749763,554.4491353749763,555.4632956249407,4.512181874946691,200002,202,2023-03-21_15h31.16.864,DMS_BEST_eyetracking_DAN_base_12-36_looped_10minWORKING,2022.2.4,None,
53,UNPRED,12,0.8000313787800786,2,images/picture_3.png,images/picture_1.png,0,"[11.733433509789464, 11.733433509789462]",11.733433509789464,11.733433509789462,images/picture_2.png,1,"[-11.733433509789466, -11.733433509789462]",-11.733433509789464,-11.733433509789462,images/picture_3.png,2,"[-11.733433509789462, 11.733433509789464]",-11.733433509789462,11.733433509789464,0,1,1,0.8000313787800786,1.8000313787800786,1.1999686212199214,3,1,1.5500313787800786,0,5,0,5,0,0,7,7,8,,,,,,,,,,,,,,,,,,,,,200002,202,2023-03-21_15h31.16.864,DMS_BEST_eyetracking_DAN_base_12-36_looped_10minWORKING,2022.2.4,None,
53,UNPRED,12,0.8000313787800786,2,images/picture_3.png,images/picture_1.png,0,"[11.733433509789464, 11.733433509789462]",11.733433509789464,11.733433509789462,images/picture_2.png,1,"[-11.733433509789466, -11.733433509789462]",-11.733433509789464,-11.733433509789462,images/picture_3.png,2,"[-11.733433509789462, 11.733433509789464]",-11.733433509789462,11.733433509789464,0,1,1,0.8000313787800786,1.8000313787800786,1.1999686212199214,3,1,1.5500313787800786,0,5,0,5,0,0,7,7,8,,,,,,,0.005416583037003875,556.9838020409225,556.9838020409225,557.9965886250138,558.2633583749412,558.2633583749412,558.2633583749412,558.5491630829638,559.4632922499441,559.4632922499441,559.4632922499441,559.4632922499441,560.4630728749325,4.519737167051062,200002,202,2023-03-21_15h31.16.864,DMS_BEST_eyetracking_DAN_base_12-36_looped_10minWORKING,2022.2.4,None,
47,UNPRED,12,0.7894327392167575,0,images/picture_1.png,images/picture_1.png,0,"[-11.733433509789466, -11.733433509789462]",-11.733433509789464,-11.733433509789462,images/picture_2.png,1,"[-11.733433509789462, 11.733433509789464]",-11.733433509789462,11.733433509789464,images/picture_3.png,2,"[11.733433509789464, 11.733433509789462]",11.733433509789464,11.733433509789462,0,1,1,0.7894327392167575,1.7894327392167575,1.2105672607832425,3,1,1.5394327392167575,0,5,0,5,0,0,8,8,2,,,,,,,,,,,,,,,,,,,,,200002,202,2023-03-21_15h31.16.864,DMS_BEST_eyetracking_DAN_base_12-36_looped_10minWORKING,2022.2.4,None,
47,UNPRED,12,0.7894327392167575,0,images/picture_1.png,images/picture_1.png,0,"[-11.733433509789466, -11.733433509789462]",-11.733433509789464,-11.733433509789462,images/picture_2.png,1,"[-11.733433509789462, 11.733433509789464]",-11.733433509789462,11.733433509789464,images/picture_3.png,2,"[11.733433509789464, 11.733433509789462]",11.733433509789464,11.733433509789462,0,1,1,0.7894327392167575,1.7894327392167575,1.2105672607832425,3,1,1.5394327392167575,0,5,0,5,0,0,8,8,2,,,,,,,0.005898208008147776,562.0091339999344,562.0091339999344,563.0160707499599,563.2826341249747,563.2826341249747,563.2826341249747,563.5632015829906,564.4966230409918,564.4966230409918,564.4966230409918,564.4966230409918,565.496597749996,4.507479166961275,200002,202,2023-03-21_15h31.16.864,DMS_BEST_eyetracking_DAN_base_12-36_looped_10minWORKING,2022.2.4,None,
,,,,,,,,,,,,,,,,,,,,,,,,,,,,,,,5,0,5,0,,,,,,,,,566.6028132499196,579.1333994999295,,,,,,,,,,,,,,,200002,202,2023-03-21_15h31.16.864,DMS_BEST_eyetracking_DAN_base_12-36_looped_10minWORKING,2022.2.4,None,
59,PRED,12,1.1428610057001014,0,images/picture_1.png,images/picture_1.png,0,"[11.733433509789464, 11.733433509789462]",11.733433509789464,11.733433509789462,images/picture_2.png,1,"[-11.733433509789466, -11.733433509789462]",-11.733433509789464,-11.733433509789462,images/picture_3.png,2,"[-11.733433509789462, 11.733433509789464]",-11.733433509789462,11.733433509789464,0,1,1,1.1428610057001014,2.1428610057001016,0.8571389942998986,3,1,1.8928610057001016,0,6,0,6,0,0,0,0,5,,,,,,,,,,,,,,,,,,,,,200002,202,2023-03-21_15h31.16.864,DMS_BEST_eyetracking_DAN_base_12-36_looped_10minWORKING,2022.2.4,None,
59,PRED,12,1.1428610057001014,0,images/picture_1.png,images/picture_1.png,0,"[11.733433509789464, 11.733433509789462]",11.733433509789464,11.733433509789462,images/picture_2.png,1,"[-11.733433509789466, -11.733433509789462]",-11.733433509789464,-11.733433509789462,images/picture_3.png,2,"[-11.733433509789462, 11.733433509789464]",-11.733433509789462,11.733433509789464,0,1,1,1.1428610057001014,2.1428610057001016,0.8571389942998986,3,1,1.8928610057001016,0,6,0,6,0,0,0,0,5,,,,,,,0.0025853749830275774,579.1333994999295,579.1333994999295,580.1302152909338,580.7632972499123,580.7632972499123,580.7632972499123,581.0297829579795,581.6297985829879,581.6297985829879,581.6297985829879,581.6297985829879,582.6296750409529,4.498722166987136,200002,202,2023-03-21_15h31.16.864,DMS_BEST_eyetracking_DAN_base_12-36_looped_10minWORKING,2022.2.4,None,
57,PRED,12,0.8896864124128361,0,images/picture_1.png,images/picture_1.png,0,"[11.733433509789464, 11.733433509789462]",11.733433509789464,11.733433509789462,images/picture_2.png,1,"[-11.733433509789462, 11.733433509789464]",-11.733433509789462,11.733433509789464,images/picture_3.png,2,"[-11.733433509789466, -11.733433509789462]",-11.733433509789464,-11.733433509789462,0,1,1,0.8896864124128361,1.8896864124128359,1.1103135875871641,3,1,1.6396864124128359,0,6,0,6,0,0,1,1,3,,,,,,,,,,,,,,,,,,,,,200002,202,2023-03-21_15h31.16.864,DMS_BEST_eyetracking_DAN_base_12-36_looped_10minWORKING,2022.2.4,None,
57,PRED,12,0.8896864124128361,0,images/picture_1.png,images/picture_1.png,0,"[11.733433509789464, 11.733433509789462]",11.733433509789464,11.733433509789462,images/picture_2.png,1,"[-11.733433509789462, 11.733433509789464]",-11.733433509789462,11.733433509789464,images/picture_3.png,2,"[-11.733433509789466, -11.733433509789462]",-11.733433509789464,-11.733433509789462,0,1,1,0.8896864124128361,1.8896864124128359,1.1103135875871641,3,1,1.6396864124128359,0,6,0,6,0,0,1,1,3,,,,,,,0.004472583997994661,584.1410282499855,584.1410282499855,585.1496721659787,585.5159039999126,585.5159039999126,585.5159039999126,585.7828316249652,586.6300471249269,586.6300471249269,586.6300471249269,586.6300471249269,587.6301857499639,4.507262459024787,200002,202,2023-03-21_15h31.16.864,DMS_BEST_eyetracking_DAN_base_12-36_looped_10minWORKING,2022.2.4,None,
56,PRED,12,0.9825067458355076,0,images/picture_1.png,images/picture_1.png,0,"[-11.733433509789462, 11.733433509789464]",-11.733433509789462,11.733433509789464,images/picture_2.png,1,"[-11.733433509789466, -11.733433509789462]",-11.733433509789464,-11.733433509789462,images/picture_3.png,2,"[11.733433509789464, 11.733433509789462]",11.733433509789464,11.733433509789462,0,1,1,0.9825067458355076,1.982506745835508,1.0174932541644923,3,1,1.7325067458355077,0,6,0,6,0,0,2,2,2,,,,,,,,,,,,,,,,,,,,,200002,202,2023-03-21_15h31.16.864,DMS_BEST_eyetracking_DAN_base_12-36_looped_10minWORKING,2022.2.4,None,
56,PRED,12,0.9825067458355076,0,images/picture_1.png,images/picture_1.png,0,"[-11.733433509789462, 11.733433509789464]",-11.733433509789462,11.733433509789464,images/picture_2.png,1,"[-11.733433509789466, -11.733433509789462]",-11.733433509789464,-11.733433509789462,images/picture_3.png,2,"[11.733433509789464, 11.733433509789462]",11.733433509789464,11.733433509789462,0,1,1,0.9825067458355076,1.982506745835508,1.0174932541644923,3,1,1.7325067458355077,0,6,0,6,0,0,2,2,2,,,,,,,0.004837457905523479,589.1601847079583,589.1601847079583,590.1633649999276,590.6303576249629,590.6303576249629,590.6303576249629,590.8965045409277,591.6486203749664,591.6630122079514,591.6630122079514,591.6630122079514,592.6632572079543,4.512367207906209,200002,202,2023-03-21_15h31.16.864,DMS_BEST_eyetracking_DAN_base_12-36_looped_10minWORKING,2022.2.4,None,
58,PRED,12,0.566131222041527,0,images/picture_1.png,images/picture_1.png,0,"[-11.733433509789466, -11.733433509789462]",-11.733433509789464,-11.733433509789462,images/picture_2.png,1,"[11.733433509789464, 11.733433509789462]",11.733433509789464,11.733433509789462,images/picture_3.png,2,"[11.733433509789462, -11.733433509789466]",11.733433509789462,-11.733433509789464,0,1,1,0.566131222041527,1.5661312220415269,1.4338687779584731,3,1,1.3161312220415269,0,6,0,6,0,0,3,3,4,,,,,,,,,,,,,,,,,,,,,200002,202,2023-03-21_15h31.16.864,DMS_BEST_eyetracking_DAN_base_12-36_looped_10minWORKING,2022.2.4,None,
58,PRED,12,0.566131222041527,0,images/picture_1.png,images/picture_1.png,0,"[-11.733433509789466, -11.733433509789462]",-11.733433509789464,-11.733433509789462,images/picture_2.png,1,"[11.733433509789464, 11.733433509789462]",11.733433509789464,11.733433509789462,images/picture_3.png,2,"[11.733433509789462, -11.733433509789466]",11.733433509789462,-11.733433509789464,0,1,1,0.566131222041527,1.5661312220415269,1.4338687779584731,3,1,1.3161312220415269,0,6,0,6,0,0,3,3,4,,,,,,,0.003640832961536944,594.1813950409414,594.1813950409414,595.1969200000167,595.2301076659933,595.2301076659933,595.2301076659933,595.4967877499294,596.6634709580103,596.6634709580103,596.6634709580103,596.6634709580103,597.6633359579137,4.522349291015416,200002,202,2023-03-21_15h31.16.864,DMS_BEST_eyetracking_DAN_base_12-36_looped_10minWORKING,2022.2.4,None,
62,PRED,12,1.1073843862552857,0,images/picture_1.png,images/picture_1.png,0,"[-11.733433509789462, 11.733433509789464]",-11.733433509789462,11.733433509789464,images/picture_2.png,1,"[-11.733433509789466, -11.733433509789462]",-11.733433509789464,-11.733433509789462,images/picture_3.png,2,"[11.733433509789464, 11.733433509789462]",11.733433509789464,11.733433509789462,0,1,1,1.1073843862552857,2.1073843862552857,0.8926156137447143,3,1,1.8573843862552857,0,6,0,6,0,0,4,4,8,,,,,,,,,,,,,,,,,,,,,200002,202,2023-03-21_15h31.16.864,DMS_BEST_eyetracking_DAN_base_12-36_looped_10minWORKING,2022.2.4,None,
62,PRED,12,1.1073843862552857,0,images/picture_1.png,images/picture_1.png,0,"[-11.733433509789462, 11.733433509789464]",-11.733433509789462,11.733433509789464,images/picture_2.png,1,"[-11.733433509789466, -11.733433509789462]",-11.733433509789464,-11.733433509789462,images/picture_3.png,2,"[11.733433509789464, 11.733433509789462]",11.733433509789464,11.733433509789462,0,1,1,1.1073843862552857,2.1073843862552857,0.8926156137447143,3,1,1.8573843862552857,0,6,0,6,0,0,4,4,8,,,,,,,0.004646208952181041,599.2086326659191,599.2086326659191,600.2160582499346,600.7965654579457,600.7965654579457,600.7965654579457,601.063338457956,601.6965119999368,601.6965119999368,601.6965119999368,601.6965119999368,602.69696487498,4.505885874968953,200002,202,2023-03-21_15h31.16.864,DMS_BEST_eyetracking_DAN_base_12-36_looped_10minWORKING,2022.2.4,None,
54,PRED,12,0.7270420408069929,0,images/picture_1.png,images/picture_1.png,0,"[11.733433509789462, -11.733433509789466]",11.733433509789462,-11.733433509789464,images/picture_2.png,1,"[11.733433509789464, 11.733433509789462]",11.733433509789464,11.733433509789462,images/picture_3.png,2,"[-11.733433509789466, -11.733433509789462]",-11.733433509789464,-11.733433509789462,0,1,1,0.7270420408069929,1.7270420408069929,1.2729579591930071,3,1,1.4770420408069929,0,6,0,6,0,0,5,5,0,,,,,,,,,,,,,,,,,,,,,200002,202,2023-03-21_15h31.16.864,DMS_BEST_eyetracking_DAN_base_12-36_looped_10minWORKING,2022.2.4,None,
54,PRED,12,0.7270420408069929,0,images/picture_1.png,images/picture_1.png,0,"[11.733433509789462, -11.733433509789466]",11.733433509789462,-11.733433509789464,images/picture_2.png,1,"[11.733433509789464, 11.733433509789462]",11.733433509789464,11.733433509789462,images/picture_3.png,2,"[-11.733433509789466, -11.733433509789462]",-11.733433509789464,-11.733433509789462,0,1,1,0.7270420408069929,1.7270420408069929,1.2729579591930071,3,1,1.4770420408069929,0,6,0,6,0,0,5,5,0,,,,,,,0.005061709089204669,604.2256424579537,604.2256424579537,605.2300146250054,605.4301650829148,605.4301650829148,605.4301650829148,605.7160880829906,606.7162208749214,606.7162208749214,606.7162208749214,606.7162208749214,607.730175082921,4.511268750065938,200002,202,2023-03-21_15h31.16.864,DMS_BEST_eyetracking_DAN_base_12-36_looped_10minWORKING,2022.2.4,None,
61,PRED,12,0.7075426090534442,0,images/picture_1.png,images/picture_1.png,0,"[11.733433509789464, 11.733433509789462]",11.733433509789464,11.733433509789462,images/picture_2.png,1,"[-11.733433509789466, -11.733433509789462]",-11.733433509789464,-11.733433509789462,images/picture_3.png,2,"[-11.733433509789462, 11.733433509789464]",-11.733433509789462,11.733433509789464,0,1,1,0.7075426090534442,1.7075426090534442,1.2924573909465558,3,1,1.4575426090534442,0,6,0,6,0,0,6,6,7,,,,,,,,,,,,,,,,,,,,,200002,202,2023-03-21_15h31.16.864,DMS_BEST_eyetracking_DAN_base_12-36_looped_10minWORKING,2022.2.4,None,
61,PRED,12,0.7075426090534442,0,images/picture_1.png,images/picture_1.png,0,"[11.733433509789464, 11.733433509789462]",11.733433509789464,11.733433509789462,images/picture_2.png,1,"[-11.733433509789466, -11.733433509789462]",-11.733433509789464,-11.733433509789462,images/picture_3.png,2,"[-11.733433509789462, 11.733433509789464]",-11.733433509789462,11.733433509789464,0,1,1,0.7075426090534442,1.7075426090534442,1.2924573909465558,3,1,1.4575426090534442,0,6,0,6,0,0,6,6,7,,,,,,,0.0035224580205976963,609.2498800830217,609.2498800830217,610.2635785830207,610.4494835829828,610.4494835829828,610.4494835829828,610.7165321659995,611.7297768749995,611.748865374946,611.748865374946,611.748865374946,612.7301575409947,4.520265042083338,200002,202,2023-03-21_15h31.16.864,DMS_BEST_eyetracking_DAN_base_12-36_looped_10minWORKING,2022.2.4,None,
55,PRED,12,1.1721678497262886,0,images/picture_1.png,images/picture_1.png,0,"[-11.733433509789462, 11.733433509789464]",-11.733433509789462,11.733433509789464,images/picture_2.png,1,"[11.733433509789464, 11.733433509789462]",11.733433509789464,11.733433509789462,images/picture_3.png,2,"[11.733433509789462, -11.733433509789466]",11.733433509789462,-11.733433509789464,0,1,1,1.1721678497262886,2.1721678497262884,0.8278321502737114,3,1,1.9221678497262884,0,6,0,6,0,0,7,7,1,,,,,,,,,,,,,,,,,,,,,200002,202,2023-03-21_15h31.16.864,DMS_BEST_eyetracking_DAN_base_12-36_looped_10minWORKING,2022.2.4,None,
55,PRED,12,1.1721678497262886,0,images/picture_1.png,images/picture_1.png,0,"[-11.733433509789462, 11.733433509789464]",-11.733433509789462,11.733433509789464,images/picture_2.png,1,"[11.733433509789464, 11.733433509789462]",11.733433509789464,11.733433509789462,images/picture_3.png,2,"[11.733433509789462, -11.733433509789466]",11.733433509789462,-11.733433509789464,0,1,1,1.1721678497262886,2.1721678497262884,0.8278321502737114,3,1,1.9221678497262884,0,6,0,6,0,0,7,7,1,,,,,,,0.004732541972771287,614.270987332915,614.270987332915,615.2831664580153,615.9301383330021,615.9301383330021,615.9301383330021,616.1969158329302,616.7635280409595,616.7635280409595,616.7635280409595,616.7635280409595,617.7636379579781,4.506394207943231,200002,202,2023-03-21_15h31.16.864,DMS_BEST_eyetracking_DAN_base_12-36_looped_10minWORKING,2022.2.4,None,
60,PRED,12,1.074771675709266,0,images/picture_1.png,images/picture_1.png,0,"[-11.733433509789466, -11.733433509789462]",-11.733433509789464,-11.733433509789462,images/picture_2.png,1,"[-11.733433509789462, 11.733433509789464]",-11.733433509789462,11.733433509789464,images/picture_3.png,2,"[11.733433509789464, 11.733433509789462]",11.733433509789464,11.733433509789462,0,1,1,1.074771675709266,2.0747716757092656,0.9252283242907341,3,1,1.8247716757092658,0,6,0,6,0,0,8,8,6,,,,,,,,,,,,,,,,,,,,,200002,202,2023-03-21_15h31.16.864,DMS_BEST_eyetracking_DAN_base_12-36_looped_10minWORKING,2022.2.4,None,
60,PRED,12,1.074771675709266,0,images/picture_1.png,images/picture_1.png,0,"[-11.733433509789466, -11.733433509789462]",-11.733433509789464,-11.733433509789462,images/picture_2.png,1,"[-11.733433509789462, 11.733433509789464]",-11.733433509789462,11.733433509789464,images/picture_3.png,2,"[11.733433509789464, 11.733433509789462]",11.733433509789464,11.733433509789462,0,1,1,1.074771675709266,2.0747716757092656,0.9252283242907341,3,1,1.8247716757092658,0,6,0,6,0,0,8,8,6,,,,,,,0.004440165939740837,619.2931630000239,619.2931630000239,620.2968751660082,620.8497853329172,620.8497853329172,620.8497853329172,621.1300446250243,621.7824033750221,621.7824033750221,621.7824033750221,621.7824033750221,622.7965244579827,4.5127375409938395,200002,202,2023-03-21_15h31.16.864,DMS_BEST_eyetracking_DAN_base_12-36_looped_10minWORKING,2022.2.4,None,
,,,,,,,,,,,,,,,,,,,,,,,,,,,,,,,6,0,6,0,,,,,,,,,623.8982603750192,636.4256902500056,,,,,,,,,,,,,,,200002,202,2023-03-21_15h31.16.864,DMS_BEST_eyetracking_DAN_base_12-36_looped_10minWORKING,2022.2.4,None,
63,UNPRED,12,0.6310673580325509,1,images/picture_2.png,images/picture_1.png,0,"[11.733433509789462, -11.733433509789466]",11.733433509789462,-11.733433509789464,images/picture_2.png,1,"[11.733433509789464, 11.733433509789462]",11.733433509789464,11.733433509789462,images/picture_3.png,2,"[-11.733433509789466, -11.733433509789462]",-11.733433509789464,-11.733433509789462,0,1,1,0.6310673580325509,1.6310673580325512,1.3689326419674488,3,1,1.3810673580325512,0,7,0,7,0,0,0,0,0,,,,,,,,,,,,,,,,,,,,,200002,202,2023-03-21_15h31.16.864,DMS_BEST_eyetracking_DAN_base_12-36_looped_10minWORKING,2022.2.4,None,
63,UNPRED,12,0.6310673580325509,1,images/picture_2.png,images/picture_1.png,0,"[11.733433509789462, -11.733433509789466]",11.733433509789462,-11.733433509789464,images/picture_2.png,1,"[11.733433509789464, 11.733433509789462]",11.733433509789464,11.733433509789462,images/picture_3.png,2,"[-11.733433509789466, -11.733433509789462]",-11.733433509789464,-11.733433509789462,0,1,1,0.6310673580325509,1.6310673580325512,1.3689326419674488,3,1,1.3810673580325512,0,7,0,7,0,0,0,0,0,,,,,,,0.005150082986801863,636.4256902500056,636.4256902500056,637.430297999992,637.5494617079385,637.5494617079385,637.5494617079385,637.8162057079608,638.9160677909385,638.9301109159132,638.9301109159132,638.9301109159132,639.9301002909197,4.509074916015379,200002,202,2023-03-21_15h31.16.864,DMS_BEST_eyetracking_DAN_base_12-36_looped_10minWORKING,2022.2.4,None,
66,UNPRED,12,1.1133107628516528,1,images/picture_2.png,images/picture_1.png,0,"[11.733433509789462, -11.733433509789466]",11.733433509789462,-11.733433509789464,images/picture_2.png,1,"[11.733433509789464, 11.733433509789462]",11.733433509789464,11.733433509789462,images/picture_3.png,2,"[-11.733433509789462, 11.733433509789464]",-11.733433509789462,11.733433509789464,0,1,1,1.1133107628516528,2.1133107628516528,0.8866892371483472,3,1,1.8633107628516528,0,7,0,7,0,0,1,1,3,,,,,,,,,,,,,,,,,,,,,200002,202,2023-03-21_15h31.16.864,DMS_BEST_eyetracking_DAN_base_12-36_looped_10minWORKING,2022.2.4,None,
66,UNPRED,12,1.1133107628516528,1,images/picture_2.png,images/picture_1.png,0,"[11.733433509789462, -11.733433509789466]",11.733433509789462,-11.733433509789464,images/picture_2.png,1,"[11.733433509789464, 11.733433509789462]",11.733433509789464,11.733433509789462,images/picture_3.png,2,"[-11.733433509789462, 11.733433509789464]",-11.733433509789462,11.733433509789464,0,1,1,1.1133107628516528,2.1133107628516528,0.8866892371483472,3,1,1.8633107628516528,0,7,0,7,0,0,1,1,3,,,,,,,0.006237791036255658,641.4478962079156,641.4478962079156,642.463471999974,643.0490811249474,643.0490811249474,643.0490811249474,643.3154396659229,643.9302125829272,643.9493317910237,643.9493317910237,643.9493317910237,644.9301440409617,4.525640708045103,200002,202,2023-03-21_15h31.16.864,DMS_BEST_eyetracking_DAN_base_12-36_looped_10minWORKING,2022.2.4,None,
64,UNPRED,12,0.5600647275947115,0,images/picture_1.png,images/picture_1.png,0,"[-11.733433509789462, 11.733433509789464]",-11.733433509789462,11.733433509789464,images/picture_2.png,1,"[11.733433509789462, -11.733433509789466]",11.733433509789462,-11.733433509789464,images/picture_3.png,2,"[-11.733433509789466, -11.733433509789462]",-11.733433509789464,-11.733433509789462,0,1,1,0.5600647275947115,1.5600647275947117,1.4399352724052883,3,1,1.3100647275947117,0,7,0,7,0,0,2,2,1,,,,,,,,,,,,,,,,,,,,,200002,202,2023-03-21_15h31.16.864,DMS_BEST_eyetracking_DAN_base_12-36_looped_10minWORKING,2022.2.4,None,
64,UNPRED,12,0.5600647275947115,0,images/picture_1.png,images/picture_1.png,0,"[-11.733433509789462, 11.733433509789464]",-11.733433509789462,11.733433509789464,images/picture_2.png,1,"[11.733433509789462, -11.733433509789466]",11.733433509789462,-11.733433509789464,images/picture_3.png,2,"[-11.733433509789466, -11.733433509789462]",-11.733433509789464,-11.733433509789462,0,1,1,0.5600647275947115,1.5600647275947117,1.4399352724052883,3,1,1.3100647275947117,0,7,0,7,0,0,2,2,1,,,,,,,0.005832000053487718,646.4768172500189,646.4768172500189,647.4831548329676,647.5302577499533,647.5302577499533,647.5302577499533,647.7967858749907,648.9634679160081,648.9832685409347,648.9832685409347,648.9832685409347,649.963496082928,4.50801037508063,200002,202,2023-03-21_15h31.16.864,DMS_BEST_eyetracking_DAN_base_12-36_looped_10minWORKING,2022.2.4,None,
70,UNPRED,12,0.6630669683881085,0,images/picture_1.png,images/picture_1.png,0,"[-11.733433509789462, 11.733433509789464]",-11.733433509789462,11.733433509789464,images/picture_2.png,1,"[11.733433509789464, 11.733433509789462]",11.733433509789464,11.733433509789462,images/picture_3.png,2,"[11.733433509789462, -11.733433509789466]",11.733433509789462,-11.733433509789464,0,1,1,0.6630669683881085,1.6630669683881083,1.3369330316118917,3,1,1.4130669683881083,0,7,0,7,0,0,3,3,7,,,,,,,,,,,,,,,,,,,,,200002,202,2023-03-21_15h31.16.864,DMS_BEST_eyetracking_DAN_base_12-36_looped_10minWORKING,2022.2.4,None,
70,UNPRED,12,0.6630669683881085,0,images/picture_1.png,images/picture_1.png,0,"[-11.733433509789462, 11.733433509789464]",-11.733433509789462,11.733433509789464,images/picture_2.png,1,"[11.733433509789464, 11.733433509789462]",11.733433509789464,11.733433509789462,images/picture_3.png,2,"[11.733433509789462, -11.733433509789466]",11.733433509789462,-11.733433509789464,0,1,1,0.6630669683881085,1.6630669683881083,1.3369330316118917,3,1,1.4130669683881083,0,7,0,7,0,0,3,3,7,,,,,,,0.00360979198012501,651.4987491659122,651.4987491659122,652.496779665933,652.649072540924,652.649072540924,652.649072540924,652.9154653329169,653.9823382080067,653.9966544579947,653.9966544579947,653.9966544579947,654.9969318329822,4.505206209025346,200002,202,2023-03-21_15h31.16.864,DMS_BEST_eyetracking_DAN_base_12-36_looped_10minWORKING,2022.2.4,None,
