trial_count,blockType,blockNum,delay_time,stimImage_i,stimImage,responseImage1,responseImage1_i,responseImage1_pos,responseImage1_X,responseImage1_Y,responseImage2,responseImage2_i,responseImage2_pos,responseImage2_X,responseImage2_Y,responseImage3,responseImage3_i,responseImage3_pos,responseImage3_X,responseImage3_Y,cue_onset,cue_dur,delay_onset,delay_dur,resp_onset,resp_dur,rest_onset,rest_dur,circle_dur,circle_onset,total_dur,cross_onset,cross_dur,delay_resp_period,blocks.thisRepN,blocks.thisTrialN,blocks.thisN,blocks.thisIndex,trials.thisRepN,trials.thisTrialN,trials.thisN,trials.thisIndex,key_resp.started,text.started,key_resp.keys,key_resp.rt,text_2.started,text_2.stopped,sample.started,Delay.started,sample.stopped,Delay.stopped,Response_1.started,Response_2.started,Response_3.started,Response_1.stopped,Response_2.stopped,Response_3.stopped,polygon.started,polygon.stopped,participant,session,date,expName,psychopyVersion,frameRate,
,,,,,,,,,,,,,,,,,,,,,,,,,,,,,,,,,,,,,,,,,,,72.78987212499487,72.78987212499487,t,65.97249091698905,,,,,,,,,,,,,,,200008,001,2023-04-14_10h30.26.785,DMS_et_12-36,2022.2.4,None,
3,PRED,12,1.087335901207669,2,images/picture_3.png,images/picture_1.png,0,"[-11.733433509789466, -11.733433509789462]",-11.733433509789464,-11.733433509789462,images/picture_2.png,1,"[11.733433509789464, 11.733433509789462]",11.733433509789464,11.733433509789462,images/picture_3.png,2,"[11.733433509789462, -11.733433509789466]",11.733433509789462,-11.733433509789464,0,1,1,1.087335901207669,2.0873359012076693,0.9126640987923308,3.0,1,1.837335901207669,0,4.0,3.0,1,2,0,0,0,0,0,0,0,3,,,,,139.28041483301786,151.32345658302074,151.32345658302074,151.32345658302074,152.32494300001417,153.1582916250045,153.39144866599236,153.39144866599236,153.39144866599236,154.31149883300532,154.31149883300532,154.31149883300532,154.31149883300532,155.32597737500328,200008,001,2023-04-14_10h30.26.785,DMS_et_12-36,2022.2.4,None,
0,PRED,12,1.087335901207669,2,images/picture_3.png,images/picture_1.png,0,"[11.733433509789464, 11.733433509789462]",11.733433509789464,11.733433509789462,images/picture_2.png,1,"[11.733433509789462, -11.733433509789466]",11.733433509789462,-11.733433509789464,images/picture_3.png,2,"[-11.733433509789462, 11.733433509789464]",-11.733433509789462,11.733433509789464,0,1,1,1.087335901207669,2.0873359012076693,0.9126640987923308,3.0,1,1.837335901207669,0,4.0,3.0,1,2,0,0,0,0,0,1,1,0,,,,,,,155.32597737500328,155.32597737500328,156.32535345799988,157.1776279580081,157.41092137500527,157.41092137500527,157.41092137500527,158.32489270801307,158.32489270801307,158.32489270801307,158.32489270801307,159.34395345801022,200008,001,2023-04-14_10h30.26.785,DMS_et_12-36,2022.2.4,None,
6,PRED,12,1.087335901207669,2,images/picture_3.png,images/picture_1.png,0,"[-11.733433509789462, 11.733433509789464]",-11.733433509789462,11.733433509789464,images/picture_2.png,1,"[-11.733433509789466, -11.733433509789462]",-11.733433509789464,-11.733433509789462,images/picture_3.png,2,"[11.733433509789464, 11.733433509789462]",11.733433509789464,11.733433509789462,0,1,1,1.087335901207669,2.0873359012076693,0.9126640987923308,3.0,1,1.837335901207669,0,4.0,3.0,1,2,0,0,0,0,0,2,2,6,,,,,,,159.34395345801022,159.34395345801022,160.3581594999996,161.19169125001645,161.41115470801014,161.41115470801014,161.41115470801014,162.32495533299516,162.32495533299516,162.32495533299516,162.32495533299516,163.3438206250139,200008,001,2023-04-14_10h30.26.785,DMS_et_12-36,2022.2.4,None,
1,PRED,12,1.087335901207669,2,images/picture_3.png,images/picture_1.png,0,"[11.733433509789464, 11.733433509789462]",11.733433509789464,11.733433509789462,images/picture_2.png,1,"[-11.733433509789466, -11.733433509789462]",-11.733433509789464,-11.733433509789462,images/picture_3.png,2,"[11.733433509789462, -11.733433509789466]",11.733433509789462,-11.733433509789464,0,1,1,1.087335901207669,2.0873359012076693,0.9126640987923308,3.0,1,1.837335901207669,0,4.0,3.0,1,2,0,0,0,0,0,3,3,1,,,,,,,163.3438206250139,163.3438206250139,164.35805483302101,165.19118387499475,165.41035658301553,165.41035658301553,165.41035658301553,166.32500783301657,166.32500783301657,166.32500783301657,166.32500783301657,167.34400366601767,200008,001,2023-04-14_10h30.26.785,DMS_et_12-36,2022.2.4,None,
4,PRED,12,1.087335901207669,2,images/picture_3.png,images/picture_1.png,0,"[11.733433509789464, 11.733433509789462]",11.733433509789464,11.733433509789462,images/picture_2.png,1,"[-11.733433509789466, -11.733433509789462]",-11.733433509789464,-11.733433509789462,images/picture_3.png,2,"[-11.733433509789462, 11.733433509789464]",-11.733433509789462,11.733433509789464,0,1,1,1.087335901207669,2.0873359012076693,0.9126640987923308,3.0,1,1.837335901207669,0,4.0,3.0,1,2,0,0,0,0,0,4,4,4,,,,,,,167.34400366601767,167.34400366601767,168.35822345799534,169.1917347080016,169.41128866601503,169.41128866601503,169.41128866601503,170.32491270801984,170.32491270801984,170.32491270801984,170.32491270801984,171.34475745802047,200008,001,2023-04-14_10h30.26.785,DMS_et_12-36,2022.2.4,None,
8,PRED,12,1.087335901207669,2,images/picture_3.png,images/picture_1.png,0,"[-11.733433509789462, 11.733433509789464]",-11.733433509789462,11.733433509789464,images/picture_2.png,1,"[-11.733433509789466, -11.733433509789462]",-11.733433509789464,-11.733433509789462,images/picture_3.png,2,"[11.733433509789464, 11.733433509789462]",11.733433509789464,11.733433509789462,0,1,1,1.087335901207669,2.0873359012076693,0.9126640987923308,3.0,1,1.837335901207669,0,4.0,3.0,1,2,0,0,0,0,0,5,5,8,,,,,,,171.34475745802047,171.34475745802047,172.35815837502014,173.19146145801642,173.41115037500276,173.41115037500276,173.41115037500276,174.325147208001,174.325147208001,174.325147208001,174.325147208001,175.34436908300268,200008,001,2023-04-14_10h30.26.785,DMS_et_12-36,2022.2.4,None,
5,PRED,12,1.087335901207669,2,images/picture_3.png,images/picture_1.png,0,"[11.733433509789462, -11.733433509789466]",11.733433509789462,-11.733433509789464,images/picture_2.png,1,"[-11.733433509789466, -11.733433509789462]",-11.733433509789464,-11.733433509789462,images/picture_3.png,2,"[11.733433509789464, 11.733433509789462]",11.733433509789464,11.733433509789462,0,1,1,1.087335901207669,2.0873359012076693,0.9126640987923308,3.0,1,1.837335901207669,0,4.0,3.0,1,2,0,0,0,0,0,6,6,5,,,,,,,175.34436908300268,175.34436908300268,176.35846591601148,177.19165358299506,177.41123766600504,177.41123766600504,177.41123766600504,178.32495379101601,178.32495379101601,178.32495379101601,178.32495379101601,179.34400241600815,200008,001,2023-04-14_10h30.26.785,DMS_et_12-36,2022.2.4,None,
7,PRED,12,1.087335901207669,2,images/picture_3.png,images/picture_1.png,0,"[11.733433509789462, -11.733433509789466]",11.733433509789462,-11.733433509789464,images/picture_2.png,1,"[11.733433509789464, 11.733433509789462]",11.733433509789464,11.733433509789462,images/picture_3.png,2,"[-11.733433509789462, 11.733433509789464]",-11.733433509789462,11.733433509789464,0,1,1,1.087335901207669,2.0873359012076693,0.9126640987923308,3.0,1,1.837335901207669,0,4.0,3.0,1,2,0,0,0,0,0,7,7,7,,,,,,,179.34400241600815,179.34400241600815,180.35839816601947,181.19166587499785,181.4118134159944,181.4118134159944,181.4118134159944,182.32494370799395,182.32494370799395,182.32494370799395,182.32494370799395,183.3445009580173,200008,001,2023-04-14_10h30.26.785,DMS_et_12-36,2022.2.4,None,
2,PRED,12,1.087335901207669,2,images/picture_3.png,images/picture_1.png,0,"[-11.733433509789462, 11.733433509789464]",-11.733433509789462,11.733433509789464,images/picture_2.png,1,"[11.733433509789462, -11.733433509789466]",11.733433509789462,-11.733433509789464,images/picture_3.png,2,"[11.733433509789464, 11.733433509789462]",11.733433509789464,11.733433509789462,0,1,1,1.087335901207669,2.0873359012076693,0.9126640987923308,3.0,1,1.837335901207669,0,4.0,3.0,1,2,0,0,0,0,0,8,8,2,,,,,,,183.3445009580173,183.3445009580173,184.35842570799286,185.19195366601343,185.4110651249939,185.4110651249939,185.4110651249939,186.32485200001975,186.32485200001975,186.32485200001975,186.32485200001975,187.34481333300937,200008,001,2023-04-14_10h30.26.785,DMS_et_12-36,2022.2.4,None,
,,,,,,,,,,,,,,,,,,,,,,,,,,,,,,,,,,,0,0,0,0,,,,,,,,,187.34481333300937,199.3777882909926,,,,,,,,,,,,,200008,001,2023-04-14_10h30.26.785,DMS_et_12-36,2022.2.4,None,
15,UNPRED,12,1.087335901207669,1,images/picture_2.png,images/picture_1.png,0,"[-11.733433509789466, -11.733433509789462]",-11.733433509789464,-11.733433509789462,images/picture_2.png,1,"[11.733433509789462, -11.733433509789466]",11.733433509789462,-11.733433509789464,images/picture_3.png,2,"[-11.733433509789462, 11.733433509789464]",-11.733433509789462,11.733433509789464,0,1,1,1.087335901207669,2.0873359012076693,0.9126640987923308,3.0,1,1.837335901207669,0,4.0,3.0,1,2,1,0,1,0,0,0,0,6,,,,,,,199.3777882909926,199.3777882909926,200.39170841602026,201.22498579102103,201.45865604100982,201.45865604100982,201.45865604100982,202.37843187499675,202.37843187499675,202.37843187499675,202.37843187499675,203.3910741250147,200008,001,2023-04-14_10h30.26.785,DMS_et_12-36,2022.2.4,None,
12,UNPRED,12,1.087335901207669,0,images/picture_1.png,images/picture_1.png,0,"[-11.733433509789466, -11.733433509789462]",-11.733433509789464,-11.733433509789462,images/picture_2.png,1,"[11.733433509789464, 11.733433509789462]",11.733433509789464,11.733433509789462,images/picture_3.png,2,"[-11.733433509789462, 11.733433509789464]",-11.733433509789462,11.733433509789464,0,1,1,1.087335901207669,2.0873359012076693,0.9126640987923308,3.0,1,1.837335901207669,0,4.0,3.0,1,2,1,0,1,0,0,1,1,3,,,,,,,203.3910741250147,203.3910741250147,204.3918160829926,205.22512279101647,205.4783197499928,205.4783197499928,205.4783197499928,206.3913399160083,206.3913399160083,206.3913399160083,206.3913399160083,207.41072254101164,200008,001,2023-04-14_10h30.26.785,DMS_et_12-36,2022.2.4,None,
9,UNPRED,12,1.087335901207669,2,images/picture_3.png,images/picture_1.png,0,"[11.733433509789464, 11.733433509789462]",11.733433509789464,11.733433509789462,images/picture_2.png,1,"[-11.733433509789466, -11.733433509789462]",-11.733433509789464,-11.733433509789462,images/picture_3.png,2,"[11.733433509789462, -11.733433509789466]",11.733433509789462,-11.733433509789464,0,1,1,1.087335901207669,2.0873359012076693,0.9126640987923308,3.0,1,1.837335901207669,0,4.0,3.0,1,2,1,0,1,0,0,2,2,0,,,,,,,207.41072254101164,207.41072254101164,208.42517829101416,209.2584642909933,209.477806083014,209.477806083014,209.477806083014,210.39183283300372,210.39183283300372,210.39183283300372,210.39183283300372,211.39165904099355,200008,001,2023-04-14_10h30.26.785,DMS_et_12-36,2022.2.4,None,
16,UNPRED,12,1.087335901207669,0,images/picture_1.png,images/picture_1.png,0,"[-11.733433509789466, -11.733433509789462]",-11.733433509789464,-11.733433509789462,images/picture_2.png,1,"[-11.733433509789462, 11.733433509789464]",-11.733433509789462,11.733433509789464,images/picture_3.png,2,"[11.733433509789464, 11.733433509789462]",11.733433509789464,11.733433509789462,0,1,1,1.087335901207669,2.0873359012076693,0.9126640987923308,3.0,1,1.837335901207669,0,4.0,3.0,1,2,1,0,1,0,0,3,3,7,,,,,,,211.39165904099355,211.39165904099355,212.39169525000034,213.24459300001035,213.47800883301534,213.47800883301534,213.47800883301534,214.39210833300604,214.39210833300604,214.39210833300604,214.39210833300604,215.39137604099233,200008,001,2023-04-14_10h30.26.785,DMS_et_12-36,2022.2.4,None,
10,UNPRED,12,1.087335901207669,0,images/picture_1.png,images/picture_1.png,0,"[-11.733433509789466, -11.733433509789462]",-11.733433509789464,-11.733433509789462,images/picture_2.png,1,"[-11.733433509789462, 11.733433509789464]",-11.733433509789462,11.733433509789464,images/picture_3.png,2,"[11.733433509789462, -11.733433509789466]",11.733433509789462,-11.733433509789464,0,1,1,1.087335901207669,2.0873359012076693,0.9126640987923308,3.0,1,1.837335901207669,0,4.0,3.0,1,2,1,0,1,0,0,4,4,1,,,,,,,215.39137604099233,215.39137604099233,216.3915779160161,217.24385658299434,217.47800216599717,217.47800216599717,217.47800216599717,218.39167733301292,218.39167733301292,218.39167733301292,218.39167733301292,219.41098474999308,200008,001,2023-04-14_10h30.26.785,DMS_et_12-36,2022.2.4,None,
11,UNPRED,12,1.087335901207669,2,images/picture_3.png,images/picture_1.png,0,"[-11.733433509789466, -11.733433509789462]",-11.733433509789464,-11.733433509789462,images/picture_2.png,1,"[11.733433509789462, -11.733433509789466]",11.733433509789462,-11.733433509789464,images/picture_3.png,2,"[11.733433509789464, 11.733433509789462]",11.733433509789464,11.733433509789462,0,1,1,1.087335901207669,2.0873359012076693,0.9126640987923308,3.0,1,1.837335901207669,0,4.0,3.0,1,2,1,0,1,0,0,5,5,2,,,,,,,219.41098474999308,219.41098474999308,220.42511633300455,221.2584026250115,221.47784366601263,221.47784366601263,221.47784366601263,222.39190295801382,222.39190295801382,222.39190295801382,222.39190295801382,223.4111244160158,200008,001,2023-04-14_10h30.26.785,DMS_et_12-36,2022.2.4,None,
13,UNPRED,12,1.087335901207669,2,images/picture_3.png,images/picture_1.png,0,"[11.733433509789464, 11.733433509789462]",11.733433509789464,11.733433509789462,images/picture_2.png,1,"[11.733433509789462, -11.733433509789466]",11.733433509789462,-11.733433509789464,images/picture_3.png,2,"[-11.733433509789462, 11.733433509789464]",-11.733433509789462,11.733433509789464,0,1,1,1.087335901207669,2.0873359012076693,0.9126640987923308,3.0,1,1.837335901207669,0,4.0,3.0,1,2,1,0,1,0,0,6,6,4,,,,,,,223.4111244160158,223.4111244160158,224.4251870830194,225.2586200000078,225.47832570801256,225.47832570801256,225.47832570801256,226.3918141250033,226.3918141250033,226.3918141250033,226.3918141250033,227.39216612500604,200008,001,2023-04-14_10h30.26.785,DMS_et_12-36,2022.2.4,None,
14,UNPRED,12,1.087335901207669,2,images/picture_3.png,images/picture_1.png,0,"[-11.733433509789466, -11.733433509789462]",-11.733433509789464,-11.733433509789462,images/picture_2.png,1,"[11.733433509789464, 11.733433509789462]",11.733433509789464,11.733433509789462,images/picture_3.png,2,"[-11.733433509789462, 11.733433509789464]",-11.733433509789462,11.733433509789464,0,1,1,1.087335901207669,2.0873359012076693,0.9126640987923308,3.0,1,1.837335901207669,0,4.0,3.0,1,2,1,0,1,0,0,7,7,5,,,,,,,227.39216612500604,227.39216612500604,228.39189129101578,229.2447882910201,229.478387708019,229.478387708019,229.478387708019,230.39194045800832,230.39194045800832,230.39194045800832,230.39194045800832,231.41122641600668,200008,001,2023-04-14_10h30.26.785,DMS_et_12-36,2022.2.4,None,
17,UNPRED,12,1.087335901207669,1,images/picture_2.png,images/picture_1.png,0,"[11.733433509789464, 11.733433509789462]",11.733433509789464,11.733433509789462,images/picture_2.png,1,"[-11.733433509789466, -11.733433509789462]",-11.733433509789464,-11.733433509789462,images/picture_3.png,2,"[-11.733433509789462, 11.733433509789464]",-11.733433509789462,11.733433509789464,0,1,1,1.087335901207669,2.0873359012076693,0.9126640987923308,3.0,1,1.837335901207669,0,4.0,3.0,1,2,1,0,1,0,0,8,8,8,,,,,,,231.41122641600668,231.41122641600668,232.4253486660018,233.2585863750137,233.47802037501242,233.47802037501242,233.47802037501242,234.3920666250051,234.3920666250051,234.3920666250051,234.3920666250051,235.42344616600894,200008,001,2023-04-14_10h30.26.785,DMS_et_12-36,2022.2.4,None,
,,,,,,,,,,,,,,,,,,,,,,,,,,,,,,,,,,,1,0,1,0,,,,,,,,,235.42344616600894,247.44391479101614,,,,,,,,,,,,,200008,001,2023-04-14_10h30.26.785,DMS_et_12-36,2022.2.4,None,
24,PRED,12,1.087335901207669,0,images/picture_1.png,images/picture_1.png,0,"[11.733433509789464, 11.733433509789462]",11.733433509789464,11.733433509789462,images/picture_2.png,1,"[11.733433509789462, -11.733433509789466]",11.733433509789462,-11.733433509789464,images/picture_3.png,2,"[-11.733433509789466, -11.733433509789462]",-11.733433509789464,-11.733433509789462,0,1,1,1.087335901207669,2.0873359012076693,0.9126640987923308,3.0,1,1.837335901207669,0,4.0,3.0,1,2,2,0,2,0,0,0,0,6,,,,,,,247.44391479101614,247.44391479101614,248.45880554101313,249.29192391599645,249.52552887500497,249.52552887500497,249.52552887500497,250.44489499999327,250.44489499999327,250.44489499999327,250.42535208299523,251.42482341601863,200008,001,2023-04-14_10h30.26.785,DMS_et_12-36,2022.2.4,None,
20,PRED,12,1.087335901207669,0,images/picture_1.png,images/picture_1.png,0,"[-11.733433509789462, 11.733433509789464]",-11.733433509789462,11.733433509789464,images/picture_2.png,1,"[11.733433509789462, -11.733433509789466]",11.733433509789462,-11.733433509789464,images/picture_3.png,2,"[-11.733433509789466, -11.733433509789462]",-11.733433509789464,-11.733433509789462,0,1,1,1.087335901207669,2.0873359012076693,0.9126640987923308,3.0,1,1.837335901207669,0,4.0,3.0,1,2,2,0,2,0,0,1,1,2,,,,,,,251.42482341601863,251.42482341601863,252.42537316601374,253.25868950001313,253.51156679101405,253.51156679101405,253.51156679101405,254.42540466602077,254.42540466602077,254.42540466602077,254.42540466602077,255.42495070799487,200008,001,2023-04-14_10h30.26.785,DMS_et_12-36,2022.2.4,None,
18,PRED,12,1.087335901207669,0,images/picture_1.png,images/picture_1.png,0,"[11.733433509789462, -11.733433509789466]",11.733433509789462,-11.733433509789464,images/picture_2.png,1,"[-11.733433509789462, 11.733433509789464]",-11.733433509789462,11.733433509789464,images/picture_3.png,2,"[-11.733433509789466, -11.733433509789462]",-11.733433509789464,-11.733433509789462,0,1,1,1.087335901207669,2.0873359012076693,0.9126640987923308,3.0,1,1.837335901207669,0,4.0,3.0,1,2,2,0,2,0,0,2,2,0,,,,,,,255.42495070799487,255.42495070799487,256.42540991600254,257.27896395800053,257.5111248329922,257.5111248329922,257.5111248329922,258.4250748750055,258.4250748750055,258.4250748750055,258.4250748750055,259.42479612500756,200008,001,2023-04-14_10h30.26.785,DMS_et_12-36,2022.2.4,None,
19,PRED,12,1.087335901207669,0,images/picture_1.png,images/picture_1.png,0,"[-11.733433509789466, -11.733433509789462]",-11.733433509789464,-11.733433509789462,images/picture_2.png,1,"[11.733433509789464, 11.733433509789462]",11.733433509789464,11.733433509789462,images/picture_3.png,2,"[-11.733433509789462, 11.733433509789464]",-11.733433509789462,11.733433509789464,0,1,1,1.087335901207669,2.0873359012076693,0.9126640987923308,3.0,1,1.837335901207669,0,4.0,3.0,1,2,2,0,2,0,0,3,3,1,,,,,,,259.42479612500756,259.42479612500756,260.4254414580064,261.25879795799847,261.5120859580056,261.5120859580056,261.5120859580056,262.4253899579926,262.4253899579926,262.4253899579926,262.4253899579926,263.425071708014,200008,001,2023-04-14_10h30.26.785,DMS_et_12-36,2022.2.4,None,
26,PRED,12,1.087335901207669,0,images/picture_1.png,images/picture_1.png,0,"[-11.733433509789466, -11.733433509789462]",-11.733433509789464,-11.733433509789462,images/picture_2.png,1,"[11.733433509789462, -11.733433509789466]",11.733433509789462,-11.733433509789464,images/picture_3.png,2,"[-11.733433509789462, 11.733433509789464]",-11.733433509789462,11.733433509789464,0,1,1,1.087335901207669,2.0873359012076693,0.9126640987923308,3.0,1,1.837335901207669,0,4.0,3.0,1,2,2,0,2,0,0,4,4,8,,,,,,,263.425071708014,263.425071708014,264.42540433301474,265.2587762500043,265.51154604100157,265.51154604100157,265.51154604100157,266.425471916009,266.425471916009,266.425471916009,266.425471916009,267.4250620410021,200008,001,2023-04-14_10h30.26.785,DMS_et_12-36,2022.2.4,None,
22,PRED,12,1.087335901207669,0,images/picture_1.png,images/picture_1.png,0,"[11.733433509789464, 11.733433509789462]",11.733433509789464,11.733433509789462,images/picture_2.png,1,"[11.733433509789462, -11.733433509789466]",11.733433509789462,-11.733433509789464,images/picture_3.png,2,"[-11.733433509789462, 11.733433509789464]",-11.733433509789462,11.733433509789464,0,1,1,1.087335901207669,2.0873359012076693,0.9126640987923308,3.0,1,1.837335901207669,0,4.0,3.0,1,2,2,0,2,0,0,5,5,4,,,,,,,267.4250620410021,267.4250620410021,268.42519741601427,269.25883279100526,269.5113592080015,269.5113592080015,269.5113592080015,270.4254340000043,270.4254340000043,270.4254340000043,270.4254340000043,271.4247713749937,200008,001,2023-04-14_10h30.26.785,DMS_et_12-36,2022.2.4,None,
23,PRED,12,1.087335901207669,0,images/picture_1.png,images/picture_1.png,0,"[11.733433509789462, -11.733433509789466]",11.733433509789462,-11.733433509789464,images/picture_2.png,1,"[-11.733433509789466, -11.733433509789462]",-11.733433509789464,-11.733433509789462,images/picture_3.png,2,"[11.733433509789464, 11.733433509789462]",11.733433509789464,11.733433509789462,0,1,1,1.087335901207669,2.0873359012076693,0.9126640987923308,3.0,1,1.837335901207669,0,4.0,3.0,1,2,2,0,2,0,0,6,6,5,,,,,,,271.4247713749937,271.4247713749937,272.4254974159994,273.25886804101174,273.5116457910044,273.5116457910044,273.5116457910044,274.42540341601125,274.42540341601125,274.42540341601125,274.42540341601125,275.42515620801714,200008,001,2023-04-14_10h30.26.785,DMS_et_12-36,2022.2.4,None,
21,PRED,12,1.087335901207669,0,images/picture_1.png,images/picture_1.png,0,"[11.733433509789462, -11.733433509789466]",11.733433509789462,-11.733433509789464,images/picture_2.png,1,"[-11.733433509789466, -11.733433509789462]",-11.733433509789464,-11.733433509789462,images/picture_3.png,2,"[11.733433509789464, 11.733433509789462]",11.733433509789464,11.733433509789462,0,1,1,1.087335901207669,2.0873359012076693,0.9126640987923308,3.0,1,1.837335901207669,0,4.0,3.0,1,2,2,0,2,0,0,7,7,3,,,,,,,275.42515620801714,275.42515620801714,276.42547058299533,277.2588038330141,277.5117489580007,277.5117489580007,277.5117489580007,278.4250588330033,278.4250588330033,278.4250588330033,278.4250588330033,279.4249202499923,200008,001,2023-04-14_10h30.26.785,DMS_et_12-36,2022.2.4,None,
25,PRED,12,1.087335901207669,0,images/picture_1.png,images/picture_1.png,0,"[11.733433509789462, -11.733433509789466]",11.733433509789462,-11.733433509789464,images/picture_2.png,1,"[-11.733433509789466, -11.733433509789462]",-11.733433509789464,-11.733433509789462,images/picture_3.png,2,"[11.733433509789464, 11.733433509789462]",11.733433509789464,11.733433509789462,0,1,1,1.087335901207669,2.0873359012076693,0.9126640987923308,3.0,1,1.837335901207669,0,4.0,3.0,1,2,2,0,2,0,0,8,8,7,,,,,,,279.4249202499923,279.4249202499923,280.4254625409958,281.2588657500164,281.51175566599704,281.51175566599704,281.51175566599704,282.42538137501106,282.42538137501106,282.42538137501106,282.42538137501106,283.4669190410059,200008,001,2023-04-14_10h30.26.785,DMS_et_12-36,2022.2.4,None,
,,,,,,,,,,,,,,,,,,,,,,,,,,,,,,,,,,,2,0,2,0,,,,,,,,,283.4669190410059,295.5028854160046,,,,,,,,,,,,,200008,001,2023-04-14_10h30.26.785,DMS_et_12-36,2022.2.4,None,
31,UNPRED,12,1.087335901207669,2,images/picture_3.png,images/picture_1.png,0,"[11.733433509789462, -11.733433509789466]",11.733433509789462,-11.733433509789464,images/picture_2.png,1,"[-11.733433509789466, -11.733433509789462]",-11.733433509789464,-11.733433509789462,images/picture_3.png,2,"[-11.733433509789462, 11.733433509789464]",-11.733433509789462,11.733433509789464,0,1,1,1.087335901207669,2.0873359012076693,0.9126640987923308,3.0,1,1.837335901207669,0,4.0,3.0,1,2,3,0,3,0,0,0,0,4,,,,,,,295.5028854160046,295.5028854160046,296.51171620801324,297.3452477079991,297.578472291003,297.578472291003,297.578472291003,298.4918503329973,298.4918503329973,298.4918503329973,298.4918503329973,299.49244012500276,200008,001,2023-04-14_10h30.26.785,DMS_et_12-36,2022.2.4,None,
30,UNPRED,12,1.087335901207669,2,images/picture_3.png,images/picture_1.png,0,"[-11.733433509789462, 11.733433509789464]",-11.733433509789462,11.733433509789464,images/picture_2.png,1,"[-11.733433509789466, -11.733433509789462]",-11.733433509789464,-11.733433509789462,images/picture_3.png,2,"[11.733433509789462, -11.733433509789466]",11.733433509789462,-11.733433509789464,0,1,1,1.087335901207669,2.0873359012076693,0.9126640987923308,3.0,1,1.837335901207669,0,4.0,3.0,1,2,3,0,3,0,0,1,1,3,,,,,,,299.49244012500276,299.49244012500276,300.49230666601215,301.34514437499456,301.57834979100153,301.57834979100153,301.57834979100153,302.49215941599687,302.49215941599687,302.49215941599687,302.49215941599687,303.49140308299684,200008,001,2023-04-14_10h30.26.785,DMS_et_12-36,2022.2.4,None,
34,UNPRED,12,1.087335901207669,0,images/picture_1.png,images/picture_1.png,0,"[11.733433509789462, -11.733433509789466]",11.733433509789462,-11.733433509789464,images/picture_2.png,1,"[-11.733433509789466, -11.733433509789462]",-11.733433509789464,-11.733433509789462,images/picture_3.png,2,"[-11.733433509789462, 11.733433509789464]",-11.733433509789462,11.733433509789464,0,1,1,1.087335901207669,2.0873359012076693,0.9126640987923308,3.0,1,1.837335901207669,0,4.0,3.0,1,2,3,0,3,0,0,2,2,7,,,,,,,303.49140308299684,303.49140308299684,304.49227904100553,305.32565791599336,305.57844775001286,305.57844775001286,305.57844775001286,306.4925135830126,306.4925135830126,306.4925135830126,306.4925135830126,307.49181545799365,200008,001,2023-04-14_10h30.26.785,DMS_et_12-36,2022.2.4,None,
32,UNPRED,12,1.087335901207669,0,images/picture_1.png,images/picture_1.png,0,"[11.733433509789462, -11.733433509789466]",11.733433509789462,-11.733433509789464,images/picture_2.png,1,"[11.733433509789464, 11.733433509789462]",11.733433509789464,11.733433509789462,images/picture_3.png,2,"[-11.733433509789462, 11.733433509789464]",-11.733433509789462,11.733433509789464,0,1,1,1.087335901207669,2.0873359012076693,0.9126640987923308,3.0,1,1.837335901207669,0,4.0,3.0,1,2,3,0,3,0,0,3,3,5,,,,,,,307.49181545799365,307.49181545799365,308.4922153330117,309.34420333299204,309.5775530830142,309.5775530830142,309.5775530830142,310.492400749994,310.492400749994,310.492400749994,310.492400749994,311.4930571250152,200008,001,2023-04-14_10h30.26.785,DMS_et_12-36,2022.2.4,None,
35,UNPRED,12,1.087335901207669,1,images/picture_2.png,images/picture_1.png,0,"[11.733433509789464, 11.733433509789462]",11.733433509789464,11.733433509789462,images/picture_2.png,1,"[-11.733433509789466, -11.733433509789462]",-11.733433509789464,-11.733433509789462,images/picture_3.png,2,"[11.733433509789462, -11.733433509789466]",11.733433509789462,-11.733433509789464,0,1,1,1.087335901207669,2.0873359012076693,0.9126640987923308,3.0,1,1.837335901207669,0,4.0,3.0,1,2,3,0,3,0,0,4,4,8,,,,,,,311.4930571250152,311.4930571250152,312.49238983300165,313.3450687500008,313.5783794159943,313.5783794159943,313.5783794159943,314.4924022910127,314.4924022910127,314.4924022910127,314.4924022910127,315.49194312500185,200008,001,2023-04-14_10h30.26.785,DMS_et_12-36,2022.2.4,None,
29,UNPRED,12,1.087335901207669,1,images/picture_2.png,images/picture_1.png,0,"[-11.733433509789462, 11.733433509789464]",-11.733433509789462,11.733433509789464,images/picture_2.png,1,"[11.733433509789464, 11.733433509789462]",11.733433509789464,11.733433509789462,images/picture_3.png,2,"[-11.733433509789466, -11.733433509789462]",-11.733433509789464,-11.733433509789462,0,1,1,1.087335901207669,2.0873359012076693,0.9126640987923308,3.0,1,1.837335901207669,0,4.0,3.0,1,2,3,0,3,0,0,5,5,2,,,,,,,315.49194312500185,315.49194312500185,316.492180250003,317.3256749580032,317.57848958301474,317.57848958301474,317.57848958301474,318.4924044159998,318.4924044159998,318.4924044159998,318.4924044159998,319.4920796249935,200008,001,2023-04-14_10h30.26.785,DMS_et_12-36,2022.2.4,None,
27,UNPRED,12,1.087335901207669,1,images/picture_2.png,images/picture_1.png,0,"[11.733433509789464, 11.733433509789462]",11.733433509789464,11.733433509789462,images/picture_2.png,1,"[-11.733433509789466, -11.733433509789462]",-11.733433509789464,-11.733433509789462,images/picture_3.png,2,"[-11.733433509789462, 11.733433509789464]",-11.733433509789462,11.733433509789464,0,1,1,1.087335901207669,2.0873359012076693,0.9126640987923308,3.0,1,1.837335901207669,0,4.0,3.0,1,2,3,0,3,0,0,6,6,0,,,,,,,319.4920796249935,319.4920796249935,320.4923836660164,321.3449902080174,321.5785550409928,321.5785550409928,321.5785550409928,322.49247808300424,322.49247808300424,322.49247808300424,322.49247808300424,323.49187733299914,200008,001,2023-04-14_10h30.26.785,DMS_et_12-36,2022.2.4,None,
28,UNPRED,12,1.087335901207669,1,images/picture_2.png,images/picture_1.png,0,"[11.733433509789462, -11.733433509789466]",11.733433509789462,-11.733433509789464,images/picture_2.png,1,"[-11.733433509789466, -11.733433509789462]",-11.733433509789464,-11.733433509789462,images/picture_3.png,2,"[11.733433509789464, 11.733433509789462]",11.733433509789464,11.733433509789462,0,1,1,1.087335901207669,2.0873359012076693,0.9126640987923308,3.0,1,1.837335901207669,0,4.0,3.0,1,2,3,0,3,0,0,7,7,1,,,,,,,323.49187733299914,323.49187733299914,324.49235479100025,325.3257620410004,325.5781992080156,325.5781992080156,325.5781992080156,326.4923870000057,326.4923870000057,326.4923870000057,326.4923870000057,327.49179145801463,200008,001,2023-04-14_10h30.26.785,DMS_et_12-36,2022.2.4,None,
33,UNPRED,12,1.087335901207669,1,images/picture_2.png,images/picture_1.png,0,"[-11.733433509789462, 11.733433509789464]",-11.733433509789462,11.733433509789464,images/picture_2.png,1,"[-11.733433509789466, -11.733433509789462]",-11.733433509789464,-11.733433509789462,images/picture_3.png,2,"[11.733433509789462, -11.733433509789466]",11.733433509789462,-11.733433509789464,0,1,1,1.087335901207669,2.0873359012076693,0.9126640987923308,3.0,1,1.837335901207669,0,4.0,3.0,1,2,3,0,3,0,0,8,8,6,,,,,,,327.49179145801463,327.49179145801463,328.49237966601504,329.34495787500055,329.5777092500066,329.5777092500066,329.5777092500066,330.4922460410162,330.4922460410162,330.4922460410162,330.4922460410162,331.5465117499989,200008,001,2023-04-14_10h30.26.785,DMS_et_12-36,2022.2.4,None,
,,,,,,,,,,,,,,,,,,,,,,,,,,,,,,,,,,,3,0,3,0,,,,,,,,,331.5465117499989,343.5893694580009,,,,,,,,,,,,,200008,001,2023-04-14_10h30.26.785,DMS_et_12-36,2022.2.4,None,
40,PRED,12,1.087335901207669,2,images/picture_3.png,images/picture_1.png,0,"[-11.733433509789466, -11.733433509789462]",-11.733433509789464,-11.733433509789462,images/picture_2.png,1,"[11.733433509789462, -11.733433509789466]",11.733433509789462,-11.733433509789464,images/picture_3.png,2,"[11.733433509789464, 11.733433509789462]",11.733433509789464,11.733433509789462,0,1,1,1.087335901207669,2.0873359012076693,0.9126640987923308,3.0,1,1.837335901207669,0,4.0,3.0,1,2,4,0,4,0,0,0,0,4,,,,,,,343.5893694580009,343.5893694580009,344.5924280830077,345.4259019580204,345.65891962501337,345.65891962501337,345.65891962501337,346.5790828750178,346.5790828750178,346.5790828750178,346.5790828750178,347.6115214159945,200008,001,2023-04-14_10h30.26.785,DMS_et_12-36,2022.2.4,None,
38,PRED,12,1.087335901207669,2,images/picture_3.png,images/picture_1.png,0,"[11.733433509789462, -11.733433509789466]",11.733433509789462,-11.733433509789464,images/picture_2.png,1,"[-11.733433509789462, 11.733433509789464]",-11.733433509789462,11.733433509789464,images/picture_3.png,2,"[11.733433509789464, 11.733433509789462]",11.733433509789464,11.733433509789462,0,1,1,1.087335901207669,2.0873359012076693,0.9126640987923308,3.0,1,1.837335901207669,0,4.0,3.0,1,2,4,0,4,0,0,1,1,2,,,,,,,347.6115214159945,347.6115214159945,348.62589841600857,349.459113541001,349.6784738750139,349.6784738750139,349.6784738750139,350.5923250830092,350.5923250830092,350.5923250830092,350.5923250830092,351.61140125000384,200008,001,2023-04-14_10h30.26.785,DMS_et_12-36,2022.2.4,None,
41,PRED,12,1.087335901207669,2,images/picture_3.png,images/picture_1.png,0,"[-11.733433509789462, 11.733433509789464]",-11.733433509789462,11.733433509789464,images/picture_2.png,1,"[11.733433509789464, 11.733433509789462]",11.733433509789464,11.733433509789462,images/picture_3.png,2,"[-11.733433509789466, -11.733433509789462]",-11.733433509789464,-11.733433509789462,0,1,1,1.087335901207669,2.0873359012076693,0.9126640987923308,3.0,1,1.837335901207669,0,4.0,3.0,1,2,4,0,4,0,0,2,2,5,,,,,,,351.61140125000384,351.61140125000384,352.626190333016,353.4592018330004,353.6790205000143,353.6790205000143,353.6790205000143,354.5923433749995,354.5923433749995,354.5923433749995,354.5923433749995,355.6116275410168,200008,001,2023-04-14_10h30.26.785,DMS_et_12-36,2022.2.4,None,
37,PRED,12,1.087335901207669,2,images/picture_3.png,images/picture_1.png,0,"[-11.733433509789462, 11.733433509789464]",-11.733433509789462,11.733433509789464,images/picture_2.png,1,"[-11.733433509789466, -11.733433509789462]",-11.733433509789464,-11.733433509789462,images/picture_3.png,2,"[11.733433509789464, 11.733433509789462]",11.733433509789464,11.733433509789462,0,1,1,1.087335901207669,2.0873359012076693,0.9126640987923308,3.0,1,1.837335901207669,0,4.0,3.0,1,2,4,0,4,0,0,3,3,1,,,,,,,355.6116275410168,355.6116275410168,356.62594262501807,357.459251666005,357.67859233301715,357.67859233301715,357.67859233301715,358.5926587909926,358.5926587909926,358.5926587909926,358.5926587909926,359.6133668330149,200008,001,2023-04-14_10h30.26.785,DMS_et_12-36,2022.2.4,None,
39,PRED,12,1.087335901207669,2,images/picture_3.png,images/picture_1.png,0,"[11.733433509789464, 11.733433509789462]",11.733433509789464,11.733433509789462,images/picture_2.png,1,"[-11.733433509789462, 11.733433509789464]",-11.733433509789462,11.733433509789464,images/picture_3.png,2,"[11.733433509789462, -11.733433509789466]",11.733433509789462,-11.733433509789464,0,1,1,1.087335901207669,2.0873359012076693,0.9126640987923308,3.0,1,1.837335901207669,0,4.0,3.0,1,2,4,0,4,0,0,4,4,3,,,,,,,359.6133668330149,359.6133668330149,360.62551166600315,361.4591682910104,361.67870891600614,361.67870891600614,361.67870891600614,362.5924344160012,362.5924344160012,362.5924344160012,362.5924344160012,363.6133502080047,200008,001,2023-04-14_10h30.26.785,DMS_et_12-36,2022.2.4,None,
44,PRED,12,1.087335901207669,2,images/picture_3.png,images/picture_1.png,0,"[11.733433509789462, -11.733433509789466]",11.733433509789462,-11.733433509789464,images/picture_2.png,1,"[-11.733433509789462, 11.733433509789464]",-11.733433509789462,11.733433509789464,images/picture_3.png,2,"[-11.733433509789466, -11.733433509789462]",-11.733433509789464,-11.733433509789462,0,1,1,1.087335901207669,2.0873359012076693,0.9126640987923308,3.0,1,1.837335901207669,0,4.0,3.0,1,2,4,0,4,0,0,5,5,8,,,,,,,363.6133502080047,363.6133502080047,364.62574962500366,365.4593375000113,365.67876737500774,365.67876737500774,365.67876737500774,366.5926244580187,366.5926244580187,366.5926244580187,366.5926244580187,367.611851499998,200008,001,2023-04-14_10h30.26.785,DMS_et_12-36,2022.2.4,None,
43,PRED,12,1.087335901207669,2,images/picture_3.png,images/picture_1.png,0,"[-11.733433509789466, -11.733433509789462]",-11.733433509789464,-11.733433509789462,images/picture_2.png,1,"[-11.733433509789462, 11.733433509789464]",-11.733433509789462,11.733433509789464,images/picture_3.png,2,"[11.733433509789462, -11.733433509789466]",11.733433509789462,-11.733433509789464,0,1,1,1.087335901207669,2.0873359012076693,0.9126640987923308,3.0,1,1.837335901207669,0,4.0,3.0,1,2,4,0,4,0,0,6,6,7,,,,,,,367.611851499998,367.611851499998,368.62586279099924,369.4592217080062,369.6788178330171,369.6788178330171,369.6788178330171,370.5922554160061,370.5922554160061,370.5922554160061,370.5922554160061,371.6117115410161,200008,001,2023-04-14_10h30.26.785,DMS_et_12-36,2022.2.4,None,
42,PRED,12,1.087335901207669,2,images/picture_3.png,images/picture_1.png,0,"[-11.733433509789466, -11.733433509789462]",-11.733433509789464,-11.733433509789462,images/picture_2.png,1,"[11.733433509789462, -11.733433509789466]",11.733433509789462,-11.733433509789464,images/picture_3.png,2,"[-11.733433509789462, 11.733433509789464]",-11.733433509789462,11.733433509789464,0,1,1,1.087335901207669,2.0873359012076693,0.9126640987923308,3.0,1,1.837335901207669,0,4.0,3.0,1,2,4,0,4,0,0,7,7,6,,,,,,,371.6117115410161,371.6117115410161,372.6259658750205,373.4593413330149,373.6785702909983,373.6785702909983,373.6785702909983,374.5927178330021,374.5927178330021,374.5927178330021,374.5927178330021,375.6119886249944,200008,001,2023-04-14_10h30.26.785,DMS_et_12-36,2022.2.4,None,
36,PRED,12,1.087335901207669,2,images/picture_3.png,images/picture_1.png,0,"[-11.733433509789462, 11.733433509789464]",-11.733433509789462,11.733433509789464,images/picture_2.png,1,"[11.733433509789462, -11.733433509789466]",11.733433509789462,-11.733433509789464,images/picture_3.png,2,"[11.733433509789464, 11.733433509789462]",11.733433509789464,11.733433509789462,0,1,1,1.087335901207669,2.0873359012076693,0.9126640987923308,3.0,1,1.837335901207669,0,4.0,3.0,1,2,4,0,4,0,0,8,8,0,,,,,,,375.6119886249944,375.6119886249944,376.62592975000734,377.45943695801543,377.67868791602086,377.67868791602086,377.67868791602086,378.5926053330186,378.5926053330186,378.5926053330186,378.5926053330186,379.6540558330016,200008,001,2023-04-14_10h30.26.785,DMS_et_12-36,2022.2.4,None,
,,,,,,,,,,,,,,,,,,,,,,,,,,,,,,,,,,,4,0,4,0,,,,,,,,,379.6540558330016,391.67811108301976,,,,,,,,,,,,,200008,001,2023-04-14_10h30.26.785,DMS_et_12-36,2022.2.4,None,
53,UNPRED,12,1.087335901207669,2,images/picture_3.png,images/picture_1.png,0,"[-11.733433509789466, -11.733433509789462]",-11.733433509789464,-11.733433509789462,images/picture_2.png,1,"[11.733433509789462, -11.733433509789466]",11.733433509789462,-11.733433509789464,images/picture_3.png,2,"[-11.733433509789462, 11.733433509789464]",-11.733433509789462,11.733433509789464,0,1,1,1.087335901207669,2.0873359012076693,0.9126640987923308,3.0,1,1.837335901207669,0,4.0,3.0,1,2,5,0,5,0,0,0,0,8,,,,,,,391.67811108301976,391.67811108301976,392.6926979160053,393.5260777499934,393.7591074160009,393.7591074160009,393.7591074160009,394.67876966600306,394.67876966600306,394.67876966600306,394.6593715409981,395.6780287080037,200008,001,2023-04-14_10h30.26.785,DMS_et_12-36,2022.2.4,None,
49,UNPRED,12,1.087335901207669,2,images/picture_3.png,images/picture_1.png,0,"[-11.733433509789462, 11.733433509789464]",-11.733433509789462,11.733433509789464,images/picture_2.png,1,"[11.733433509789462, -11.733433509789466]",11.733433509789462,-11.733433509789464,images/picture_3.png,2,"[11.733433509789464, 11.733433509789462]",11.733433509789464,11.733433509789462,0,1,1,1.087335901207669,2.0873359012076693,0.9126640987923308,3.0,1,1.837335901207669,0,4.0,3.0,1,2,5,0,5,0,0,1,1,4,,,,,,,395.6780287080037,395.6780287080037,396.6926585829933,397.5259877500066,397.74562445800984,397.74562445800984,397.74562445800984,398.6593845000025,398.6593845000025,398.6593845000025,398.6593845000025,399.6789677909983,200008,001,2023-04-14_10h30.26.785,DMS_et_12-36,2022.2.4,None,
51,UNPRED,12,1.087335901207669,2,images/picture_3.png,images/picture_1.png,0,"[-11.733433509789466, -11.733433509789462]",-11.733433509789464,-11.733433509789462,images/picture_2.png,1,"[11.733433509789464, 11.733433509789462]",11.733433509789464,11.733433509789462,images/picture_3.png,2,"[11.733433509789462, -11.733433509789466]",11.733433509789462,-11.733433509789464,0,1,1,1.087335901207669,2.0873359012076693,0.9126640987923308,3.0,1,1.837335901207669,0,4.0,3.0,1,2,5,0,5,0,0,2,2,6,,,,,,,399.6789677909983,399.6789677909983,400.69265991600696,401.5257785830181,401.745176041004,401.745176041004,401.745176041004,402.65945191599894,402.65945191599894,402.65945191599894,402.65945191599894,403.65954166601296,200008,001,2023-04-14_10h30.26.785,DMS_et_12-36,2022.2.4,None,
45,UNPRED,12,1.087335901207669,0,images/picture_1.png,images/picture_1.png,0,"[11.733433509789462, -11.733433509789466]",11.733433509789462,-11.733433509789464,images/picture_2.png,1,"[11.733433509789464, 11.733433509789462]",11.733433509789464,11.733433509789462,images/picture_3.png,2,"[-11.733433509789462, 11.733433509789464]",-11.733433509789462,11.733433509789464,0,1,1,1.087335901207669,2.0873359012076693,0.9126640987923308,3.0,1,1.837335901207669,0,4.0,3.0,1,2,5,0,5,0,0,3,3,0,,,,,,,403.65954166601296,403.65954166601296,404.65943741600495,405.51231137500145,405.74540058299317,405.74540058299317,405.74540058299317,406.6595517079986,406.6595517079986,406.6595517079986,406.6595517079986,407.65887412501615,200008,001,2023-04-14_10h30.26.785,DMS_et_12-36,2022.2.4,None,
47,UNPRED,12,1.087335901207669,0,images/picture_1.png,images/picture_1.png,0,"[11.733433509789464, 11.733433509789462]",11.733433509789464,11.733433509789462,images/picture_2.png,1,"[11.733433509789462, -11.733433509789466]",11.733433509789462,-11.733433509789464,images/picture_3.png,2,"[-11.733433509789466, -11.733433509789462]",-11.733433509789464,-11.733433509789462,0,1,1,1.087335901207669,2.0873359012076693,0.9126640987923308,3.0,1,1.837335901207669,0,4.0,3.0,1,2,5,0,5,0,0,4,4,2,,,,,,,407.65887412501615,407.65887412501615,408.65941512500285,409.49267833301565,409.74559354101075,409.74559354101075,409.74559354101075,410.65943033300573,410.65943033300573,410.65943033300573,410.65943033300573,411.65908887499245,200008,001,2023-04-14_10h30.26.785,DMS_et_12-36,2022.2.4,None,
50,UNPRED,12,1.087335901207669,1,images/picture_2.png,images/picture_1.png,0,"[-11.733433509789462, 11.733433509789464]",-11.733433509789462,11.733433509789464,images/picture_2.png,1,"[-11.733433509789466, -11.733433509789462]",-11.733433509789464,-11.733433509789462,images/picture_3.png,2,"[11.733433509789462, -11.733433509789466]",11.733433509789462,-11.733433509789464,0,1,1,1.087335901207669,2.0873359012076693,0.9126640987923308,3.0,1,1.837335901207669,0,4.0,3.0,1,2,5,0,5,0,0,5,5,5,,,,,,,411.65908887499245,411.65908887499245,412.6596225830144,413.49285895799403,413.74553520799964,413.74553520799964,413.74553520799964,414.6594462080102,414.6594462080102,414.6594462080102,414.6594462080102,415.6788485000143,200008,001,2023-04-14_10h30.26.785,DMS_et_12-36,2022.2.4,None,
52,UNPRED,12,1.087335901207669,2,images/picture_3.png,images/picture_1.png,0,"[11.733433509789462, -11.733433509789466]",11.733433509789462,-11.733433509789464,images/picture_2.png,1,"[-11.733433509789466, -11.733433509789462]",-11.733433509789464,-11.733433509789462,images/picture_3.png,2,"[-11.733433509789462, 11.733433509789464]",-11.733433509789462,11.733433509789464,0,1,1,1.087335901207669,2.0873359012076693,0.9126640987923308,3.0,1,1.837335901207669,0,4.0,3.0,1,2,5,0,5,0,0,6,6,7,,,,,,,415.6788485000143,415.6788485000143,416.69288620800944,417.5261369580112,417.7454091249965,417.7454091249965,417.7454091249965,418.6594259580015,418.6594259580015,418.6594259580015,418.6594259580015,419.67844216601225,200008,001,2023-04-14_10h30.26.785,DMS_et_12-36,2022.2.4,None,
48,UNPRED,12,1.087335901207669,2,images/picture_3.png,images/picture_1.png,0,"[-11.733433509789466, -11.733433509789462]",-11.733433509789464,-11.733433509789462,images/picture_2.png,1,"[11.733433509789462, -11.733433509789466]",11.733433509789462,-11.733433509789464,images/picture_3.png,2,"[11.733433509789464, 11.733433509789462]",11.733433509789464,11.733433509789462,0,1,1,1.087335901207669,2.0873359012076693,0.9126640987923308,3.0,1,1.837335901207669,0,4.0,3.0,1,2,5,0,5,0,0,7,7,3,,,,,,,419.67844216601225,419.67844216601225,420.69299095799215,421.5257377079979,421.74483583300025,421.74483583300025,421.74483583300025,422.65946637501474,422.65946637501474,422.65946637501474,422.65946637501474,423.67896862499765,200008,001,2023-04-14_10h30.26.785,DMS_et_12-36,2022.2.4,None,
46,UNPRED,12,1.087335901207669,2,images/picture_3.png,images/picture_1.png,0,"[-11.733433509789466, -11.733433509789462]",-11.733433509789464,-11.733433509789462,images/picture_2.png,1,"[11.733433509789464, 11.733433509789462]",11.733433509789464,11.733433509789462,images/picture_3.png,2,"[11.733433509789462, -11.733433509789466]",11.733433509789462,-11.733433509789464,0,1,1,1.087335901207669,2.0873359012076693,0.9126640987923308,3.0,1,1.837335901207669,0,4.0,3.0,1,2,5,0,5,0,0,8,8,1,,,,,,,423.67896862499765,423.67896862499765,424.6928814580024,425.52614845801145,425.74554854101734,425.74554854101734,425.74554854101734,426.65962312501506,426.65962312501506,426.65962312501506,426.65962312501506,427.7870005830191,200008,001,2023-04-14_10h30.26.785,DMS_et_12-36,2022.2.4,None,
,,,,,,,,,,,,,,,,,,,,,,,,,,,,,,,,,,,5,0,5,0,,,,,,,,,427.7870005830191,439.81521262502065,,,,,,,,,,,,,200008,001,2023-04-14_10h30.26.785,DMS_et_12-36,2022.2.4,None,
54,PRED,12,1.087335901207669,0,images/picture_1.png,images/picture_1.png,0,"[11.733433509789464, 11.733433509789462]",11.733433509789464,11.733433509789462,images/picture_2.png,1,"[-11.733433509789462, 11.733433509789464]",-11.733433509789462,11.733433509789464,images/picture_3.png,2,"[11.733433509789462, -11.733433509789466]",11.733433509789462,-11.733433509789464,0,1,1,1.087335901207669,2.0873359012076693,0.9126640987923308,3.0,1,1.837335901207669,0,4.0,3.0,1,2,6,0,6,0,0,0,0,0,,,,,,,439.81521262502065,439.81521262502065,440.82627120800316,441.6596341250115,441.8929532500042,441.8929532500042,441.8929532500042,442.81165008299286,442.81165008299286,442.81165008299286,442.81165008299286,443.8257162910013,200008,001,2023-04-14_10h30.26.785,DMS_et_12-36,2022.2.4,None,
57,PRED,12,1.087335901207669,0,images/picture_1.png,images/picture_1.png,0,"[-11.733433509789466, -11.733433509789462]",-11.733433509789464,-11.733433509789462,images/picture_2.png,1,"[-11.733433509789462, 11.733433509789464]",-11.733433509789462,11.733433509789464,images/picture_3.png,2,"[11.733433509789464, 11.733433509789462]",11.733433509789464,11.733433509789462,0,1,1,1.087335901207669,2.0873359012076693,0.9126640987923308,3.0,1,1.837335901207669,0,4.0,3.0,1,2,6,0,6,0,0,1,1,3,,,,,,,443.8257162910013,443.8257162910013,444.8263600410137,445.65976462501567,445.91257000001497,445.91257000001497,445.91257000001497,446.82618600002024,446.82618600002024,446.82618600002024,446.82618600002024,447.82604745801655,200008,001,2023-04-14_10h30.26.785,DMS_et_12-36,2022.2.4,None,
60,PRED,12,1.087335901207669,0,images/picture_1.png,images/picture_1.png,0,"[-11.733433509789462, 11.733433509789464]",-11.733433509789462,11.733433509789464,images/picture_2.png,1,"[11.733433509789464, 11.733433509789462]",11.733433509789464,11.733433509789462,images/picture_3.png,2,"[-11.733433509789466, -11.733433509789462]",-11.733433509789464,-11.733433509789462,0,1,1,1.087335901207669,2.0873359012076693,0.9126640987923308,3.0,1,1.837335901207669,0,4.0,3.0,1,2,6,0,6,0,0,2,2,6,,,,,,,447.82604745801655,447.82604745801655,448.8263692909968,449.65958683300414,449.9123212080158,449.9123212080158,449.9123212080158,450.8261457500048,450.8261457500048,450.8261457500048,450.8261457500048,451.82587070800946,200008,001,2023-04-14_10h30.26.785,DMS_et_12-36,2022.2.4,None,
61,PRED,12,1.087335901207669,0,images/picture_1.png,images/picture_1.png,0,"[11.733433509789464, 11.733433509789462]",11.733433509789464,11.733433509789462,images/picture_2.png,1,"[-11.733433509789466, -11.733433509789462]",-11.733433509789464,-11.733433509789462,images/picture_3.png,2,"[11.733433509789462, -11.733433509789466]",11.733433509789462,-11.733433509789464,0,1,1,1.087335901207669,2.0873359012076693,0.9126640987923308,3.0,1,1.837335901207669,0,4.0,3.0,1,2,6,0,6,0,0,3,3,7,,,,,,,451.82587070800946,451.82587070800946,452.826096875011,453.67907287500566,453.912667416007,453.912667416007,453.912667416007,454.8263722080155,454.8263722080155,454.8263722080155,454.8263722080155,455.82594249999966,200008,001,2023-04-14_10h30.26.785,DMS_et_12-36,2022.2.4,None,
62,PRED,12,1.087335901207669,0,images/picture_1.png,images/picture_1.png,0,"[-11.733433509789462, 11.733433509789464]",-11.733433509789462,11.733433509789464,images/picture_2.png,1,"[-11.733433509789466, -11.733433509789462]",-11.733433509789464,-11.733433509789462,images/picture_3.png,2,"[11.733433509789462, -11.733433509789466]",11.733433509789462,-11.733433509789464,0,1,1,1.087335901207669,2.0873359012076693,0.9126640987923308,3.0,1,1.837335901207669,0,4.0,3.0,1,2,6,0,6,0,0,4,4,8,,,,,,,455.82594249999966,455.82594249999966,456.8261982910044,457.659732125001,457.9125353330164,457.9125353330164,457.9125353330164,458.82649008301087,458.82649008301087,458.82649008301087,458.82649008301087,459.82613837500685,200008,001,2023-04-14_10h30.26.785,DMS_et_12-36,2022.2.4,None,
59,PRED,12,1.087335901207669,0,images/picture_1.png,images/picture_1.png,0,"[-11.733433509789466, -11.733433509789462]",-11.733433509789464,-11.733433509789462,images/picture_2.png,1,"[11.733433509789462, -11.733433509789466]",11.733433509789462,-11.733433509789464,images/picture_3.png,2,"[11.733433509789464, 11.733433509789462]",11.733433509789464,11.733433509789462,0,1,1,1.087335901207669,2.0873359012076693,0.9126640987923308,3.0,1,1.837335901207669,0,4.0,3.0,1,2,6,0,6,0,0,5,5,5,,,,,,,459.82613837500685,459.82613837500685,460.8264473750023,461.65966370800743,461.9129024160211,461.9129024160211,461.9129024160211,462.8257760000124,462.8257760000124,462.8257760000124,462.8257760000124,463.825784375018,200008,001,2023-04-14_10h30.26.785,DMS_et_12-36,2022.2.4,None,
58,PRED,12,1.087335901207669,0,images/picture_1.png,images/picture_1.png,0,"[11.733433509789462, -11.733433509789466]",11.733433509789462,-11.733433509789464,images/picture_2.png,1,"[11.733433509789464, 11.733433509789462]",11.733433509789464,11.733433509789462,images/picture_3.png,2,"[-11.733433509789462, 11.733433509789464]",-11.733433509789462,11.733433509789464,0,1,1,1.087335901207669,2.0873359012076693,0.9126640987923308,3.0,1,1.837335901207669,0,4.0,3.0,1,2,6,0,6,0,0,6,6,4,,,,,,,463.825784375018,463.825784375018,464.82621112500783,465.65944583300734,465.91231191600673,465.91231191600673,465.91231191600673,466.82620149999275,466.82620149999275,466.82620149999275,466.82620149999275,467.825675916014,200008,001,2023-04-14_10h30.26.785,DMS_et_12-36,2022.2.4,None,
56,PRED,12,1.087335901207669,0,images/picture_1.png,images/picture_1.png,0,"[-11.733433509789462, 11.733433509789464]",-11.733433509789462,11.733433509789464,images/picture_2.png,1,"[11.733433509789464, 11.733433509789462]",11.733433509789464,11.733433509789462,images/picture_3.png,2,"[-11.733433509789466, -11.733433509789462]",-11.733433509789464,-11.733433509789462,0,1,1,1.087335901207669,2.0873359012076693,0.9126640987923308,3.0,1,1.837335901207669,0,4.0,3.0,1,2,6,0,6,0,0,7,7,2,,,,,,,467.825675916014,467.825675916014,468.8259520000138,469.65939029099536,469.9122658749984,469.9122658749984,469.9122658749984,470.826170165994,470.826170165994,470.826170165994,470.826170165994,471.82590424999944,200008,001,2023-04-14_10h30.26.785,DMS_et_12-36,2022.2.4,None,
55,PRED,12,1.087335901207669,0,images/picture_1.png,images/picture_1.png,0,"[11.733433509789462, -11.733433509789466]",11.733433509789462,-11.733433509789464,images/picture_2.png,1,"[-11.733433509789466, -11.733433509789462]",-11.733433509789464,-11.733433509789462,images/picture_3.png,2,"[11.733433509789464, 11.733433509789462]",11.733433509789464,11.733433509789462,0,1,1,1.087335901207669,2.0873359012076693,0.9126640987923308,3.0,1,1.837335901207669,0,4.0,3.0,1,2,6,0,6,0,0,8,8,1,,,,,,,471.82590424999944,471.82590424999944,472.826099916012,473.67839300000924,473.91174729101476,473.91174729101476,473.91174729101476,474.8262060410052,474.8262060410052,474.8262060410052,474.8262060410052,475.90539641599753,200008,001,2023-04-14_10h30.26.785,DMS_et_12-36,2022.2.4,None,
,,,,,,,,,,,,,,,,,,,,,,,,,,,,,,,,,,,6,0,6,0,,,,,,,,,475.90539641599753,487.9359650000115,,,,,,,,,,,,,200008,001,2023-04-14_10h30.26.785,DMS_et_12-36,2022.2.4,None,
69,UNPRED,12,1.087335901207669,2,images/picture_3.png,images/picture_1.png,0,"[11.733433509789464, 11.733433509789462]",11.733433509789464,11.733433509789462,images/picture_2.png,1,"[11.733433509789462, -11.733433509789466]",11.733433509789462,-11.733433509789464,images/picture_3.png,2,"[-11.733433509789462, 11.733433509789464]",-11.733433509789462,11.733433509789464,0,1,1,1.087335901207669,2.0873359012076693,0.9126640987923308,3.0,1,1.837335901207669,0,4.0,3.0,1,2,7,0,7,0,0,0,0,6,,,,,,,487.9359650000115,487.9359650000115,488.94585408299463,489.7787148329953,490.01181904101395,490.01181904101395,490.01181904101395,490.92612991601345,490.92612991601345,490.92612991601345,490.92612991601345,491.9252576660074,200008,001,2023-04-14_10h30.26.785,DMS_et_12-36,2022.2.4,None,
67,UNPRED,12,1.087335901207669,0,images/picture_1.png,images/picture_1.png,0,"[11.733433509789462, -11.733433509789466]",11.733433509789462,-11.733433509789464,images/picture_2.png,1,"[-11.733433509789462, 11.733433509789464]",-11.733433509789462,11.733433509789464,images/picture_3.png,2,"[-11.733433509789466, -11.733433509789462]",-11.733433509789464,-11.733433509789462,0,1,1,1.087335901207669,2.0873359012076693,0.9126640987923308,3.0,1,1.837335901207669,0,4.0,3.0,1,2,7,0,7,0,0,1,1,4,,,,,,,491.9252576660074,491.9252576660074,492.92616012500366,493.77811341601773,494.0115901250101,494.0115901250101,494.0115901250101,494.92619175001164,494.92619175001164,494.92619175001164,494.92619175001164,495.9261082909943,200008,001,2023-04-14_10h30.26.785,DMS_et_12-36,2022.2.4,None,
66,UNPRED,12,1.087335901207669,1,images/picture_2.png,images/picture_1.png,0,"[11.733433509789464, 11.733433509789462]",11.733433509789464,11.733433509789462,images/picture_2.png,1,"[11.733433509789462, -11.733433509789466]",11.733433509789462,-11.733433509789464,images/picture_3.png,2,"[-11.733433509789462, 11.733433509789464]",-11.733433509789462,11.733433509789464,0,1,1,1.087335901207669,2.0873359012076693,0.9126640987923308,3.0,1,1.837335901207669,0,4.0,3.0,1,2,7,0,7,0,0,2,2,3,,,,,,,495.9261082909943,495.9261082909943,496.9262530830165,497.7596996249922,498.01251454101293,498.01251454101293,498.01251454101293,498.92623970800196,498.92623970800196,498.92623970800196,498.92623970800196,499.9452363330056,200008,001,2023-04-14_10h30.26.785,DMS_et_12-36,2022.2.4,None,
63,UNPRED,12,1.087335901207669,2,images/picture_3.png,images/picture_1.png,0,"[11.733433509789464, 11.733433509789462]",11.733433509789464,11.733433509789462,images/picture_2.png,1,"[-11.733433509789462, 11.733433509789464]",-11.733433509789462,11.733433509789464,images/picture_3.png,2,"[11.733433509789462, -11.733433509789466]",11.733433509789462,-11.733433509789464,0,1,1,1.087335901207669,2.0873359012076693,0.9126640987923308,3.0,1,1.837335901207669,0,4.0,3.0,1,2,7,0,7,0,0,3,3,0,,,,,,,499.9452363330056,499.9452363330056,500.9596434160194,501.7926780830021,502.0124360829941,502.0124360829941,502.0124360829941,502.9263372500136,502.9263372500136,502.9263372500136,502.9263372500136,503.9259793329984,200008,001,2023-04-14_10h30.26.785,DMS_et_12-36,2022.2.4,None,
68,UNPRED,12,1.087335901207669,0,images/picture_1.png,images/picture_1.png,0,"[11.733433509789462, -11.733433509789466]",11.733433509789462,-11.733433509789464,images/picture_2.png,1,"[-11.733433509789466, -11.733433509789462]",-11.733433509789464,-11.733433509789462,images/picture_3.png,2,"[-11.733433509789462, 11.733433509789464]",-11.733433509789462,11.733433509789464,0,1,1,1.087335901207669,2.0873359012076693,0.9126640987923308,3.0,1,1.837335901207669,0,4.0,3.0,1,2,7,0,7,0,0,4,4,5,,,,,,,503.9259793329984,503.9259793329984,504.92617262501153,505.75962575001176,506.0126267080195,506.0126267080195,506.0126267080195,506.9263571250194,506.9263571250194,506.9263571250194,506.9263571250194,507.9452771249926,200008,001,2023-04-14_10h30.26.785,DMS_et_12-36,2022.2.4,None,
70,UNPRED,12,1.087335901207669,2,images/picture_3.png,images/picture_1.png,0,"[-11.733433509789466, -11.733433509789462]",-11.733433509789464,-11.733433509789462,images/picture_2.png,1,"[11.733433509789464, 11.733433509789462]",11.733433509789464,11.733433509789462,images/picture_3.png,2,"[11.733433509789462, -11.733433509789466]",11.733433509789462,-11.733433509789464,0,1,1,1.087335901207669,2.0873359012076693,0.9126640987923308,3.0,1,1.837335901207669,0,4.0,3.0,1,2,7,0,7,0,0,5,5,7,,,,,,,507.9452771249926,507.9452771249926,508.9596789999923,509.79298679099884,510.0125011250202,510.0125011250202,510.0125011250202,510.9262388329953,510.9262388329953,510.9262388329953,510.9262388329953,511.92647408301127,200008,001,2023-04-14_10h30.26.785,DMS_et_12-36,2022.2.4,None,
65,UNPRED,12,1.087335901207669,1,images/picture_2.png,images/picture_1.png,0,"[-11.733433509789466, -11.733433509789462]",-11.733433509789464,-11.733433509789462,images/picture_2.png,1,"[11.733433509789462, -11.733433509789466]",11.733433509789462,-11.733433509789464,images/picture_3.png,2,"[-11.733433509789462, 11.733433509789464]",-11.733433509789462,11.733433509789464,0,1,1,1.087335901207669,2.0873359012076693,0.9126640987923308,3.0,1,1.837335901207669,0,4.0,3.0,1,2,7,0,7,0,0,6,6,2,,,,,,,511.92647408301127,511.92647408301127,512.9264602500189,513.77937462501,514.0115947080194,514.0115947080194,514.0115947080194,514.9260576660163,514.9260576660163,514.9260576660163,514.9260576660163,515.9454366250138,200008,001,2023-04-14_10h30.26.785,DMS_et_12-36,2022.2.4,None,
71,UNPRED,12,1.087335901207669,2,images/picture_3.png,images/picture_1.png,0,"[-11.733433509789462, 11.733433509789464]",-11.733433509789462,11.733433509789464,images/picture_2.png,1,"[-11.733433509789466, -11.733433509789462]",-11.733433509789464,-11.733433509789462,images/picture_3.png,2,"[11.733433509789462, -11.733433509789466]",11.733433509789462,-11.733433509789464,0,1,1,1.087335901207669,2.0873359012076693,0.9126640987923308,3.0,1,1.837335901207669,0,4.0,3.0,1,2,7,0,7,0,0,7,7,8,,,,,,,515.9454366250138,515.9454366250138,516.9597138329991,517.7929454160039,518.0125225000083,518.0125225000083,518.0125225000083,518.9263862500084,518.9263862500084,518.9263862500084,518.9263862500084,519.9257798329927,200008,001,2023-04-14_10h30.26.785,DMS_et_12-36,2022.2.4,None,
64,UNPRED,12,1.087335901207669,0,images/picture_1.png,images/picture_1.png,0,"[-11.733433509789466, -11.733433509789462]",-11.733433509789464,-11.733433509789462,images/picture_2.png,1,"[11.733433509789462, -11.733433509789466]",11.733433509789462,-11.733433509789464,images/picture_3.png,2,"[11.733433509789464, 11.733433509789462]",11.733433509789464,11.733433509789462,0,1,1,1.087335901207669,2.0873359012076693,0.9126640987923308,3.0,1,1.837335901207669,0,4.0,3.0,1,2,7,0,7,0,0,8,8,1,,,,,,,519.9257798329927,519.9257798329927,520.9264121250017,521.7597036249936,522.0127841659996,522.0127841659996,522.0127841659996,522.9264305830002,522.9264305830002,522.9264305830002,522.9264305830002,524.0156125409994,200008,001,2023-04-14_10h30.26.785,DMS_et_12-36,2022.2.4,None,
,,,,,,,,,,,,,,,,,,,,,,,,,,,,,,,,,,,7,0,7,0,,,,,,,,,524.0156125409994,536.0502469160128,,,,,,,,,,,,,200008,001,2023-04-14_10h30.26.785,DMS_et_12-36,2022.2.4,None,
78,PRED,12,1.087335901207669,0,images/picture_1.png,images/picture_1.png,0,"[11.733433509789462, -11.733433509789466]",11.733433509789462,-11.733433509789464,images/picture_2.png,1,"[-11.733433509789466, -11.733433509789462]",-11.733433509789464,-11.733433509789462,images/picture_3.png,2,"[-11.733433509789462, 11.733433509789464]",-11.733433509789462,11.733433509789464,0,1,1,1.087335901207669,2.0873359012076693,0.9126640987923308,3.0,1,1.837335901207669,0,4.0,3.0,1,2,8,0,8,0,0,0,0,6,,,,,,,536.0502469160128,536.0502469160128,537.0598673750064,537.8931350409985,538.1264687080111,538.1264687080111,538.1264687080111,539.0455238750146,539.0455238750146,539.0455238750146,539.0455238750146,540.0592400410096,200008,001,2023-04-14_10h30.26.785,DMS_et_12-36,2022.2.4,None,
75,PRED,12,1.087335901207669,0,images/picture_1.png,images/picture_1.png,0,"[-11.733433509789462, 11.733433509789464]",-11.733433509789462,11.733433509789464,images/picture_2.png,1,"[-11.733433509789466, -11.733433509789462]",-11.733433509789464,-11.733433509789462,images/picture_3.png,2,"[11.733433509789462, -11.733433509789466]",11.733433509789462,-11.733433509789464,0,1,1,1.087335901207669,2.0873359012076693,0.9126640987923308,3.0,1,1.837335901207669,0,4.0,3.0,1,2,8,0,8,0,0,1,1,3,,,,,,,540.0592400410096,540.0592400410096,541.0596979580005,541.8929652080114,542.1460851250158,542.1460851250158,542.1460851250158,543.0599285410135,543.0599285410135,543.0599285410135,543.0599285410135,544.0591628330003,200008,001,2023-04-14_10h30.26.785,DMS_et_12-36,2022.2.4,None,
74,PRED,12,1.087335901207669,0,images/picture_1.png,images/picture_1.png,0,"[11.733433509789464, 11.733433509789462]",11.733433509789464,11.733433509789462,images/picture_2.png,1,"[-11.733433509789462, 11.733433509789464]",-11.733433509789462,11.733433509789464,images/picture_3.png,2,"[-11.733433509789466, -11.733433509789462]",-11.733433509789464,-11.733433509789462,0,1,1,1.087335901207669,2.0873359012076693,0.9126640987923308,3.0,1,1.837335901207669,0,4.0,3.0,1,2,8,0,8,0,0,2,2,2,,,,,,,544.0591628330003,544.0591628330003,545.0594237080077,545.89292475002,546.1460893329931,546.1460893329931,546.1460893329931,547.0596876660129,547.0596876660129,547.0596876660129,547.0596876660129,548.0592401660106,200008,001,2023-04-14_10h30.26.785,DMS_et_12-36,2022.2.4,None,
76,PRED,12,1.087335901207669,0,images/picture_1.png,images/picture_1.png,0,"[-11.733433509789466, -11.733433509789462]",-11.733433509789464,-11.733433509789462,images/picture_2.png,1,"[11.733433509789464, 11.733433509789462]",11.733433509789464,11.733433509789462,images/picture_3.png,2,"[11.733433509789462, -11.733433509789466]",11.733433509789462,-11.733433509789464,0,1,1,1.087335901207669,2.0873359012076693,0.9126640987923308,3.0,1,1.837335901207669,0,4.0,3.0,1,2,8,0,8,0,0,3,3,4,,,,,,,548.0592401660106,548.0592401660106,549.0596880830126,549.8931765000161,550.1460335000011,550.1460335000011,550.1460335000011,551.0598893330025,551.0598893330025,551.0598893330025,551.0598893330025,552.0592560830119,200008,001,2023-04-14_10h30.26.785,DMS_et_12-36,2022.2.4,None,
80,PRED,12,1.087335901207669,0,images/picture_1.png,images/picture_1.png,0,"[11.733433509789464, 11.733433509789462]",11.733433509789464,11.733433509789462,images/picture_2.png,1,"[-11.733433509789466, -11.733433509789462]",-11.733433509789464,-11.733433509789462,images/picture_3.png,2,"[-11.733433509789462, 11.733433509789464]",-11.733433509789462,11.733433509789464,0,1,1,1.087335901207669,2.0873359012076693,0.9126640987923308,3.0,1,1.837335901207669,0,4.0,3.0,1,2,8,0,8,0,0,4,4,8,,,,,,,552.0592560830119,552.0592560830119,553.0599427499983,553.8931527500099,554.1462320830033,554.1462320830033,554.1462320830033,555.0595115410106,555.0595115410106,555.0595115410106,555.0595115410106,556.0594738750078,200008,001,2023-04-14_10h30.26.785,DMS_et_12-36,2022.2.4,None,
79,PRED,12,1.087335901207669,0,images/picture_1.png,images/picture_1.png,0,"[11.733433509789462, -11.733433509789466]",11.733433509789462,-11.733433509789464,images/picture_2.png,1,"[-11.733433509789462, 11.733433509789464]",-11.733433509789462,11.733433509789464,images/picture_3.png,2,"[11.733433509789464, 11.733433509789462]",11.733433509789464,11.733433509789462,0,1,1,1.087335901207669,2.0873359012076693,0.9126640987923308,3.0,1,1.837335901207669,0,4.0,3.0,1,2,8,0,8,0,0,5,5,7,,,,,,,556.0594738750078,556.0594738750078,557.0599361660134,557.8932025830145,558.1462867910159,558.1462867910159,558.1462867910159,559.0599554580112,559.0599554580112,559.0599554580112,559.0599554580112,560.0595425830106,200008,001,2023-04-14_10h30.26.785,DMS_et_12-36,2022.2.4,None,
72,PRED,12,1.087335901207669,0,images/picture_1.png,images/picture_1.png,0,"[-11.733433509789466, -11.733433509789462]",-11.733433509789464,-11.733433509789462,images/picture_2.png,1,"[-11.733433509789462, 11.733433509789464]",-11.733433509789462,11.733433509789464,images/picture_3.png,2,"[11.733433509789464, 11.733433509789462]",11.733433509789464,11.733433509789462,0,1,1,1.087335901207669,2.0873359012076693,0.9126640987923308,3.0,1,1.837335901207669,0,4.0,3.0,1,2,8,0,8,0,0,6,6,0,,,,,,,560.0595425830106,560.0595425830106,561.060006707994,561.9132402499963,562.1462273329962,562.1462273329962,562.1462273329962,563.0600949999935,563.0600949999935,563.0600949999935,563.0600949999935,564.0595555000182,200008,001,2023-04-14_10h30.26.785,DMS_et_12-36,2022.2.4,None,
77,PRED,12,1.087335901207669,0,images/picture_1.png,images/picture_1.png,0,"[-11.733433509789466, -11.733433509789462]",-11.733433509789464,-11.733433509789462,images/picture_2.png,1,"[11.733433509789464, 11.733433509789462]",11.733433509789464,11.733433509789462,images/picture_3.png,2,"[-11.733433509789462, 11.733433509789464]",-11.733433509789462,11.733433509789464,0,1,1,1.087335901207669,2.0873359012076693,0.9126640987923308,3.0,1,1.837335901207669,0,4.0,3.0,1,2,8,0,8,0,0,7,7,5,,,,,,,564.0595555000182,564.0595555000182,565.060011249996,565.9119547909941,566.1450522910163,566.1450522910163,566.1450522910163,567.0599378329935,567.0599378329935,567.0599378329935,567.0599378329935,568.0595334579994,200008,001,2023-04-14_10h30.26.785,DMS_et_12-36,2022.2.4,None,
73,PRED,12,1.087335901207669,0,images/picture_1.png,images/picture_1.png,0,"[-11.733433509789466, -11.733433509789462]",-11.733433509789464,-11.733433509789462,images/picture_2.png,1,"[11.733433509789462, -11.733433509789466]",11.733433509789462,-11.733433509789464,images/picture_3.png,2,"[11.733433509789464, 11.733433509789462]",11.733433509789464,11.733433509789462,0,1,1,1.087335901207669,2.0873359012076693,0.9126640987923308,3.0,1,1.837335901207669,0,4.0,3.0,1,2,8,0,8,0,0,8,8,1,,,,,,,568.0595334579994,568.0595334579994,569.0599058330117,569.893199083017,570.146310415992,570.146310415992,570.146310415992,571.0599298330199,571.0599298330199,571.0599298330199,571.0599298330199,572.1535017499991,200008,001,2023-04-14_10h30.26.785,DMS_et_12-36,2022.2.4,None,
,,,,,,,,,,,,,,,,,,,,,,,,,,,,,,,,,,,8,0,8,0,,,,,,,,,572.1535017499991,584.1809799580078,,,,,,,,,,,,,200008,001,2023-04-14_10h30.26.785,DMS_et_12-36,2022.2.4,None,
89,UNPRED,12,1.087335901207669,0,images/picture_1.png,images/picture_1.png,0,"[-11.733433509789466, -11.733433509789462]",-11.733433509789464,-11.733433509789462,images/picture_2.png,1,"[-11.733433509789462, 11.733433509789464]",-11.733433509789462,11.733433509789464,images/picture_3.png,2,"[11.733433509789464, 11.733433509789462]",11.733433509789464,11.733433509789462,0,1,1,1.087335901207669,2.0873359012076693,0.9126640987923308,3.0,1,1.837335901207669,0,4.0,3.0,1,2,9,0,9,0,0,0,0,8,,,,,,,584.1809799580078,584.1809799580078,585.1931357909925,586.0262970410113,586.2596552910109,586.2596552910109,586.2596552910109,587.179685250012,587.179685250012,587.179685250012,587.179685250012,588.1930986249936,200008,001,2023-04-14_10h30.26.785,DMS_et_12-36,2022.2.4,None,
86,UNPRED,12,1.087335901207669,1,images/picture_2.png,images/picture_1.png,0,"[11.733433509789464, 11.733433509789462]",11.733433509789464,11.733433509789462,images/picture_2.png,1,"[11.733433509789462, -11.733433509789466]",11.733433509789462,-11.733433509789464,images/picture_3.png,2,"[-11.733433509789462, 11.733433509789464]",-11.733433509789462,11.733433509789464,0,1,1,1.087335901207669,2.0873359012076693,0.9126640987923308,3.0,1,1.837335901207669,0,4.0,3.0,1,2,9,0,9,0,0,1,1,5,,,,,,,588.1930986249936,588.1930986249936,589.1932695409923,590.0266407910094,590.2795425000077,590.2795425000077,590.2795425000077,591.1933362910058,591.1933362910058,591.1933362910058,591.1933362910058,592.2125340409984,200008,001,2023-04-14_10h30.26.785,DMS_et_12-36,2022.2.4,None,
88,UNPRED,12,1.087335901207669,2,images/picture_3.png,images/picture_1.png,0,"[-11.733433509789466, -11.733433509789462]",-11.733433509789464,-11.733433509789462,images/picture_2.png,1,"[11.733433509789464, 11.733433509789462]",11.733433509789464,11.733433509789462,images/picture_3.png,2,"[-11.733433509789462, 11.733433509789464]",-11.733433509789462,11.733433509789464,0,1,1,1.087335901207669,2.0873359012076693,0.9126640987923308,3.0,1,1.837335901207669,0,4.0,3.0,1,2,9,0,9,0,0,2,2,7,,,,,,,592.2125340409984,592.2125340409984,593.2266676659929,594.0601360830187,594.280179333,594.280179333,594.280179333,595.1936090830131,595.1936090830131,595.1936090830131,595.1936090830131,596.1937111660081,200008,001,2023-04-14_10h30.26.785,DMS_et_12-36,2022.2.4,None,
84,UNPRED,12,1.087335901207669,2,images/picture_3.png,images/picture_1.png,0,"[11.733433509789462, -11.733433509789466]",11.733433509789462,-11.733433509789464,images/picture_2.png,1,"[-11.733433509789462, 11.733433509789464]",-11.733433509789462,11.733433509789464,images/picture_3.png,2,"[11.733433509789464, 11.733433509789462]",11.733433509789464,11.733433509789462,0,1,1,1.087335901207669,2.0873359012076693,0.9126640987923308,3.0,1,1.837335901207669,0,4.0,3.0,1,2,9,0,9,0,0,3,3,3,,,,,,,596.1937111660081,596.1937111660081,597.1931867499952,598.0462760830123,598.2792328330106,598.2792328330106,598.2792328330106,599.1934905000089,599.1934905000089,599.1934905000089,599.1934905000089,600.1923754580203,200008,001,2023-04-14_10h30.26.785,DMS_et_12-36,2022.2.4,None,
85,UNPRED,12,1.087335901207669,0,images/picture_1.png,images/picture_1.png,0,"[-11.733433509789462, 11.733433509789464]",-11.733433509789462,11.733433509789464,images/picture_2.png,1,"[11.733433509789462, -11.733433509789466]",11.733433509789462,-11.733433509789464,images/picture_3.png,2,"[-11.733433509789466, -11.733433509789462]",-11.733433509789464,-11.733433509789462,0,1,1,1.087335901207669,2.0873359012076693,0.9126640987923308,3.0,1,1.837335901207669,0,4.0,3.0,1,2,9,0,9,0,0,4,4,4,,,,,,,600.1923754580203,600.1923754580203,601.1931819159945,602.0266549579974,602.2796590409998,602.2796590409998,602.2796590409998,603.1934192500194,603.1934192500194,603.1934192500194,603.1934192500194,604.1925214999937,200008,001,2023-04-14_10h30.26.785,DMS_et_12-36,2022.2.4,None,
83,UNPRED,12,1.087335901207669,1,images/picture_2.png,images/picture_1.png,0,"[-11.733433509789466, -11.733433509789462]",-11.733433509789464,-11.733433509789462,images/picture_2.png,1,"[11.733433509789462, -11.733433509789466]",11.733433509789462,-11.733433509789464,images/picture_3.png,2,"[11.733433509789464, 11.733433509789462]",11.733433509789464,11.733433509789462,0,1,1,1.087335901207669,2.0873359012076693,0.9126640987923308,3.0,1,1.837335901207669,0,4.0,3.0,1,2,9,0,9,0,0,5,5,2,,,,,,,604.1925214999937,604.1925214999937,605.193194833002,606.0267643330153,606.2790128750203,606.2790128750203,606.2790128750203,607.1929975410167,607.1929975410167,607.1929975410167,607.1929975410167,608.2123756250076,200008,001,2023-04-14_10h30.26.785,DMS_et_12-36,2022.2.4,None,
81,UNPRED,12,1.087335901207669,2,images/picture_3.png,images/picture_1.png,0,"[-11.733433509789462, 11.733433509789464]",-11.733433509789462,11.733433509789464,images/picture_2.png,1,"[11.733433509789462, -11.733433509789466]",11.733433509789462,-11.733433509789464,images/picture_3.png,2,"[-11.733433509789466, -11.733433509789462]",-11.733433509789464,-11.733433509789462,0,1,1,1.087335901207669,2.0873359012076693,0.9126640987923308,3.0,1,1.837335901207669,0,4.0,3.0,1,2,9,0,9,0,0,6,6,0,,,,,,,608.2123756250076,608.2123756250076,609.2268422500056,610.0601143749955,610.2796709579998,610.2796709579998,610.2796709579998,611.1934464160004,611.1934464160004,611.1934464160004,611.1934464160004,612.2123488750076,200008,001,2023-04-14_10h30.26.785,DMS_et_12-36,2022.2.4,None,
82,UNPRED,12,1.087335901207669,2,images/picture_3.png,images/picture_1.png,0,"[-11.733433509789462, 11.733433509789464]",-11.733433509789462,11.733433509789464,images/picture_2.png,1,"[-11.733433509789466, -11.733433509789462]",-11.733433509789464,-11.733433509789462,images/picture_3.png,2,"[11.733433509789462, -11.733433509789466]",11.733433509789462,-11.733433509789464,0,1,1,1.087335901207669,2.0873359012076693,0.9126640987923308,3.0,1,1.837335901207669,0,4.0,3.0,1,2,9,0,9,0,0,7,7,1,,,,,,,612.2123488750076,612.2123488750076,613.2266578330018,614.0599283330084,614.2797462080198,614.2797462080198,614.2797462080198,615.1934017080057,615.1934017080057,615.1934017080057,615.1934017080057,616.2121037080069,200008,001,2023-04-14_10h30.26.785,DMS_et_12-36,2022.2.4,None,
87,UNPRED,12,1.087335901207669,2,images/picture_3.png,images/picture_1.png,0,"[-11.733433509789462, 11.733433509789464]",-11.733433509789462,11.733433509789464,images/picture_2.png,1,"[11.733433509789464, 11.733433509789462]",11.733433509789464,11.733433509789462,images/picture_3.png,2,"[11.733433509789462, -11.733433509789466]",11.733433509789462,-11.733433509789464,0,1,1,1.087335901207669,2.0873359012076693,0.9126640987923308,3.0,1,1.837335901207669,0,4.0,3.0,1,2,9,0,9,0,0,8,8,6,,,,,,,616.2121037080069,616.2121037080069,617.2264112080156,618.0601358750137,618.2799145000172,618.2799145000172,618.2799145000172,619.1934190409956,619.1934190409956,619.1934190409956,619.1934190409956,620.2961561249977,200008,001,2023-04-14_10h30.26.785,DMS_et_12-36,2022.2.4,None,
,,,,,,,,,,,,,,,,,,,,,,,,,,,,,,,,,,,9,0,9,0,,,,,,,,,620.2961561249977,632.325016250019,,,,,,,,,,,,,200008,001,2023-04-14_10h30.26.785,DMS_et_12-36,2022.2.4,None,
92,PRED,12,1.087335901207669,2,images/picture_3.png,images/picture_1.png,0,"[-11.733433509789466, -11.733433509789462]",-11.733433509789464,-11.733433509789462,images/picture_2.png,1,"[11.733433509789464, 11.733433509789462]",11.733433509789464,11.733433509789462,images/picture_3.png,2,"[11.733433509789462, -11.733433509789466]",11.733433509789462,-11.733433509789464,0,1,1,1.087335901207669,2.0873359012076693,0.9126640987923308,3.0,1,1.837335901207669,0,4.0,3.0,1,2,10,0,10,0,0,0,0,2,,,,,,,632.325016250019,632.325016250019,633.3268198330188,634.1602586249937,634.3933765830006,634.3933765830006,634.3933765830006,635.3128980000038,635.3128980000038,635.3128980000038,635.3128980000038,636.3455012500053,200008,001,2023-04-14_10h30.26.785,DMS_et_12-36,2022.2.4,None,
93,PRED,12,1.087335901207669,2,images/picture_3.png,images/picture_1.png,0,"[11.733433509789464, 11.733433509789462]",11.733433509789464,11.733433509789462,images/picture_2.png,1,"[11.733433509789462, -11.733433509789466]",11.733433509789462,-11.733433509789464,images/picture_3.png,2,"[-11.733433509789466, -11.733433509789462]",-11.733433509789464,-11.733433509789462,0,1,1,1.087335901207669,2.0873359012076693,0.9126640987923308,3.0,1,1.837335901207669,0,4.0,3.0,1,2,10,0,10,0,0,1,1,3,,,,,,,636.3455012500053,636.3455012500053,637.3596933750086,638.1935385410034,638.4128971250029,638.4128971250029,638.4128971250029,639.3267773330153,639.3267773330153,639.3267773330153,639.3267773330153,640.3456549580151,200008,001,2023-04-14_10h30.26.785,DMS_et_12-36,2022.2.4,None,
95,PRED,12,1.087335901207669,2,images/picture_3.png,images/picture_1.png,0,"[-11.733433509789462, 11.733433509789464]",-11.733433509789462,11.733433509789464,images/picture_2.png,1,"[11.733433509789464, 11.733433509789462]",11.733433509789464,11.733433509789462,images/picture_3.png,2,"[-11.733433509789466, -11.733433509789462]",-11.733433509789464,-11.733433509789462,0,1,1,1.087335901207669,2.0873359012076693,0.9126640987923308,3.0,1,1.837335901207669,0,4.0,3.0,1,2,10,0,10,0,0,2,2,5,,,,,,,640.3456549580151,640.3456549580151,641.3601640000124,642.1935741660127,642.4126476249949,642.4126476249949,642.4126476249949,643.3267432080174,643.3267432080174,643.3267432080174,643.3267432080174,644.3460154999921,200008,001,2023-04-14_10h30.26.785,DMS_et_12-36,2022.2.4,None,
94,PRED,12,1.087335901207669,2,images/picture_3.png,images/picture_1.png,0,"[11.733433509789462, -11.733433509789466]",11.733433509789462,-11.733433509789464,images/picture_2.png,1,"[-11.733433509789462, 11.733433509789464]",-11.733433509789462,11.733433509789464,images/picture_3.png,2,"[-11.733433509789466, -11.733433509789462]",-11.733433509789464,-11.733433509789462,0,1,1,1.087335901207669,2.0873359012076693,0.9126640987923308,3.0,1,1.837335901207669,0,4.0,3.0,1,2,10,0,10,0,0,3,3,4,,,,,,,644.3460154999921,644.3460154999921,645.3601849160041,646.1934412080154,646.4125994160131,646.4125994160131,646.4125994160131,647.3265901250124,647.3265901250124,647.3265901250124,647.3265901250124,648.3457707909984,200008,001,2023-04-14_10h30.26.785,DMS_et_12-36,2022.2.4,None,
90,PRED,12,1.087335901207669,2,images/picture_3.png,images/picture_1.png,0,"[-11.733433509789462, 11.733433509789464]",-11.733433509789462,11.733433509789464,images/picture_2.png,1,"[11.733433509789462, -11.733433509789466]",11.733433509789462,-11.733433509789464,images/picture_3.png,2,"[11.733433509789464, 11.733433509789462]",11.733433509789464,11.733433509789462,0,1,1,1.087335901207669,2.0873359012076693,0.9126640987923308,3.0,1,1.837335901207669,0,4.0,3.0,1,2,10,0,10,0,0,4,4,0,,,,,,,648.3457707909984,648.3457707909984,649.3601346249925,650.1934154159972,650.4132607080101,650.4132607080101,650.4132607080101,651.3268489160109,651.3268489160109,651.3268489160109,651.3268489160109,652.3457805830112,200008,001,2023-04-14_10h30.26.785,DMS_et_12-36,2022.2.4,None,
96,PRED,12,1.087335901207669,2,images/picture_3.png,images/picture_1.png,0,"[-11.733433509789466, -11.733433509789462]",-11.733433509789464,-11.733433509789462,images/picture_2.png,1,"[11.733433509789464, 11.733433509789462]",11.733433509789464,11.733433509789462,images/picture_3.png,2,"[-11.733433509789462, 11.733433509789464]",-11.733433509789462,11.733433509789464,0,1,1,1.087335901207669,2.0873359012076693,0.9126640987923308,3.0,1,1.837335901207669,0,4.0,3.0,1,2,10,0,10,0,0,5,5,6,,,,,,,652.3457805830112,652.3457805830112,653.3602805410046,654.1936978750164,654.4128115829953,654.4128115829953,654.4128115829953,655.3269022500026,655.3269022500026,655.3269022500026,655.3269022500026,656.3455309160054,200008,001,2023-04-14_10h30.26.785,DMS_et_12-36,2022.2.4,None,
91,PRED,12,1.087335901207669,2,images/picture_3.png,images/picture_1.png,0,"[11.733433509789464, 11.733433509789462]",11.733433509789464,11.733433509789462,images/picture_2.png,1,"[11.733433509789462, -11.733433509789466]",11.733433509789462,-11.733433509789464,images/picture_3.png,2,"[-11.733433509789466, -11.733433509789462]",-11.733433509789464,-11.733433509789462,0,1,1,1.087335901207669,2.0873359012076693,0.9126640987923308,3.0,1,1.837335901207669,0,4.0,3.0,1,2,10,0,10,0,0,6,6,1,,,,,,,656.3455309160054,656.3455309160054,657.3601447500114,658.1931970830192,658.4121428329963,658.4121428329963,658.4121428329963,659.3269039580191,659.3269039580191,659.3269039580191,659.3269039580191,660.3459681250097,200008,001,2023-04-14_10h30.26.785,DMS_et_12-36,2022.2.4,None,
98,PRED,12,1.087335901207669,2,images/picture_3.png,images/picture_1.png,0,"[-11.733433509789462, 11.733433509789464]",-11.733433509789462,11.733433509789464,images/picture_2.png,1,"[11.733433509789464, 11.733433509789462]",11.733433509789464,11.733433509789462,images/picture_3.png,2,"[11.733433509789462, -11.733433509789466]",11.733433509789462,-11.733433509789464,0,1,1,1.087335901207669,2.0873359012076693,0.9126640987923308,3.0,1,1.837335901207669,0,4.0,3.0,1,2,10,0,10,0,0,7,7,8,,,,,,,660.3459681250097,660.3459681250097,661.3601525410195,662.1936440410209,662.4137660830165,662.4137660830165,662.4137660830165,663.3268657500157,663.3268657500157,663.3268657500157,663.3268657500157,664.3457457910117,200008,001,2023-04-14_10h30.26.785,DMS_et_12-36,2022.2.4,None,
97,PRED,12,1.087335901207669,2,images/picture_3.png,images/picture_1.png,0,"[11.733433509789464, 11.733433509789462]",11.733433509789464,11.733433509789462,images/picture_2.png,1,"[11.733433509789462, -11.733433509789466]",11.733433509789462,-11.733433509789464,images/picture_3.png,2,"[-11.733433509789462, 11.733433509789464]",-11.733433509789462,11.733433509789464,0,1,1,1.087335901207669,2.0873359012076693,0.9126640987923308,3.0,1,1.837335901207669,0,4.0,3.0,1,2,10,0,10,0,0,8,8,7,,,,,,,664.3457457910117,664.3457457910117,665.3602856250072,666.1934801250172,666.4133289580059,666.4133289580059,666.4133289580059,667.3267992500041,667.3267992500041,667.3267992500041,667.3267992500041,668.4233560000139,200008,001,2023-04-14_10h30.26.785,DMS_et_12-36,2022.2.4,None,
,,,,,,,,,,,,,,,,,,,,,,,,,,,,,,,,,,,10,0,10,0,,,,,,,,,668.4233560000139,680.4530703750206,,,,,,,,,,,,,200008,001,2023-04-14_10h30.26.785,DMS_et_12-36,2022.2.4,None,
102,UNPRED,12,1.087335901207669,1,images/picture_2.png,images/picture_1.png,0,"[11.733433509789462, -11.733433509789466]",11.733433509789462,-11.733433509789464,images/picture_2.png,1,"[-11.733433509789466, -11.733433509789462]",-11.733433509789464,-11.733433509789462,images/picture_3.png,2,"[-11.733433509789462, 11.733433509789464]",-11.733433509789462,11.733433509789464,0,1,1,1.087335901207669,2.0873359012076693,0.9126640987923308,3.0,1,1.837335901207669,0,4.0,3.0,1,2,11,0,11,0,0,0,0,3,,,,,,,680.4530703750206,680.4530703750206,681.4601775830088,682.293652124994,682.5269050830102,682.5269050830102,682.5269050830102,683.4468797910085,683.4468797910085,683.4468797910085,683.4468797910085,684.4795857499994,200008,001,2023-04-14_10h30.26.785,DMS_et_12-36,2022.2.4,None,
100,UNPRED,12,1.087335901207669,2,images/picture_3.png,images/picture_1.png,0,"[11.733433509789464, 11.733433509789462]",11.733433509789464,11.733433509789462,images/picture_2.png,1,"[11.733433509789462, -11.733433509789466]",11.733433509789462,-11.733433509789464,images/picture_3.png,2,"[-11.733433509789466, -11.733433509789462]",-11.733433509789464,-11.733433509789462,0,1,1,1.087335901207669,2.0873359012076693,0.9126640987923308,3.0,1,1.837335901207669,0,4.0,3.0,1,2,11,0,11,0,0,1,1,1,,,,,,,684.4795857499994,684.4795857499994,685.4937477080093,686.3269346659945,686.5470279160072,686.5470279160072,686.5470279160072,687.4603648750053,687.4603648750053,687.4603648750053,687.4603648750053,688.478702583001,200008,001,2023-04-14_10h30.26.785,DMS_et_12-36,2022.2.4,None,
99,UNPRED,12,1.087335901207669,2,images/picture_3.png,images/picture_1.png,0,"[11.733433509789464, 11.733433509789462]",11.733433509789464,11.733433509789462,images/picture_2.png,1,"[-11.733433509789466, -11.733433509789462]",-11.733433509789464,-11.733433509789462,images/picture_3.png,2,"[-11.733433509789462, 11.733433509789464]",-11.733433509789462,11.733433509789464,0,1,1,1.087335901207669,2.0873359012076693,0.9126640987923308,3.0,1,1.837335901207669,0,4.0,3.0,1,2,11,0,11,0,0,2,2,0,,,,,,,688.478702583001,688.478702583001,689.4935408750025,690.3268995830149,690.5468427500164,690.5468427500164,690.5468427500164,691.4604226250085,691.4604226250085,691.4604226250085,691.4604226250085,692.4608558329928,200008,001,2023-04-14_10h30.26.785,DMS_et_12-36,2022.2.4,None,
104,UNPRED,12,1.087335901207669,1,images/picture_2.png,images/picture_1.png,0,"[11.733433509789464, 11.733433509789462]",11.733433509789464,11.733433509789462,images/picture_2.png,1,"[11.733433509789462, -11.733433509789466]",11.733433509789462,-11.733433509789464,images/picture_3.png,2,"[-11.733433509789462, 11.733433509789464]",-11.733433509789462,11.733433509789464,0,1,1,1.087335901207669,2.0873359012076693,0.9126640987923308,3.0,1,1.837335901207669,0,4.0,3.0,1,2,11,0,11,0,0,3,3,5,,,,,,,692.4608558329928,692.4608558329928,693.4603653750091,694.3133971250209,694.5469172500016,694.5469172500016,694.5469172500016,695.460276333004,695.460276333004,695.460276333004,695.460276333004,696.4596374999965,200008,001,2023-04-14_10h30.26.785,DMS_et_12-36,2022.2.4,None,
105,UNPRED,12,1.087335901207669,0,images/picture_1.png,images/picture_1.png,0,"[-11.733433509789462, 11.733433509789464]",-11.733433509789462,11.733433509789464,images/picture_2.png,1,"[11.733433509789462, -11.733433509789466]",11.733433509789462,-11.733433509789464,images/picture_3.png,2,"[11.733433509789464, 11.733433509789462]",11.733433509789464,11.733433509789462,0,1,1,1.087335901207669,2.0873359012076693,0.9126640987923308,3.0,1,1.837335901207669,0,4.0,3.0,1,2,11,0,11,0,0,4,4,6,,,,,,,696.4596374999965,696.4596374999965,697.4604161250172,698.2937257500016,698.5456667499966,698.5456667499966,698.5456667499966,699.4601458749967,699.4601458749967,699.4601458749967,699.4601458749967,700.4594221659936,200008,001,2023-04-14_10h30.26.785,DMS_et_12-36,2022.2.4,None,
101,UNPRED,12,1.087335901207669,1,images/picture_2.png,images/picture_1.png,0,"[-11.733433509789462, 11.733433509789464]",-11.733433509789462,11.733433509789464,images/picture_2.png,1,"[11.733433509789462, -11.733433509789466]",11.733433509789462,-11.733433509789464,images/picture_3.png,2,"[-11.733433509789466, -11.733433509789462]",-11.733433509789464,-11.733433509789462,0,1,1,1.087335901207669,2.0873359012076693,0.9126640987923308,3.0,1,1.837335901207669,0,4.0,3.0,1,2,11,0,11,0,0,5,5,2,,,,,,,700.4594221659936,700.4594221659936,701.4603592909989,702.2936829579994,702.5467312080145,702.5467312080145,702.5467312080145,703.460461041017,703.460461041017,703.460461041017,703.460461041017,704.4599061660119,200008,001,2023-04-14_10h30.26.785,DMS_et_12-36,2022.2.4,None,
103,UNPRED,12,1.087335901207669,0,images/picture_1.png,images/picture_1.png,0,"[11.733433509789462, -11.733433509789466]",11.733433509789462,-11.733433509789464,images/picture_2.png,1,"[-11.733433509789462, 11.733433509789464]",-11.733433509789462,11.733433509789464,images/picture_3.png,2,"[11.733433509789464, 11.733433509789462]",11.733433509789464,11.733433509789462,0,1,1,1.087335901207669,2.0873359012076693,0.9126640987923308,3.0,1,1.837335901207669,0,4.0,3.0,1,2,11,0,11,0,0,6,6,4,,,,,,,704.4599061660119,704.4599061660119,705.4605081659975,706.2936758750002,706.5463309159968,706.5463309159968,706.5463309159968,707.4604046659952,707.4604046659952,707.4604046659952,707.4604046659952,708.4595057080151,200008,001,2023-04-14_10h30.26.785,DMS_et_12-36,2022.2.4,None,
106,UNPRED,12,1.087335901207669,1,images/picture_2.png,images/picture_1.png,0,"[-11.733433509789462, 11.733433509789464]",-11.733433509789462,11.733433509789464,images/picture_2.png,1,"[11.733433509789464, 11.733433509789462]",11.733433509789464,11.733433509789462,images/picture_3.png,2,"[11.733433509789462, -11.733433509789466]",11.733433509789462,-11.733433509789464,0,1,1,1.087335901207669,2.0873359012076693,0.9126640987923308,3.0,1,1.837335901207669,0,4.0,3.0,1,2,11,0,11,0,0,7,7,7,,,,,,,708.4595057080151,708.4595057080151,709.4600530000171,710.2937343750091,710.5469165410032,710.5469165410032,710.5469165410032,711.4604282499931,711.4604282499931,711.4604282499931,711.4604282499931,712.4797357500065,200008,001,2023-04-14_10h30.26.785,DMS_et_12-36,2022.2.4,None,
107,UNPRED,12,1.087335901207669,2,images/picture_3.png,images/picture_1.png,0,"[11.733433509789462, -11.733433509789466]",11.733433509789462,-11.733433509789464,images/picture_2.png,1,"[11.733433509789464, 11.733433509789462]",11.733433509789464,11.733433509789462,images/picture_3.png,2,"[-11.733433509789466, -11.733433509789462]",-11.733433509789464,-11.733433509789462,0,1,1,1.087335901207669,2.0873359012076693,0.9126640987923308,3.0,1,1.837335901207669,0,4.0,3.0,1,2,11,0,11,0,0,8,8,8,,,,,,,712.4797357500065,712.4797357500065,713.4938357910141,714.3270820410107,714.546492916008,714.546492916008,714.546492916008,715.4604503330193,715.4604503330193,715.4604503330193,715.4604503330193,716.6267785410164,200008,001,2023-04-14_10h30.26.785,DMS_et_12-36,2022.2.4,None,
,,,,,,,,,,,,,,,,,,,,,,,,,,,,,,,,,,,11,0,11,0,,,,,,,,,716.6267785410164,728.757849540998,,,,,,,,,,,,,200008,001,2023-04-14_10h30.26.785,DMS_et_12-36,2022.2.4,None,
,,,,,,,,,,,,,,,,,,,,,,,,,,,,,,,,,,,,,,,,,,,,,,,728.757849540998,741.2887079580105,,,,,,,,,,,,,,,,,,,
