trial_count,blockType,blockNum,delay_time,stimImage_i,stimImage,responseImage1,responseImage1_i,responseImage1_pos,responseImage1_X,responseImage1_Y,responseImage2,responseImage2_i,responseImage2_pos,responseImage2_X,responseImage2_Y,responseImage3,responseImage3_i,responseImage3_pos,responseImage3_X,responseImage3_Y,cue_onset,cue_dur,delay_onset,delay_dur,resp_onset,resp_dur,rest_onset,rest_dur,circle_dur,circle_onset,total_dur,cross_onset,cross_dur,delay_resp_period,blocks.thisRepN,blocks.thisTrialN,blocks.thisN,blocks.thisIndex,trials.thisRepN,trials.thisTrialN,trials.thisN,trials.thisIndex,key_resp.started,text.started,key_resp.keys,key_resp.rt,text_2.started,text_2.stopped,sample.started,Delay.started,sample.stopped,Delay.stopped,Response_1.started,Response_2.started,Response_3.started,Response_1.stopped,Response_2.stopped,Response_3.stopped,polygon.started,polygon.stopped,participant,session,date,expName,psychopyVersion,frameRate,
,,,,,,,,,,,,,,,,,,,,,,,,,,,,,,,,,,,,,,,,,,,91.31620549999934,91.31620549999934,t,64.27675037499284,,,,,,,,,,,,,,,200003,305,2023-04-07_13h31.26.599,DMS_et_12-36,2022.2.4,None,
8,PRED,12,1.1190475887562217,2,images/picture_3.png,images/picture_1.png,0,"[-11.733433509789466, -11.733433509789462]",-11.733433509789464,-11.733433509789462,images/picture_2.png,1,"[11.733433509789464, 11.733433509789462]",11.733433509789464,11.733433509789462,images/picture_3.png,2,"[-11.733433509789462, 11.733433509789464]",-11.733433509789462,11.733433509789464,0,1,1,1.1190475887562217,2.1190475887562217,0.8809524112437783,3.0,1,1.8690475887562217,0,4.0,3.0,1,2,0,0,0,0,0,0,0,8,,,,,156.10984179200022,168.13352162500087,168.13352162500087,168.13352162500087,169.14877824998985,170.01538766699377,170.22957724999287,170.22957724999287,170.22957724999287,171.11545620799006,171.11545620799006,171.11545620799006,171.11545620799006,172.14800491699134,200003,305,2023-04-07_13h31.26.599,DMS_et_12-36,2022.2.4,None,
5,PRED,12,1.1190475887562217,2,images/picture_3.png,images/picture_1.png,0,"[-11.733433509789466, -11.733433509789462]",-11.733433509789464,-11.733433509789462,images/picture_2.png,1,"[11.733433509789464, 11.733433509789462]",11.733433509789464,11.733433509789462,images/picture_3.png,2,"[-11.733433509789462, 11.733433509789464]",-11.733433509789462,11.733433509789464,0,1,1,1.1190475887562217,2.1190475887562217,0.8809524112437783,3.0,1,1.8690475887562217,0,4.0,3.0,1,2,0,0,0,0,0,1,1,5,,,,,,,172.14800491699134,172.14800491699134,173.16263462499774,174.02942004200304,174.24935883299622,174.24935883299622,174.24935883299622,175.1293913749978,175.1293913749978,175.1293913749978,175.1293913749978,176.14876837500196,200003,305,2023-04-07_13h31.26.599,DMS_et_12-36,2022.2.4,None,
1,PRED,12,1.1190475887562217,2,images/picture_3.png,images/picture_1.png,0,"[11.733433509789464, 11.733433509789462]",11.733433509789464,11.733433509789462,images/picture_2.png,1,"[11.733433509789462, -11.733433509789466]",11.733433509789462,-11.733433509789464,images/picture_3.png,2,"[-11.733433509789466, -11.733433509789462]",-11.733433509789464,-11.733433509789462,0,1,1,1.1190475887562217,2.1190475887562217,0.8809524112437783,3.0,1,1.8690475887562217,0,4.0,3.0,1,2,0,0,0,0,0,2,2,1,,,,,,,176.14876837500196,176.14876837500196,177.1632275419979,178.0295646250015,178.24876183299057,178.24876183299057,178.24876183299057,179.12943570798961,179.12943570798961,179.12943570798961,179.12943570798961,180.14858074999938,200003,305,2023-04-07_13h31.26.599,DMS_et_12-36,2022.2.4,None,
2,PRED,12,1.1190475887562217,2,images/picture_3.png,images/picture_1.png,0,"[-11.733433509789462, 11.733433509789464]",-11.733433509789462,11.733433509789464,images/picture_2.png,1,"[-11.733433509789466, -11.733433509789462]",-11.733433509789464,-11.733433509789462,images/picture_3.png,2,"[11.733433509789462, -11.733433509789466]",11.733433509789462,-11.733433509789464,0,1,1,1.1190475887562217,2.1190475887562217,0.8809524112437783,3.0,1,1.8690475887562217,0,4.0,3.0,1,2,0,0,0,0,0,3,3,2,,,,,,,180.14858074999938,180.14858074999938,181.16290554199077,182.02951391699025,182.2494907079963,182.2494907079963,182.2494907079963,183.1291741669993,183.1291741669993,183.1291741669993,183.1291741669993,184.14876220800215,200003,305,2023-04-07_13h31.26.599,DMS_et_12-36,2022.2.4,None,
7,PRED,12,1.1190475887562217,2,images/picture_3.png,images/picture_1.png,0,"[-11.733433509789462, 11.733433509789464]",-11.733433509789462,11.733433509789464,images/picture_2.png,1,"[-11.733433509789466, -11.733433509789462]",-11.733433509789464,-11.733433509789462,images/picture_3.png,2,"[11.733433509789462, -11.733433509789466]",11.733433509789462,-11.733433509789464,0,1,1,1.1190475887562217,2.1190475887562217,0.8809524112437783,3.0,1,1.8690475887562217,0,4.0,3.0,1,2,0,0,0,0,0,4,4,7,,,,,,,184.14876220800215,184.14876220800215,185.16287216699857,186.02962808299344,186.24872870800027,186.24872870800027,186.24872870800027,187.12965741699736,187.12965741699736,187.12965741699736,187.12965741699736,188.1488914169895,200003,305,2023-04-07_13h31.26.599,DMS_et_12-36,2022.2.4,None,
3,PRED,12,1.1190475887562217,2,images/picture_3.png,images/picture_1.png,0,"[-11.733433509789466, -11.733433509789462]",-11.733433509789464,-11.733433509789462,images/picture_2.png,1,"[-11.733433509789462, 11.733433509789464]",-11.733433509789462,11.733433509789464,images/picture_3.png,2,"[11.733433509789464, 11.733433509789462]",11.733433509789464,11.733433509789462,0,1,1,1.1190475887562217,2.1190475887562217,0.8809524112437783,3.0,1,1.8690475887562217,0,4.0,3.0,1,2,0,0,0,0,0,5,5,3,,,,,,,188.1488914169895,188.1488914169895,189.16278758300177,190.02960845798953,190.24869770799705,190.24869770799705,190.24869770799705,191.12941395799862,191.12941395799862,191.12941395799862,191.12941395799862,192.14821687499352,200003,305,2023-04-07_13h31.26.599,DMS_et_12-36,2022.2.4,None,
4,PRED,12,1.1190475887562217,2,images/picture_3.png,images/picture_1.png,0,"[11.733433509789462, -11.733433509789466]",11.733433509789462,-11.733433509789464,images/picture_2.png,1,"[-11.733433509789466, -11.733433509789462]",-11.733433509789464,-11.733433509789462,images/picture_3.png,2,"[11.733433509789464, 11.733433509789462]",11.733433509789464,11.733433509789462,0,1,1,1.1190475887562217,2.1190475887562217,0.8809524112437783,3.0,1,1.8690475887562217,0,4.0,3.0,1,2,0,0,0,0,0,6,6,4,,,,,,,192.14821687499352,192.14821687499352,193.16247233300237,194.0296650419914,194.24891170799674,194.24891170799674,194.24891170799674,195.1295892920025,195.1295892920025,195.1295892920025,195.1295892920025,196.14892045799934,200003,305,2023-04-07_13h31.26.599,DMS_et_12-36,2022.2.4,None,
6,PRED,12,1.1190475887562217,2,images/picture_3.png,images/picture_1.png,0,"[-11.733433509789462, 11.733433509789464]",-11.733433509789462,11.733433509789464,images/picture_2.png,1,"[11.733433509789464, 11.733433509789462]",11.733433509789464,11.733433509789462,images/picture_3.png,2,"[11.733433509789462, -11.733433509789466]",11.733433509789462,-11.733433509789464,0,1,1,1.1190475887562217,2.1190475887562217,0.8809524112437783,3.0,1,1.8690475887562217,0,4.0,3.0,1,2,0,0,0,0,0,7,7,6,,,,,,,196.14892045799934,196.14892045799934,197.16286129200307,198.0295955420006,198.24887379199208,198.24887379199208,198.24887379199208,199.12939258299593,199.12939258299593,199.12939258299593,199.12939258299593,200.14800212500268,200003,305,2023-04-07_13h31.26.599,DMS_et_12-36,2022.2.4,None,
0,PRED,12,1.1190475887562217,2,images/picture_3.png,images/picture_1.png,0,"[-11.733433509789462, 11.733433509789464]",-11.733433509789462,11.733433509789464,images/picture_2.png,1,"[11.733433509789464, 11.733433509789462]",11.733433509789464,11.733433509789462,images/picture_3.png,2,"[-11.733433509789466, -11.733433509789462]",-11.733433509789464,-11.733433509789462,0,1,1,1.1190475887562217,2.1190475887562217,0.8809524112437783,3.0,1,1.8690475887562217,0,4.0,3.0,1,2,0,0,0,0,0,8,8,0,,,,,,,200.14800212500268,200.14800212500268,201.16283120799926,202.02939224999864,202.24911487499776,202.24911487499776,202.24911487499776,203.12925499999255,203.12925499999255,203.12925499999255,203.12925499999255,204.14821625000332,200003,305,2023-04-07_13h31.26.599,DMS_et_12-36,2022.2.4,None,
,,,,,,,,,,,,,,,,,,,,,,,,,,,,,,,,,,,0,0,0,0,,,,,,,,,204.14821625000332,216.1812510000018,,,,,,,,,,,,,200003,305,2023-04-07_13h31.26.599,DMS_et_12-36,2022.2.4,None,
15,UNPRED,12,1.1190475887562217,0,images/picture_1.png,images/picture_1.png,0,"[11.733433509789462, -11.733433509789466]",11.733433509789462,-11.733433509789464,images/picture_2.png,1,"[-11.733433509789466, -11.733433509789462]",-11.733433509789464,-11.733433509789462,images/picture_3.png,2,"[-11.733433509789462, 11.733433509789464]",-11.733433509789462,11.733433509789464,0,1,1,1.1190475887562217,2.1190475887562217,0.8809524112437783,3.0,1,1.8690475887562217,0,4.0,3.0,1,2,1,0,1,0,0,0,0,6,,,,,,,216.1812510000018,216.1812510000018,217.19618891699065,218.06286366700078,218.29614029199,218.29614029199,218.29614029199,219.18188891699538,219.18188891699538,219.18188891699538,219.18188891699538,220.2148683330015,200003,305,2023-04-07_13h31.26.599,DMS_et_12-36,2022.2.4,None,
11,UNPRED,12,1.1190475887562217,2,images/picture_3.png,images/picture_1.png,0,"[11.733433509789464, 11.733433509789462]",11.733433509789464,11.733433509789462,images/picture_2.png,1,"[-11.733433509789462, 11.733433509789464]",-11.733433509789462,11.733433509789464,images/picture_3.png,2,"[11.733433509789462, -11.733433509789466]",11.733433509789462,-11.733433509789464,0,1,1,1.1190475887562217,2.1190475887562217,0.8809524112437783,3.0,1,1.8690475887562217,0,4.0,3.0,1,2,1,0,1,0,0,1,1,2,,,,,,,220.2148683330015,220.2148683330015,221.22939495799073,222.09614220799995,222.31571829199675,222.31571829199675,222.31571829199675,223.19611758299288,223.19611758299288,223.19611758299288,223.19611758299288,224.19573012499313,200003,305,2023-04-07_13h31.26.599,DMS_et_12-36,2022.2.4,None,
13,UNPRED,12,1.1190475887562217,0,images/picture_1.png,images/picture_1.png,0,"[11.733433509789464, 11.733433509789462]",11.733433509789464,11.733433509789462,images/picture_2.png,1,"[-11.733433509789466, -11.733433509789462]",-11.733433509789464,-11.733433509789462,images/picture_3.png,2,"[-11.733433509789462, 11.733433509789464]",-11.733433509789462,11.733433509789464,0,1,1,1.1190475887562217,2.1190475887562217,0.8809524112437783,3.0,1,1.8690475887562217,0,4.0,3.0,1,2,1,0,1,0,0,2,2,4,,,,,,,224.19573012499313,224.19573012499313,225.19617170799756,226.06288949999725,226.3160269170039,226.3160269170039,226.3160269170039,227.19616858300287,227.19616858300287,227.19616858300287,227.19616858300287,228.21543475000362,200003,305,2023-04-07_13h31.26.599,DMS_et_12-36,2022.2.4,None,
17,UNPRED,12,1.1190475887562217,2,images/picture_3.png,images/picture_1.png,0,"[11.733433509789462, -11.733433509789466]",11.733433509789462,-11.733433509789464,images/picture_2.png,1,"[11.733433509789464, 11.733433509789462]",11.733433509789464,11.733433509789462,images/picture_3.png,2,"[-11.733433509789466, -11.733433509789462]",-11.733433509789464,-11.733433509789462,0,1,1,1.1190475887562217,2.1190475887562217,0.8809524112437783,3.0,1,1.8690475887562217,0,4.0,3.0,1,2,1,0,1,0,0,3,3,8,,,,,,,228.21543475000362,228.21543475000362,229.2294572499959,230.09613695800363,230.31566462499904,230.31566462499904,230.31566462499904,231.19619070799672,231.19619070799672,231.19619070799672,231.19619070799672,232.21594758299761,200003,305,2023-04-07_13h31.26.599,DMS_et_12-36,2022.2.4,None,
14,UNPRED,12,1.1190475887562217,1,images/picture_2.png,images/picture_1.png,0,"[11.733433509789464, 11.733433509789462]",11.733433509789464,11.733433509789462,images/picture_2.png,1,"[11.733433509789462, -11.733433509789466]",11.733433509789462,-11.733433509789464,images/picture_3.png,2,"[-11.733433509789462, 11.733433509789464]",-11.733433509789462,11.733433509789464,0,1,1,1.1190475887562217,2.1190475887562217,0.8809524112437783,3.0,1,1.8690475887562217,0,4.0,3.0,1,2,1,0,1,0,0,4,4,5,,,,,,,232.21594758299761,232.21594758299761,233.22959720800282,234.09577766699658,234.3145722499903,234.3145722499903,234.3145722499903,235.19602716699592,235.19602716699592,235.19602716699592,235.19602716699592,236.19565516700095,200003,305,2023-04-07_13h31.26.599,DMS_et_12-36,2022.2.4,None,
10,UNPRED,12,1.1190475887562217,1,images/picture_2.png,images/picture_1.png,0,"[-11.733433509789466, -11.733433509789462]",-11.733433509789464,-11.733433509789462,images/picture_2.png,1,"[-11.733433509789462, 11.733433509789464]",-11.733433509789462,11.733433509789464,images/picture_3.png,2,"[11.733433509789462, -11.733433509789466]",11.733433509789462,-11.733433509789464,0,1,1,1.1190475887562217,2.1190475887562217,0.8809524112437783,3.0,1,1.8690475887562217,0,4.0,3.0,1,2,1,0,1,0,0,5,5,1,,,,,,,236.19565516700095,236.19565516700095,237.1962122499972,238.0629198329989,238.3159078329918,238.3159078329918,238.3159078329918,239.1961747079913,239.1961747079913,239.1961747079913,239.1961747079913,240.19568054199044,200003,305,2023-04-07_13h31.26.599,DMS_et_12-36,2022.2.4,None,
12,UNPRED,12,1.1190475887562217,0,images/picture_1.png,images/picture_1.png,0,"[-11.733433509789466, -11.733433509789462]",-11.733433509789464,-11.733433509789462,images/picture_2.png,1,"[11.733433509789462, -11.733433509789466]",11.733433509789462,-11.733433509789464,images/picture_3.png,2,"[-11.733433509789462, 11.733433509789464]",-11.733433509789462,11.733433509789464,0,1,1,1.1190475887562217,2.1190475887562217,0.8809524112437783,3.0,1,1.8690475887562217,0,4.0,3.0,1,2,1,0,1,0,0,6,6,3,,,,,,,240.19568054199044,240.19568054199044,241.1961660829984,242.0628802919964,242.3153817919956,242.3153817919956,242.3153817919956,243.19618654200167,243.19618654200167,243.19618654200167,243.19618654200167,244.19604387499567,200003,305,2023-04-07_13h31.26.599,DMS_et_12-36,2022.2.4,None,
9,UNPRED,12,1.1190475887562217,0,images/picture_1.png,images/picture_1.png,0,"[11.733433509789462, -11.733433509789466]",11.733433509789462,-11.733433509789464,images/picture_2.png,1,"[-11.733433509789462, 11.733433509789464]",-11.733433509789462,11.733433509789464,images/picture_3.png,2,"[-11.733433509789466, -11.733433509789462]",-11.733433509789464,-11.733433509789462,0,1,1,1.1190475887562217,2.1190475887562217,0.8809524112437783,3.0,1,1.8690475887562217,0,4.0,3.0,1,2,1,0,1,0,0,7,7,0,,,,,,,244.19604387499567,244.19604387499567,245.1959386249946,246.06291483298992,246.31544491699606,246.31544491699606,246.31544491699606,247.1961954169965,247.1961954169965,247.1961954169965,247.1961954169965,248.19562083299388,200003,305,2023-04-07_13h31.26.599,DMS_et_12-36,2022.2.4,None,
16,UNPRED,12,1.1190475887562217,0,images/picture_1.png,images/picture_1.png,0,"[-11.733433509789462, 11.733433509789464]",-11.733433509789462,11.733433509789464,images/picture_2.png,1,"[11.733433509789464, 11.733433509789462]",11.733433509789464,11.733433509789462,images/picture_3.png,2,"[11.733433509789462, -11.733433509789466]",11.733433509789462,-11.733433509789464,0,1,1,1.1190475887562217,2.1190475887562217,0.8809524112437783,3.0,1,1.8690475887562217,0,4.0,3.0,1,2,1,0,1,0,0,8,8,7,,,,,,,248.19562083299388,248.19562083299388,249.19634512499033,250.06289016699884,250.31550504200277,250.31550504200277,250.31550504200277,251.19635345799907,251.19635345799907,251.19635345799907,251.19635345799907,252.2327799170016,200003,305,2023-04-07_13h31.26.599,DMS_et_12-36,2022.2.4,None,
,,,,,,,,,,,,,,,,,,,,,,,,,,,,,,,,,,,1,0,1,0,,,,,,,,,252.2327799170016,264.2511181250011,,,,,,,,,,,,,200003,305,2023-04-07_13h31.26.599,DMS_et_12-36,2022.2.4,None,
19,PRED,12,1.1190475887562217,1,images/picture_2.png,images/picture_1.png,0,"[11.733433509789464, 11.733433509789462]",11.733433509789464,11.733433509789462,images/picture_2.png,1,"[-11.733433509789462, 11.733433509789464]",-11.733433509789462,11.733433509789464,images/picture_3.png,2,"[11.733433509789462, -11.733433509789466]",11.733433509789462,-11.733433509789464,0,1,1,1.1190475887562217,2.1190475887562217,0.8809524112437783,3.0,1,1.8690475887562217,0,4.0,3.0,1,2,2,0,2,0,0,0,0,1,,,,,,,264.2511181250011,264.2511181250011,265.26262591699196,266.12973858299665,266.3629216249974,266.3629216249974,266.3629216249974,267.2491209169966,267.2491209169966,267.2491209169966,267.2491209169966,268.2623385420011,200003,305,2023-04-07_13h31.26.599,DMS_et_12-36,2022.2.4,None,
20,PRED,12,1.1190475887562217,1,images/picture_2.png,images/picture_1.png,0,"[11.733433509789462, -11.733433509789466]",11.733433509789462,-11.733433509789464,images/picture_2.png,1,"[-11.733433509789462, 11.733433509789464]",-11.733433509789462,11.733433509789464,images/picture_3.png,2,"[-11.733433509789466, -11.733433509789462]",-11.733433509789464,-11.733433509789462,0,1,1,1.1190475887562217,2.1190475887562217,0.8809524112437783,3.0,1,1.8690475887562217,0,4.0,3.0,1,2,2,0,2,0,0,1,1,2,,,,,,,268.2623385420011,268.2623385420011,269.2629312079953,270.12943124999583,270.3823192919954,270.3823192919954,270.3823192919954,271.2629403750034,271.2629403750034,271.2629403750034,271.2629403750034,272.2622488749912,200003,305,2023-04-07_13h31.26.599,DMS_et_12-36,2022.2.4,None,
25,PRED,12,1.1190475887562217,1,images/picture_2.png,images/picture_1.png,0,"[11.733433509789462, -11.733433509789466]",11.733433509789462,-11.733433509789464,images/picture_2.png,1,"[-11.733433509789466, -11.733433509789462]",-11.733433509789464,-11.733433509789462,images/picture_3.png,2,"[-11.733433509789462, 11.733433509789464]",-11.733433509789462,11.733433509789464,0,1,1,1.1190475887562217,2.1190475887562217,0.8809524112437783,3.0,1,1.8690475887562217,0,4.0,3.0,1,2,2,0,2,0,0,2,2,7,,,,,,,272.2622488749912,272.2622488749912,273.26279629199416,274.12959591699473,274.38275158299075,274.38275158299075,274.38275158299075,275.2625394170027,275.2625394170027,275.2625394170027,275.2625394170027,276.26259312499315,200003,305,2023-04-07_13h31.26.599,DMS_et_12-36,2022.2.4,None,
23,PRED,12,1.1190475887562217,1,images/picture_2.png,images/picture_1.png,0,"[11.733433509789464, 11.733433509789462]",11.733433509789464,11.733433509789462,images/picture_2.png,1,"[-11.733433509789462, 11.733433509789464]",-11.733433509789462,11.733433509789464,images/picture_3.png,2,"[-11.733433509789466, -11.733433509789462]",-11.733433509789464,-11.733433509789462,0,1,1,1.1190475887562217,2.1190475887562217,0.8809524112437783,3.0,1,1.8690475887562217,0,4.0,3.0,1,2,2,0,2,0,0,3,3,5,,,,,,,276.26259312499315,276.26259312499315,277.2628902919969,278.1296374579979,278.38276512500306,278.38276512500306,278.38276512500306,279.26317291699525,279.26317291699525,279.26317291699525,279.26317291699525,280.26235770799394,200003,305,2023-04-07_13h31.26.599,DMS_et_12-36,2022.2.4,None,
18,PRED,12,1.1190475887562217,1,images/picture_2.png,images/picture_1.png,0,"[11.733433509789464, 11.733433509789462]",11.733433509789464,11.733433509789462,images/picture_2.png,1,"[-11.733433509789466, -11.733433509789462]",-11.733433509789464,-11.733433509789462,images/picture_3.png,2,"[-11.733433509789462, 11.733433509789464]",-11.733433509789462,11.733433509789464,0,1,1,1.1190475887562217,2.1190475887562217,0.8809524112437783,3.0,1,1.8690475887562217,0,4.0,3.0,1,2,2,0,2,0,0,4,4,0,,,,,,,280.26235770799394,280.26235770799394,281.2629207919963,282.1294382499909,282.38257991700084,282.38257991700084,282.38257991700084,283.26290812499064,283.26290812499064,283.26290812499064,283.26290812499064,284.262298207992,200003,305,2023-04-07_13h31.26.599,DMS_et_12-36,2022.2.4,None,
26,PRED,12,1.1190475887562217,1,images/picture_2.png,images/picture_1.png,0,"[11.733433509789464, 11.733433509789462]",11.733433509789464,11.733433509789462,images/picture_2.png,1,"[11.733433509789462, -11.733433509789466]",11.733433509789462,-11.733433509789464,images/picture_3.png,2,"[-11.733433509789462, 11.733433509789464]",-11.733433509789462,11.733433509789464,0,1,1,1.1190475887562217,2.1190475887562217,0.8809524112437783,3.0,1,1.8690475887562217,0,4.0,3.0,1,2,2,0,2,0,0,5,5,8,,,,,,,284.262298207992,284.262298207992,285.2625680420024,286.1293015419942,286.3819458329963,286.3819458329963,286.3819458329963,287.2629917079903,287.2629917079903,287.2629917079903,287.2629917079903,288.2620844579942,200003,305,2023-04-07_13h31.26.599,DMS_et_12-36,2022.2.4,None,
21,PRED,12,1.1190475887562217,1,images/picture_2.png,images/picture_1.png,0,"[11.733433509789462, -11.733433509789466]",11.733433509789462,-11.733433509789464,images/picture_2.png,1,"[11.733433509789464, 11.733433509789462]",11.733433509789464,11.733433509789462,images/picture_3.png,2,"[-11.733433509789466, -11.733433509789462]",-11.733433509789464,-11.733433509789462,0,1,1,1.1190475887562217,2.1190475887562217,0.8809524112437783,3.0,1,1.8690475887562217,0,4.0,3.0,1,2,2,0,2,0,0,6,6,3,,,,,,,288.2620844579942,288.2620844579942,289.2628996249987,290.1294341250032,290.38218295799743,290.38218295799743,290.38218295799743,291.26290545800293,291.26290545800293,291.26290545800293,291.26290545800293,292.2626783329906,200003,305,2023-04-07_13h31.26.599,DMS_et_12-36,2022.2.4,None,
24,PRED,12,1.1190475887562217,1,images/picture_2.png,images/picture_1.png,0,"[-11.733433509789462, 11.733433509789464]",-11.733433509789462,11.733433509789464,images/picture_2.png,1,"[11.733433509789464, 11.733433509789462]",11.733433509789464,11.733433509789462,images/picture_3.png,2,"[11.733433509789462, -11.733433509789466]",11.733433509789462,-11.733433509789464,0,1,1,1.1190475887562217,2.1190475887562217,0.8809524112437783,3.0,1,1.8690475887562217,0,4.0,3.0,1,2,2,0,2,0,0,7,7,6,,,,,,,292.2626783329906,292.2626783329906,293.26283449999755,294.1295792500023,294.3824744579906,294.3824744579906,294.3824744579906,295.26290591699944,295.26290591699944,295.26290591699944,295.26290591699944,296.2624545419967,200003,305,2023-04-07_13h31.26.599,DMS_et_12-36,2022.2.4,None,
22,PRED,12,1.1190475887562217,1,images/picture_2.png,images/picture_1.png,0,"[-11.733433509789462, 11.733433509789464]",-11.733433509789462,11.733433509789464,images/picture_2.png,1,"[11.733433509789462, -11.733433509789466]",11.733433509789462,-11.733433509789464,images/picture_3.png,2,"[-11.733433509789466, -11.733433509789462]",-11.733433509789464,-11.733433509789462,0,1,1,1.1190475887562217,2.1190475887562217,0.8809524112437783,3.0,1,1.8690475887562217,0,4.0,3.0,1,2,2,0,2,0,0,8,8,4,,,,,,,296.2624545419967,296.2624545419967,297.26283383299597,298.1296809170017,298.38238570799876,298.38238570799876,298.38238570799876,299.2629026670038,299.2629026670038,299.2629026670038,299.2629026670038,300.30880124999385,200003,305,2023-04-07_13h31.26.599,DMS_et_12-36,2022.2.4,None,
,,,,,,,,,,,,,,,,,,,,,,,,,,,,,,,,,,,2,0,2,0,,,,,,,,,300.30880124999385,312.32897212500393,,,,,,,,,,,,,200003,305,2023-04-07_13h31.26.599,DMS_et_12-36,2022.2.4,None,
27,UNPRED,12,1.1190475887562217,1,images/picture_2.png,images/picture_1.png,0,"[11.733433509789464, 11.733433509789462]",11.733433509789464,11.733433509789462,images/picture_2.png,1,"[-11.733433509789466, -11.733433509789462]",-11.733433509789464,-11.733433509789462,images/picture_3.png,2,"[-11.733433509789462, 11.733433509789464]",-11.733433509789462,11.733433509789464,0,1,1,1.1190475887562217,2.1190475887562217,0.8809524112437783,3.0,1,1.8690475887562217,0,4.0,3.0,1,2,3,0,3,0,0,0,0,0,,,,,,,312.32897212500393,312.32897212500393,313.3295519169915,314.19616774999304,314.44948704200215,314.44948704200215,314.44948704200215,315.32943541699206,315.32943541699206,315.32943541699206,315.32943541699206,316.3477683749952,200003,305,2023-04-07_13h31.26.599,DMS_et_12-36,2022.2.4,None,
28,UNPRED,12,1.1190475887562217,2,images/picture_3.png,images/picture_1.png,0,"[11.733433509789464, 11.733433509789462]",11.733433509789464,11.733433509789462,images/picture_2.png,1,"[-11.733433509789466, -11.733433509789462]",-11.733433509789464,-11.733433509789462,images/picture_3.png,2,"[11.733433509789462, -11.733433509789466]",11.733433509789462,-11.733433509789464,0,1,1,1.1190475887562217,2.1190475887562217,0.8809524112437783,3.0,1,1.8690475887562217,0,4.0,3.0,1,2,3,0,3,0,0,1,1,1,,,,,,,316.3477683749952,316.3477683749952,317.3628684169962,318.2294035419909,318.4495531249995,318.4495531249995,318.4495531249995,319.3295863749954,319.3295863749954,319.3295863749954,319.3295863749954,320.32860300000175,200003,305,2023-04-07_13h31.26.599,DMS_et_12-36,2022.2.4,None,
29,UNPRED,12,1.1190475887562217,0,images/picture_1.png,images/picture_1.png,0,"[-11.733433509789466, -11.733433509789462]",-11.733433509789464,-11.733433509789462,images/picture_2.png,1,"[11.733433509789464, 11.733433509789462]",11.733433509789464,11.733433509789462,images/picture_3.png,2,"[-11.733433509789462, 11.733433509789464]",-11.733433509789462,11.733433509789464,0,1,1,1.1190475887562217,2.1190475887562217,0.8809524112437783,3.0,1,1.8690475887562217,0,4.0,3.0,1,2,3,0,3,0,0,2,2,2,,,,,,,320.32860300000175,320.32860300000175,321.32969445799245,322.19642875000136,322.4494823749992,322.4494823749992,322.4494823749992,323.32959354200284,323.32959354200284,323.32959354200284,323.32959354200284,324.32896758300194,200003,305,2023-04-07_13h31.26.599,DMS_et_12-36,2022.2.4,None,
34,UNPRED,12,1.1190475887562217,0,images/picture_1.png,images/picture_1.png,0,"[11.733433509789462, -11.733433509789466]",11.733433509789462,-11.733433509789464,images/picture_2.png,1,"[-11.733433509789462, 11.733433509789464]",-11.733433509789462,11.733433509789464,images/picture_3.png,2,"[-11.733433509789466, -11.733433509789462]",-11.733433509789464,-11.733433509789462,0,1,1,1.1190475887562217,2.1190475887562217,0.8809524112437783,3.0,1,1.8690475887562217,0,4.0,3.0,1,2,3,0,3,0,0,3,3,7,,,,,,,324.32896758300194,324.32896758300194,325.3296017499961,326.1959497920034,326.44785070799117,326.44785070799117,326.44785070799117,327.3290917080012,327.3290917080012,327.3290917080012,327.3290917080012,328.3289752499986,200003,305,2023-04-07_13h31.26.599,DMS_et_12-36,2022.2.4,None,
30,UNPRED,12,1.1190475887562217,0,images/picture_1.png,images/picture_1.png,0,"[-11.733433509789466, -11.733433509789462]",-11.733433509789464,-11.733433509789462,images/picture_2.png,1,"[11.733433509789462, -11.733433509789466]",11.733433509789462,-11.733433509789464,images/picture_3.png,2,"[-11.733433509789462, 11.733433509789464]",-11.733433509789462,11.733433509789464,0,1,1,1.1190475887562217,2.1190475887562217,0.8809524112437783,3.0,1,1.8690475887562217,0,4.0,3.0,1,2,3,0,3,0,0,4,4,3,,,,,,,328.3289752499986,328.3289752499986,329.32950883299054,330.1961242499965,330.44939675000205,330.44939675000205,330.44939675000205,331.3296245829988,331.3296245829988,331.3296245829988,331.3296245829988,332.3493532919965,200003,305,2023-04-07_13h31.26.599,DMS_et_12-36,2022.2.4,None,
32,UNPRED,12,1.1190475887562217,2,images/picture_3.png,images/picture_1.png,0,"[11.733433509789462, -11.733433509789466]",11.733433509789462,-11.733433509789464,images/picture_2.png,1,"[11.733433509789464, 11.733433509789462]",11.733433509789464,11.733433509789462,images/picture_3.png,2,"[-11.733433509789466, -11.733433509789462]",-11.733433509789464,-11.733433509789462,0,1,1,1.1190475887562217,2.1190475887562217,0.8809524112437783,3.0,1,1.8690475887562217,0,4.0,3.0,1,2,3,0,3,0,0,5,5,5,,,,,,,332.3493532919965,332.3493532919965,333.3630867920001,334.2298676670034,334.44913945799635,334.44913945799635,334.44913945799635,335.32970108299924,335.32970108299924,335.32970108299924,335.32970108299924,336.348929957996,200003,305,2023-04-07_13h31.26.599,DMS_et_12-36,2022.2.4,None,
31,UNPRED,12,1.1190475887562217,2,images/picture_3.png,images/picture_1.png,0,"[-11.733433509789466, -11.733433509789462]",-11.733433509789464,-11.733433509789462,images/picture_2.png,1,"[11.733433509789464, 11.733433509789462]",11.733433509789464,11.733433509789462,images/picture_3.png,2,"[-11.733433509789462, 11.733433509789464]",-11.733433509789462,11.733433509789464,0,1,1,1.1190475887562217,2.1190475887562217,0.8809524112437783,3.0,1,1.8690475887562217,0,4.0,3.0,1,2,3,0,3,0,0,6,6,4,,,,,,,336.348929957996,336.348929957996,337.36293808299524,338.2296772080008,338.4489774579997,338.4489774579997,338.4489774579997,339.3298758329911,339.3298758329911,339.3298758329911,339.3298758329911,340.3486270419962,200003,305,2023-04-07_13h31.26.599,DMS_et_12-36,2022.2.4,None,
35,UNPRED,12,1.1190475887562217,0,images/picture_1.png,images/picture_1.png,0,"[-11.733433509789466, -11.733433509789462]",-11.733433509789464,-11.733433509789462,images/picture_2.png,1,"[-11.733433509789462, 11.733433509789464]",-11.733433509789462,11.733433509789464,images/picture_3.png,2,"[11.733433509789462, -11.733433509789466]",11.733433509789462,-11.733433509789464,0,1,1,1.1190475887562217,2.1190475887562217,0.8809524112437783,3.0,1,1.8690475887562217,0,4.0,3.0,1,2,3,0,3,0,0,7,7,8,,,,,,,340.3486270419962,340.3486270419962,341.3631342079898,342.22987358299724,342.44898633299454,342.44898633299454,342.44898633299454,343.3297005420027,343.3297005420027,343.3297005420027,343.3297005420027,344.32926549999684,200003,305,2023-04-07_13h31.26.599,DMS_et_12-36,2022.2.4,None,
33,UNPRED,12,1.1190475887562217,0,images/picture_1.png,images/picture_1.png,0,"[-11.733433509789466, -11.733433509789462]",-11.733433509789464,-11.733433509789462,images/picture_2.png,1,"[11.733433509789462, -11.733433509789466]",11.733433509789462,-11.733433509789464,images/picture_3.png,2,"[-11.733433509789462, 11.733433509789464]",-11.733433509789462,11.733433509789464,0,1,1,1.1190475887562217,2.1190475887562217,0.8809524112437783,3.0,1,1.8690475887562217,0,4.0,3.0,1,2,3,0,3,0,0,8,8,6,,,,,,,344.32926549999684,344.32926549999684,345.32989287500095,346.1964049579983,346.4494888749905,346.4494888749905,346.4494888749905,347.32934587499767,347.32934587499767,347.32934587499767,347.32934587499767,348.38776274998963,200003,305,2023-04-07_13h31.26.599,DMS_et_12-36,2022.2.4,None,
,,,,,,,,,,,,,,,,,,,,,,,,,,,,,,,,,,,3,0,3,0,,,,,,,,,348.38776274998963,360.4163577080035,,,,,,,,,,,,,200003,305,2023-04-07_13h31.26.599,DMS_et_12-36,2022.2.4,None,
44,PRED,12,1.1190475887562217,1,images/picture_2.png,images/picture_1.png,0,"[11.733433509789462, -11.733433509789466]",11.733433509789462,-11.733433509789464,images/picture_2.png,1,"[-11.733433509789466, -11.733433509789462]",-11.733433509789464,-11.733433509789462,images/picture_3.png,2,"[-11.733433509789462, 11.733433509789464]",-11.733433509789462,11.733433509789464,0,1,1,1.1190475887562217,2.1190475887562217,0.8809524112437783,3.0,1,1.8690475887562217,0,4.0,3.0,1,2,4,0,4,0,0,0,0,8,,,,,,,360.4163577080035,360.4163577080035,361.4300304579956,362.29642245799187,362.52988370798994,362.52988370798994,362.52988370798994,363.4156395000027,363.4156395000027,363.4156395000027,363.4156395000027,364.4292845000018,200003,305,2023-04-07_13h31.26.599,DMS_et_12-36,2022.2.4,None,
38,PRED,12,1.1190475887562217,1,images/picture_2.png,images/picture_1.png,0,"[-11.733433509789466, -11.733433509789462]",-11.733433509789464,-11.733433509789462,images/picture_2.png,1,"[11.733433509789462, -11.733433509789466]",11.733433509789462,-11.733433509789464,images/picture_3.png,2,"[-11.733433509789462, 11.733433509789464]",-11.733433509789462,11.733433509789464,0,1,1,1.1190475887562217,2.1190475887562217,0.8809524112437783,3.0,1,1.8690475887562217,0,4.0,3.0,1,2,4,0,4,0,0,1,1,2,,,,,,,364.4292845000018,364.4292845000018,365.42967783300264,366.2965608749946,366.5491338749998,366.5491338749998,366.5491338749998,367.42946200000006,367.42946200000006,367.42946200000006,367.42946200000006,368.4296306250035,200003,305,2023-04-07_13h31.26.599,DMS_et_12-36,2022.2.4,None,
36,PRED,12,1.1190475887562217,1,images/picture_2.png,images/picture_1.png,0,"[11.733433509789464, 11.733433509789462]",11.733433509789464,11.733433509789462,images/picture_2.png,1,"[11.733433509789462, -11.733433509789466]",11.733433509789462,-11.733433509789464,images/picture_3.png,2,"[-11.733433509789466, -11.733433509789462]",-11.733433509789464,-11.733433509789462,0,1,1,1.1190475887562217,2.1190475887562217,0.8809524112437783,3.0,1,1.8690475887562217,0,4.0,3.0,1,2,4,0,4,0,0,2,2,0,,,,,,,368.4296306250035,368.4296306250035,369.42980570800137,370.2966041670006,370.5491415830038,370.5491415830038,370.5491415830038,371.42985229199985,371.42985229199985,371.42985229199985,371.42985229199985,372.4292514999979,200003,305,2023-04-07_13h31.26.599,DMS_et_12-36,2022.2.4,None,
37,PRED,12,1.1190475887562217,1,images/picture_2.png,images/picture_1.png,0,"[11.733433509789464, 11.733433509789462]",11.733433509789464,11.733433509789462,images/picture_2.png,1,"[11.733433509789462, -11.733433509789466]",11.733433509789462,-11.733433509789464,images/picture_3.png,2,"[-11.733433509789466, -11.733433509789462]",-11.733433509789464,-11.733433509789462,0,1,1,1.1190475887562217,2.1190475887562217,0.8809524112437783,3.0,1,1.8690475887562217,0,4.0,3.0,1,2,4,0,4,0,0,3,3,1,,,,,,,372.4292514999979,372.4292514999979,373.4298313749896,374.2964248749922,374.5496637500037,374.5496637500037,374.5496637500037,375.429897916998,375.429897916998,375.429897916998,375.429897916998,376.42925470799673,200003,305,2023-04-07_13h31.26.599,DMS_et_12-36,2022.2.4,None,
39,PRED,12,1.1190475887562217,1,images/picture_2.png,images/picture_1.png,0,"[-11.733433509789466, -11.733433509789462]",-11.733433509789464,-11.733433509789462,images/picture_2.png,1,"[-11.733433509789462, 11.733433509789464]",-11.733433509789462,11.733433509789464,images/picture_3.png,2,"[11.733433509789462, -11.733433509789466]",11.733433509789462,-11.733433509789464,0,1,1,1.1190475887562217,2.1190475887562217,0.8809524112437783,3.0,1,1.8690475887562217,0,4.0,3.0,1,2,4,0,4,0,0,4,4,3,,,,,,,376.42925470799673,376.42925470799673,377.429651457991,378.29612816699955,378.54842383299547,378.54842383299547,378.54842383299547,379.429855082999,379.429855082999,379.429855082999,379.429855082999,380.42925608299265,200003,305,2023-04-07_13h31.26.599,DMS_et_12-36,2022.2.4,None,
43,PRED,12,1.1190475887562217,1,images/picture_2.png,images/picture_1.png,0,"[-11.733433509789462, 11.733433509789464]",-11.733433509789462,11.733433509789464,images/picture_2.png,1,"[11.733433509789464, 11.733433509789462]",11.733433509789464,11.733433509789462,images/picture_3.png,2,"[11.733433509789462, -11.733433509789466]",11.733433509789462,-11.733433509789464,0,1,1,1.1190475887562217,2.1190475887562217,0.8809524112437783,3.0,1,1.8690475887562217,0,4.0,3.0,1,2,4,0,4,0,0,5,5,7,,,,,,,380.42925608299265,380.42925608299265,381.429873999994,382.29638924999745,382.54935858299723,382.54935858299723,382.54935858299723,383.429933833002,383.429933833002,383.429933833002,383.429933833002,384.4292952919932,200003,305,2023-04-07_13h31.26.599,DMS_et_12-36,2022.2.4,None,
40,PRED,12,1.1190475887562217,1,images/picture_2.png,images/picture_1.png,0,"[11.733433509789464, 11.733433509789462]",11.733433509789464,11.733433509789462,images/picture_2.png,1,"[11.733433509789462, -11.733433509789466]",11.733433509789462,-11.733433509789464,images/picture_3.png,2,"[-11.733433509789462, 11.733433509789464]",-11.733433509789462,11.733433509789464,0,1,1,1.1190475887562217,2.1190475887562217,0.8809524112437783,3.0,1,1.8690475887562217,0,4.0,3.0,1,2,4,0,4,0,0,6,6,4,,,,,,,384.4292952919932,384.4292952919932,385.4298269169958,386.29646066699934,386.54908499999146,386.54908499999146,386.54908499999146,387.4299207080039,387.4299207080039,387.4299207080039,387.4299207080039,388.4295057499985,200003,305,2023-04-07_13h31.26.599,DMS_et_12-36,2022.2.4,None,
41,PRED,12,1.1190475887562217,1,images/picture_2.png,images/picture_1.png,0,"[11.733433509789464, 11.733433509789462]",11.733433509789464,11.733433509789462,images/picture_2.png,1,"[-11.733433509789466, -11.733433509789462]",-11.733433509789464,-11.733433509789462,images/picture_3.png,2,"[-11.733433509789462, 11.733433509789464]",-11.733433509789462,11.733433509789464,0,1,1,1.1190475887562217,2.1190475887562217,0.8809524112437783,3.0,1,1.8690475887562217,0,4.0,3.0,1,2,4,0,4,0,0,7,7,5,,,,,,,388.4295057499985,388.4295057499985,389.429869582993,390.2966292499914,390.5491121249943,390.5491121249943,390.5491121249943,391.4298633330036,391.4298633330036,391.4298633330036,391.4298633330036,392.4294006249984,200003,305,2023-04-07_13h31.26.599,DMS_et_12-36,2022.2.4,None,
42,PRED,12,1.1190475887562217,1,images/picture_2.png,images/picture_1.png,0,"[-11.733433509789462, 11.733433509789464]",-11.733433509789462,11.733433509789464,images/picture_2.png,1,"[11.733433509789464, 11.733433509789462]",11.733433509789464,11.733433509789462,images/picture_3.png,2,"[11.733433509789462, -11.733433509789466]",11.733433509789462,-11.733433509789464,0,1,1,1.1190475887562217,2.1190475887562217,0.8809524112437783,3.0,1,1.8690475887562217,0,4.0,3.0,1,2,4,0,4,0,0,8,8,6,,,,,,,392.4294006249984,392.4294006249984,393.42989045799186,394.29640862499946,394.5489540419949,394.5489540419949,394.5489540419949,395.42987637499755,395.42987637499755,395.42987637499755,395.42987637499755,396.5473447080003,200003,305,2023-04-07_13h31.26.599,DMS_et_12-36,2022.2.4,None,
,,,,,,,,,,,,,,,,,,,,,,,,,,,,,,,,,,,4,0,4,0,,,,,,,,,396.5473447080003,408.58194645799813,,,,,,,,,,,,,200003,305,2023-04-07_13h31.26.599,DMS_et_12-36,2022.2.4,None,
52,UNPRED,12,1.1190475887562217,0,images/picture_1.png,images/picture_1.png,0,"[11.733433509789462, -11.733433509789466]",11.733433509789462,-11.733433509789464,images/picture_2.png,1,"[11.733433509789464, 11.733433509789462]",11.733433509789464,11.733433509789462,images/picture_3.png,2,"[-11.733433509789466, -11.733433509789462]",-11.733433509789464,-11.733433509789462,0,1,1,1.1190475887562217,2.1190475887562217,0.8809524112437783,3.0,1,1.8690475887562217,0,4.0,3.0,1,2,5,0,5,0,0,0,0,7,,,,,,,408.58194645799813,408.58194645799813,409.5967250419926,410.4632333329937,410.68210133299,410.68210133299,410.68210133299,411.56318833299156,411.56318833299156,411.56318833299156,411.56318833299156,412.5626802499901,200003,305,2023-04-07_13h31.26.599,DMS_et_12-36,2022.2.4,None,
50,UNPRED,12,1.1190475887562217,1,images/picture_2.png,images/picture_1.png,0,"[11.733433509789462, -11.733433509789466]",11.733433509789462,-11.733433509789464,images/picture_2.png,1,"[-11.733433509789466, -11.733433509789462]",-11.733433509789464,-11.733433509789462,images/picture_3.png,2,"[-11.733433509789462, 11.733433509789464]",-11.733433509789462,11.733433509789464,0,1,1,1.1190475887562217,2.1190475887562217,0.8809524112437783,3.0,1,1.8690475887562217,0,4.0,3.0,1,2,5,0,5,0,0,1,1,5,,,,,,,412.5626802499901,412.5626802499901,413.56317516700074,414.4299151669984,414.6823432079982,414.6823432079982,414.6823432079982,415.56318154199107,415.56318154199107,415.56318154199107,415.56318154199107,416.58203754200076,200003,305,2023-04-07_13h31.26.599,DMS_et_12-36,2022.2.4,None,
47,UNPRED,12,1.1190475887562217,2,images/picture_3.png,images/picture_1.png,0,"[11.733433509789464, 11.733433509789462]",11.733433509789464,11.733433509789462,images/picture_2.png,1,"[11.733433509789462, -11.733433509789466]",11.733433509789462,-11.733433509789464,images/picture_3.png,2,"[-11.733433509789462, 11.733433509789464]",-11.733433509789462,11.733433509789464,0,1,1,1.1190475887562217,2.1190475887562217,0.8809524112437783,3.0,1,1.8690475887562217,0,4.0,3.0,1,2,5,0,5,0,0,2,2,2,,,,,,,416.58203754200076,416.58203754200076,417.596446208001,418.4632927079947,418.681852291993,418.681852291993,418.681852291993,419.56304437499784,419.56304437499784,419.56304437499784,419.56304437499784,420.56286929199996,200003,305,2023-04-07_13h31.26.599,DMS_et_12-36,2022.2.4,None,
51,UNPRED,12,1.1190475887562217,1,images/picture_2.png,images/picture_1.png,0,"[-11.733433509789462, 11.733433509789464]",-11.733433509789462,11.733433509789464,images/picture_2.png,1,"[11.733433509789462, -11.733433509789466]",11.733433509789462,-11.733433509789464,images/picture_3.png,2,"[-11.733433509789466, -11.733433509789462]",-11.733433509789464,-11.733433509789462,0,1,1,1.1190475887562217,2.1190475887562217,0.8809524112437783,3.0,1,1.8690475887562217,0,4.0,3.0,1,2,5,0,5,0,0,3,3,6,,,,,,,420.56286929199996,420.56286929199996,421.5631964170025,422.4299287079921,422.68198783299886,422.68198783299886,422.68198783299886,423.5632519170031,423.5632519170031,423.5632519170031,423.5632519170031,424.56282154200017,200003,305,2023-04-07_13h31.26.599,DMS_et_12-36,2022.2.4,None,
45,UNPRED,12,1.1190475887562217,1,images/picture_2.png,images/picture_1.png,0,"[-11.733433509789466, -11.733433509789462]",-11.733433509789464,-11.733433509789462,images/picture_2.png,1,"[11.733433509789464, 11.733433509789462]",11.733433509789464,11.733433509789462,images/picture_3.png,2,"[-11.733433509789462, 11.733433509789464]",-11.733433509789462,11.733433509789464,0,1,1,1.1190475887562217,2.1190475887562217,0.8809524112437783,3.0,1,1.8690475887562217,0,4.0,3.0,1,2,5,0,5,0,0,4,4,0,,,,,,,424.56282154200017,424.56282154200017,425.5633552079962,426.42990479199216,426.6825802079984,426.6825802079984,426.6825802079984,427.56318312499207,427.56318312499207,427.56318312499207,427.56318312499207,428.5626939999929,200003,305,2023-04-07_13h31.26.599,DMS_et_12-36,2022.2.4,None,
53,UNPRED,12,1.1190475887562217,1,images/picture_2.png,images/picture_1.png,0,"[-11.733433509789466, -11.733433509789462]",-11.733433509789464,-11.733433509789462,images/picture_2.png,1,"[-11.733433509789462, 11.733433509789464]",-11.733433509789462,11.733433509789464,images/picture_3.png,2,"[11.733433509789462, -11.733433509789466]",11.733433509789462,-11.733433509789464,0,1,1,1.1190475887562217,2.1190475887562217,0.8809524112437783,3.0,1,1.8690475887562217,0,4.0,3.0,1,2,5,0,5,0,0,5,5,8,,,,,,,428.5626939999929,428.5626939999929,429.5629451249988,430.4298596669978,430.68267745799676,430.68267745799676,430.68267745799676,431.56322154199006,431.56322154199006,431.56322154199006,431.56322154199006,432.5818214579922,200003,305,2023-04-07_13h31.26.599,DMS_et_12-36,2022.2.4,None,
48,UNPRED,12,1.1190475887562217,2,images/picture_3.png,images/picture_1.png,0,"[-11.733433509789462, 11.733433509789464]",-11.733433509789462,11.733433509789464,images/picture_2.png,1,"[11.733433509789462, -11.733433509789466]",11.733433509789462,-11.733433509789464,images/picture_3.png,2,"[11.733433509789464, 11.733433509789462]",11.733433509789464,11.733433509789462,0,1,1,1.1190475887562217,2.1190475887562217,0.8809524112437783,3.0,1,1.8690475887562217,0,4.0,3.0,1,2,5,0,5,0,0,6,6,3,,,,,,,432.5818214579922,432.5818214579922,433.59659054200165,434.463330707993,434.6820665419946,434.6820665419946,434.6820665419946,435.563216458002,435.563216458002,435.563216458002,435.563216458002,436.56296016699343,200003,305,2023-04-07_13h31.26.599,DMS_et_12-36,2022.2.4,None,
49,UNPRED,12,1.1190475887562217,1,images/picture_2.png,images/picture_1.png,0,"[11.733433509789462, -11.733433509789466]",11.733433509789462,-11.733433509789464,images/picture_2.png,1,"[-11.733433509789462, 11.733433509789464]",-11.733433509789462,11.733433509789464,images/picture_3.png,2,"[-11.733433509789466, -11.733433509789462]",-11.733433509789464,-11.733433509789462,0,1,1,1.1190475887562217,2.1190475887562217,0.8809524112437783,3.0,1,1.8690475887562217,0,4.0,3.0,1,2,5,0,5,0,0,7,7,4,,,,,,,436.56296016699343,436.56296016699343,437.5632142079994,438.4297463749972,438.6821350419923,438.6821350419923,438.6821350419923,439.56309441699705,439.56309441699705,439.56309441699705,439.56309441699705,440.56303429199033,200003,305,2023-04-07_13h31.26.599,DMS_et_12-36,2022.2.4,None,
46,UNPRED,12,1.1190475887562217,0,images/picture_1.png,images/picture_1.png,0,"[11.733433509789464, 11.733433509789462]",11.733433509789464,11.733433509789462,images/picture_2.png,1,"[-11.733433509789466, -11.733433509789462]",-11.733433509789464,-11.733433509789462,images/picture_3.png,2,"[-11.733433509789462, 11.733433509789464]",-11.733433509789462,11.733433509789464,0,1,1,1.1190475887562217,2.1190475887562217,0.8809524112437783,3.0,1,1.8690475887562217,0,4.0,3.0,1,2,5,0,5,0,0,8,8,1,,,,,,,440.56303429199033,440.56303429199033,441.56320970799425,442.4299281669955,442.6824084580003,442.6824084580003,442.6824084580003,443.5632157499931,443.5632157499931,443.5632157499931,443.5632157499931,444.63852437499736,200003,305,2023-04-07_13h31.26.599,DMS_et_12-36,2022.2.4,None,
,,,,,,,,,,,,,,,,,,,,,,,,,,,,,,,,,,,5,0,5,0,,,,,,,,,444.63852437499736,456.6637809579988,,,,,,,,,,,,,200003,305,2023-04-07_13h31.26.599,DMS_et_12-36,2022.2.4,None,
60,PRED,12,1.1190475887562217,0,images/picture_1.png,images/picture_1.png,0,"[-11.733433509789466, -11.733433509789462]",-11.733433509789464,-11.733433509789462,images/picture_2.png,1,"[11.733433509789462, -11.733433509789466]",11.733433509789462,-11.733433509789464,images/picture_3.png,2,"[-11.733433509789462, 11.733433509789464]",-11.733433509789462,11.733433509789464,0,1,1,1.1190475887562217,2.1190475887562217,0.8809524112437783,3.0,1,1.8690475887562217,0,4.0,3.0,1,2,6,0,6,0,0,0,0,6,,,,,,,456.6637809579988,456.6637809579988,457.6631715419935,458.52994358299475,458.78257699999085,458.78257699999085,458.78257699999085,459.66304254200077,459.66304254200077,459.66304254200077,459.66304254200077,460.66297674999805,200003,305,2023-04-07_13h31.26.599,DMS_et_12-36,2022.2.4,None,
54,PRED,12,1.1190475887562217,0,images/picture_1.png,images/picture_1.png,0,"[-11.733433509789462, 11.733433509789464]",-11.733433509789462,11.733433509789464,images/picture_2.png,1,"[11.733433509789464, 11.733433509789462]",11.733433509789464,11.733433509789462,images/picture_3.png,2,"[-11.733433509789466, -11.733433509789462]",-11.733433509789464,-11.733433509789462,0,1,1,1.1190475887562217,2.1190475887562217,0.8809524112437783,3.0,1,1.8690475887562217,0,4.0,3.0,1,2,6,0,6,0,0,1,1,0,,,,,,,460.66297674999805,460.66297674999805,461.663494583001,462.5299177499983,462.7824053749937,462.7824053749937,462.7824053749937,463.6633365829912,463.6633365829912,463.6633365829912,463.6633365829912,464.6629144579929,200003,305,2023-04-07_13h31.26.599,DMS_et_12-36,2022.2.4,None,
62,PRED,12,1.1190475887562217,0,images/picture_1.png,images/picture_1.png,0,"[11.733433509789464, 11.733433509789462]",11.733433509789464,11.733433509789462,images/picture_2.png,1,"[11.733433509789462, -11.733433509789466]",11.733433509789462,-11.733433509789464,images/picture_3.png,2,"[-11.733433509789462, 11.733433509789464]",-11.733433509789462,11.733433509789464,0,1,1,1.1190475887562217,2.1190475887562217,0.8809524112437783,3.0,1,1.8690475887562217,0,4.0,3.0,1,2,6,0,6,0,0,2,2,8,,,,,,,464.6629144579929,464.6629144579929,465.66315849999955,466.52989858300134,466.78243900000234,466.78243900000234,466.78243900000234,467.6634999579983,467.6634999579983,467.6634999579983,467.6634999579983,468.66267741699994,200003,305,2023-04-07_13h31.26.599,DMS_et_12-36,2022.2.4,None,
55,PRED,12,1.1190475887562217,0,images/picture_1.png,images/picture_1.png,0,"[-11.733433509789462, 11.733433509789464]",-11.733433509789462,11.733433509789464,images/picture_2.png,1,"[-11.733433509789466, -11.733433509789462]",-11.733433509789464,-11.733433509789462,images/picture_3.png,2,"[11.733433509789462, -11.733433509789466]",11.733433509789462,-11.733433509789464,0,1,1,1.1190475887562217,2.1190475887562217,0.8809524112437783,3.0,1,1.8690475887562217,0,4.0,3.0,1,2,6,0,6,0,0,3,3,1,,,,,,,468.66267741699994,468.66267741699994,469.66335779200017,470.52970133299823,470.78181120799854,470.78181120799854,470.78181120799854,471.66321358300047,471.66321358300047,471.66321358300047,471.66321358300047,472.66285824999795,200003,305,2023-04-07_13h31.26.599,DMS_et_12-36,2022.2.4,None,
57,PRED,12,1.1190475887562217,0,images/picture_1.png,images/picture_1.png,0,"[-11.733433509789466, -11.733433509789462]",-11.733433509789464,-11.733433509789462,images/picture_2.png,1,"[11.733433509789464, 11.733433509789462]",11.733433509789464,11.733433509789462,images/picture_3.png,2,"[11.733433509789462, -11.733433509789466]",11.733433509789462,-11.733433509789464,0,1,1,1.1190475887562217,2.1190475887562217,0.8809524112437783,3.0,1,1.8690475887562217,0,4.0,3.0,1,2,6,0,6,0,0,4,4,3,,,,,,,472.66285824999795,472.66285824999795,473.663491416999,474.5301029580005,474.7826956249919,474.7826956249919,474.7826956249919,475.66337983300036,475.66337983300036,475.66337983300036,475.66337983300036,476.6633029579971,200003,305,2023-04-07_13h31.26.599,DMS_et_12-36,2022.2.4,None,
56,PRED,12,1.1190475887562217,0,images/picture_1.png,images/picture_1.png,0,"[11.733433509789464, 11.733433509789462]",11.733433509789464,11.733433509789462,images/picture_2.png,1,"[-11.733433509789462, 11.733433509789464]",-11.733433509789462,11.733433509789464,images/picture_3.png,2,"[11.733433509789462, -11.733433509789466]",11.733433509789462,-11.733433509789464,0,1,1,1.1190475887562217,2.1190475887562217,0.8809524112437783,3.0,1,1.8690475887562217,0,4.0,3.0,1,2,6,0,6,0,0,5,5,2,,,,,,,476.6633029579971,476.6633029579971,477.6631579579989,478.5298902499926,478.7825752499921,478.7825752499921,478.7825752499921,479.6632690419938,479.6632690419938,479.6632690419938,479.6632690419938,480.66308774999925,200003,305,2023-04-07_13h31.26.599,DMS_et_12-36,2022.2.4,None,
61,PRED,12,1.1190475887562217,0,images/picture_1.png,images/picture_1.png,0,"[-11.733433509789462, 11.733433509789464]",-11.733433509789462,11.733433509789464,images/picture_2.png,1,"[11.733433509789464, 11.733433509789462]",11.733433509789464,11.733433509789462,images/picture_3.png,2,"[-11.733433509789466, -11.733433509789462]",-11.733433509789464,-11.733433509789462,0,1,1,1.1190475887562217,2.1190475887562217,0.8809524112437783,3.0,1,1.8690475887562217,0,4.0,3.0,1,2,6,0,6,0,0,6,6,7,,,,,,,480.66308774999925,480.66308774999925,481.6633837919944,482.5300870420033,482.78307470800064,482.78307470800064,482.78307470800064,483.6633410420036,483.6633410420036,483.6633410420036,483.6633410420036,484.66281100000197,200003,305,2023-04-07_13h31.26.599,DMS_et_12-36,2022.2.4,None,
58,PRED,12,1.1190475887562217,0,images/picture_1.png,images/picture_1.png,0,"[11.733433509789464, 11.733433509789462]",11.733433509789464,11.733433509789462,images/picture_2.png,1,"[-11.733433509789462, 11.733433509789464]",-11.733433509789462,11.733433509789464,images/picture_3.png,2,"[-11.733433509789466, -11.733433509789462]",-11.733433509789464,-11.733433509789462,0,1,1,1.1190475887562217,2.1190475887562217,0.8809524112437783,3.0,1,1.8690475887562217,0,4.0,3.0,1,2,6,0,6,0,0,7,7,4,,,,,,,484.66281100000197,484.66281100000197,485.6630541249906,486.529925291994,486.7826865829993,486.7826865829993,486.7826865829993,487.66336612499435,487.66336612499435,487.66336612499435,487.66336612499435,488.6632505000016,200003,305,2023-04-07_13h31.26.599,DMS_et_12-36,2022.2.4,None,
59,PRED,12,1.1190475887562217,0,images/picture_1.png,images/picture_1.png,0,"[11.733433509789462, -11.733433509789466]",11.733433509789462,-11.733433509789464,images/picture_2.png,1,"[-11.733433509789466, -11.733433509789462]",-11.733433509789464,-11.733433509789462,images/picture_3.png,2,"[11.733433509789464, 11.733433509789462]",11.733433509789464,11.733433509789462,0,1,1,1.1190475887562217,2.1190475887562217,0.8809524112437783,3.0,1,1.8690475887562217,0,4.0,3.0,1,2,6,0,6,0,0,8,8,5,,,,,,,488.6632505000016,488.6632505000016,489.66334091700264,490.5296645829949,490.7818200420006,490.7818200420006,490.7818200420006,491.6632857079967,491.6632857079967,491.6632857079967,491.6632857079967,492.7412078329944,200003,305,2023-04-07_13h31.26.599,DMS_et_12-36,2022.2.4,None,
,,,,,,,,,,,,,,,,,,,,,,,,,,,,,,,,,,,6,0,6,0,,,,,,,,,492.7412078329944,504.76686674999655,,,,,,,,,,,,,200003,305,2023-04-07_13h31.26.599,DMS_et_12-36,2022.2.4,None,
63,UNPRED,12,1.1190475887562217,1,images/picture_2.png,images/picture_1.png,0,"[-11.733433509789466, -11.733433509789462]",-11.733433509789464,-11.733433509789462,images/picture_2.png,1,"[11.733433509789462, -11.733433509789466]",11.733433509789462,-11.733433509789464,images/picture_3.png,2,"[-11.733433509789462, 11.733433509789464]",-11.733433509789462,11.733433509789464,0,1,1,1.1190475887562217,2.1190475887562217,0.8809524112437783,3.0,1,1.8690475887562217,0,4.0,3.0,1,2,7,0,7,0,0,0,0,0,,,,,,,504.76686674999655,504.76686674999655,505.7634065829916,506.64908879199356,506.8831135419896,506.8831135419896,506.8831135419896,507.76338812499307,507.76338812499307,507.76338812499307,507.76338812499307,508.78256429199246,200003,305,2023-04-07_13h31.26.599,DMS_et_12-36,2022.2.4,None,
66,UNPRED,12,1.1190475887562217,2,images/picture_3.png,images/picture_1.png,0,"[11.733433509789464, 11.733433509789462]",11.733433509789464,11.733433509789462,images/picture_2.png,1,"[11.733433509789462, -11.733433509789466]",11.733433509789462,-11.733433509789464,images/picture_3.png,2,"[-11.733433509789462, 11.733433509789464]",-11.733433509789462,11.733433509789464,0,1,1,1.1190475887562217,2.1190475887562217,0.8809524112437783,3.0,1,1.8690475887562217,0,4.0,3.0,1,2,7,0,7,0,0,1,1,3,,,,,,,508.78256429199246,508.78256429199246,509.79667087500275,510.66332762499223,510.88188474999333,510.88188474999333,510.88188474999333,511.7630233329983,511.7630233329983,511.7630233329983,511.7630233329983,512.7629630829906,200003,305,2023-04-07_13h31.26.599,DMS_et_12-36,2022.2.4,None,
68,UNPRED,12,1.1190475887562217,0,images/picture_1.png,images/picture_1.png,0,"[11.733433509789464, 11.733433509789462]",11.733433509789464,11.733433509789462,images/picture_2.png,1,"[-11.733433509789462, 11.733433509789464]",-11.733433509789462,11.733433509789464,images/picture_3.png,2,"[-11.733433509789466, -11.733433509789462]",-11.733433509789464,-11.733433509789462,0,1,1,1.1190475887562217,2.1190475887562217,0.8809524112437783,3.0,1,1.8690475887562217,0,4.0,3.0,1,2,7,0,7,0,0,2,2,5,,,,,,,512.7629630829906,512.7629630829906,513.7633622499998,514.6300771249953,514.8828168329928,514.8828168329928,514.8828168329928,515.7634696250025,515.7634696250025,515.7634696250025,515.7634696250025,516.7629204169934,200003,305,2023-04-07_13h31.26.599,DMS_et_12-36,2022.2.4,None,
70,UNPRED,12,1.1190475887562217,0,images/picture_1.png,images/picture_1.png,0,"[11.733433509789462, -11.733433509789466]",11.733433509789462,-11.733433509789464,images/picture_2.png,1,"[-11.733433509789466, -11.733433509789462]",-11.733433509789464,-11.733433509789462,images/picture_3.png,2,"[11.733433509789464, 11.733433509789462]",11.733433509789464,11.733433509789462,0,1,1,1.1190475887562217,2.1190475887562217,0.8809524112437783,3.0,1,1.8690475887562217,0,4.0,3.0,1,2,7,0,7,0,0,3,3,7,,,,,,,516.7629204169934,516.7629204169934,517.7634192919941,518.6297599999962,518.8826196669979,518.8826196669979,518.8826196669979,519.7633992499905,519.7633992499905,519.7633992499905,519.7633992499905,520.7630632499931,200003,305,2023-04-07_13h31.26.599,DMS_et_12-36,2022.2.4,None,
65,UNPRED,12,1.1190475887562217,0,images/picture_1.png,images/picture_1.png,0,"[11.733433509789462, -11.733433509789466]",11.733433509789462,-11.733433509789464,images/picture_2.png,1,"[11.733433509789464, 11.733433509789462]",11.733433509789464,11.733433509789462,images/picture_3.png,2,"[-11.733433509789466, -11.733433509789462]",-11.733433509789464,-11.733433509789462,0,1,1,1.1190475887562217,2.1190475887562217,0.8809524112437783,3.0,1,1.8690475887562217,0,4.0,3.0,1,2,7,0,7,0,0,4,4,2,,,,,,,520.7630632499931,520.7630632499931,521.7630913329922,522.6299005829933,522.8831489579898,522.8831489579898,522.8831489579898,523.7634612080001,523.7634612080001,523.7634612080001,523.7634612080001,524.782037625002,200003,305,2023-04-07_13h31.26.599,DMS_et_12-36,2022.2.4,None,
71,UNPRED,12,1.1190475887562217,2,images/picture_3.png,images/picture_1.png,0,"[-11.733433509789466, -11.733433509789462]",-11.733433509789464,-11.733433509789462,images/picture_2.png,1,"[11.733433509789462, -11.733433509789466]",11.733433509789462,-11.733433509789464,images/picture_3.png,2,"[-11.733433509789462, 11.733433509789464]",-11.733433509789462,11.733433509789464,0,1,1,1.1190475887562217,2.1190475887562217,0.8809524112437783,3.0,1,1.8690475887562217,0,4.0,3.0,1,2,7,0,7,0,0,5,5,8,,,,,,,524.782037625002,524.782037625002,525.7966811669903,526.6633621669898,526.8827606669947,526.8827606669947,526.8827606669947,527.7632498329913,527.7632498329913,527.7632498329913,527.7632498329913,528.7826102499967,200003,305,2023-04-07_13h31.26.599,DMS_et_12-36,2022.2.4,None,
69,UNPRED,12,1.1190475887562217,1,images/picture_2.png,images/picture_1.png,0,"[11.733433509789462, -11.733433509789466]",11.733433509789462,-11.733433509789464,images/picture_2.png,1,"[-11.733433509789466, -11.733433509789462]",-11.733433509789464,-11.733433509789462,images/picture_3.png,2,"[11.733433509789464, 11.733433509789462]",11.733433509789464,11.733433509789462,0,1,1,1.1190475887562217,2.1190475887562217,0.8809524112437783,3.0,1,1.8690475887562217,0,4.0,3.0,1,2,7,0,7,0,0,6,6,6,,,,,,,528.7826102499967,528.7826102499967,529.7966720419936,530.6632698329922,530.882754582999,530.882754582999,530.882754582999,531.7630592920032,531.7630592920032,531.7630592920032,531.7630592920032,532.7819417080027,200003,305,2023-04-07_13h31.26.599,DMS_et_12-36,2022.2.4,None,
67,UNPRED,12,1.1190475887562217,2,images/picture_3.png,images/picture_1.png,0,"[11.733433509789462, -11.733433509789466]",11.733433509789462,-11.733433509789464,images/picture_2.png,1,"[11.733433509789464, 11.733433509789462]",11.733433509789464,11.733433509789462,images/picture_3.png,2,"[-11.733433509789462, 11.733433509789464]",-11.733433509789462,11.733433509789464,0,1,1,1.1190475887562217,2.1190475887562217,0.8809524112437783,3.0,1,1.8690475887562217,0,4.0,3.0,1,2,7,0,7,0,0,7,7,4,,,,,,,532.7819417080027,532.7819417080027,533.7967587500025,534.6633768750035,534.8830312079954,534.8830312079954,534.8830312079954,535.7633862919902,535.7633862919902,535.7633862919902,535.7633862919902,536.762944749993,200003,305,2023-04-07_13h31.26.599,DMS_et_12-36,2022.2.4,None,
64,UNPRED,12,1.1190475887562217,0,images/picture_1.png,images/picture_1.png,0,"[11.733433509789462, -11.733433509789466]",11.733433509789462,-11.733433509789464,images/picture_2.png,1,"[-11.733433509789462, 11.733433509789464]",-11.733433509789462,11.733433509789464,images/picture_3.png,2,"[11.733433509789464, 11.733433509789462]",11.733433509789464,11.733433509789462,0,1,1,1.1190475887562217,2.1190475887562217,0.8809524112437783,3.0,1,1.8690475887562217,0,4.0,3.0,1,2,7,0,7,0,0,8,8,1,,,,,,,536.762944749993,536.762944749993,537.7633729999943,538.6301011250034,538.8833011669922,538.8833011669922,538.8833011669922,539.7632805419998,539.7632805419998,539.7632805419998,539.7632805419998,540.8526998750021,200003,305,2023-04-07_13h31.26.599,DMS_et_12-36,2022.2.4,None,
,,,,,,,,,,,,,,,,,,,,,,,,,,,,,,,,,,,7,0,7,0,,,,,,,,,540.8526998750021,552.8822273330006,,,,,,,,,,,,,200003,305,2023-04-07_13h31.26.599,DMS_et_12-36,2022.2.4,None,
77,PRED,12,1.1190475887562217,2,images/picture_3.png,images/picture_1.png,0,"[11.733433509789462, -11.733433509789466]",11.733433509789462,-11.733433509789464,images/picture_2.png,1,"[11.733433509789464, 11.733433509789462]",11.733433509789464,11.733433509789462,images/picture_3.png,2,"[-11.733433509789462, 11.733433509789464]",-11.733433509789462,11.733433509789464,0,1,1,1.1190475887562217,2.1190475887562217,0.8809524112437783,3.0,1,1.8690475887562217,0,4.0,3.0,1,2,8,0,8,0,0,0,0,5,,,,,,,552.8822273330006,552.8822273330006,553.8967093749961,554.7632857080025,554.9966370420007,554.9966370420007,554.9966370420007,555.8827597499912,555.8827597499912,555.8827597499912,555.8634292079951,556.8821829169901,200003,305,2023-04-07_13h31.26.599,DMS_et_12-36,2022.2.4,None,
76,PRED,12,1.1190475887562217,2,images/picture_3.png,images/picture_1.png,0,"[-11.733433509789466, -11.733433509789462]",-11.733433509789464,-11.733433509789462,images/picture_2.png,1,"[11.733433509789462, -11.733433509789466]",11.733433509789462,-11.733433509789464,images/picture_3.png,2,"[11.733433509789464, 11.733433509789462]",11.733433509789464,11.733433509789462,0,1,1,1.1190475887562217,2.1190475887562217,0.8809524112437783,3.0,1,1.8690475887562217,0,4.0,3.0,1,2,8,0,8,0,0,1,1,4,,,,,,,556.8821829169901,556.8821829169901,557.8966705829953,558.7633745420026,558.9826445829967,558.9826445829967,558.9826445829967,559.8634423329931,559.8634423329931,559.8634423329931,559.8634423329931,560.8820540829911,200003,305,2023-04-07_13h31.26.599,DMS_et_12-36,2022.2.4,None,
80,PRED,12,1.1190475887562217,2,images/picture_3.png,images/picture_1.png,0,"[-11.733433509789462, 11.733433509789464]",-11.733433509789462,11.733433509789464,images/picture_2.png,1,"[11.733433509789462, -11.733433509789466]",11.733433509789462,-11.733433509789464,images/picture_3.png,2,"[11.733433509789464, 11.733433509789462]",11.733433509789464,11.733433509789462,0,1,1,1.1190475887562217,2.1190475887562217,0.8809524112437783,3.0,1,1.8690475887562217,0,4.0,3.0,1,2,8,0,8,0,0,2,2,8,,,,,,,560.8820540829911,560.8820540829911,561.896864957991,562.7631221670017,562.9819703749963,562.9819703749963,562.9819703749963,563.8633790000022,563.8633790000022,563.8633790000022,563.8633790000022,564.8821223749983,200003,305,2023-04-07_13h31.26.599,DMS_et_12-36,2022.2.4,None,
72,PRED,12,1.1190475887562217,2,images/picture_3.png,images/picture_1.png,0,"[-11.733433509789466, -11.733433509789462]",-11.733433509789464,-11.733433509789462,images/picture_2.png,1,"[11.733433509789464, 11.733433509789462]",11.733433509789464,11.733433509789462,images/picture_3.png,2,"[-11.733433509789462, 11.733433509789464]",-11.733433509789462,11.733433509789464,0,1,1,1.1190475887562217,2.1190475887562217,0.8809524112437783,3.0,1,1.8690475887562217,0,4.0,3.0,1,2,8,0,8,0,0,3,3,0,,,,,,,564.8821223749983,564.8821223749983,565.8966764999932,566.7632295419899,566.98302637499,566.98302637499,566.98302637499,567.8634272920026,567.8634272920026,567.8634272920026,567.8634272920026,568.8826729580032,200003,305,2023-04-07_13h31.26.599,DMS_et_12-36,2022.2.4,None,
74,PRED,12,1.1190475887562217,2,images/picture_3.png,images/picture_1.png,0,"[11.733433509789464, 11.733433509789462]",11.733433509789464,11.733433509789462,images/picture_2.png,1,"[-11.733433509789462, 11.733433509789464]",-11.733433509789462,11.733433509789464,images/picture_3.png,2,"[-11.733433509789466, -11.733433509789462]",-11.733433509789464,-11.733433509789462,0,1,1,1.1190475887562217,2.1190475887562217,0.8809524112437783,3.0,1,1.8690475887562217,0,4.0,3.0,1,2,8,0,8,0,0,4,4,2,,,,,,,568.8826729580032,568.8826729580032,569.8966710419918,570.7634053749935,570.9827846249973,570.9827846249973,570.9827846249973,571.8633571669925,571.8633571669925,571.8633571669925,571.8633571669925,572.8637617499917,200003,305,2023-04-07_13h31.26.599,DMS_et_12-36,2022.2.4,None,
78,PRED,12,1.1190475887562217,2,images/picture_3.png,images/picture_1.png,0,"[11.733433509789464, 11.733433509789462]",11.733433509789464,11.733433509789462,images/picture_2.png,1,"[-11.733433509789466, -11.733433509789462]",-11.733433509789464,-11.733433509789462,images/picture_3.png,2,"[11.733433509789462, -11.733433509789466]",11.733433509789462,-11.733433509789464,0,1,1,1.1190475887562217,2.1190475887562217,0.8809524112437783,3.0,1,1.8690475887562217,0,4.0,3.0,1,2,8,0,8,0,0,5,5,6,,,,,,,572.8637617499917,572.8637617499917,573.8634034580027,574.7301238749933,574.9829969580023,574.9829969580023,574.9829969580023,575.8633751250018,575.8633751250018,575.8633751250018,575.8633751250018,576.8823466250033,200003,305,2023-04-07_13h31.26.599,DMS_et_12-36,2022.2.4,None,
73,PRED,12,1.1190475887562217,2,images/picture_3.png,images/picture_1.png,0,"[11.733433509789462, -11.733433509789466]",11.733433509789462,-11.733433509789464,images/picture_2.png,1,"[-11.733433509789462, 11.733433509789464]",-11.733433509789462,11.733433509789464,images/picture_3.png,2,"[11.733433509789464, 11.733433509789462]",11.733433509789464,11.733433509789462,0,1,1,1.1190475887562217,2.1190475887562217,0.8809524112437783,3.0,1,1.8690475887562217,0,4.0,3.0,1,2,8,0,8,0,0,6,6,1,,,,,,,576.8823466250033,576.8823466250033,577.8966348329996,578.7632350829954,578.982574041991,578.982574041991,578.982574041991,579.863400125003,579.863400125003,579.863400125003,579.863400125003,580.8826445000013,200003,305,2023-04-07_13h31.26.599,DMS_et_12-36,2022.2.4,None,
79,PRED,12,1.1190475887562217,2,images/picture_3.png,images/picture_1.png,0,"[-11.733433509789466, -11.733433509789462]",-11.733433509789464,-11.733433509789462,images/picture_2.png,1,"[11.733433509789462, -11.733433509789466]",11.733433509789462,-11.733433509789464,images/picture_3.png,2,"[-11.733433509789462, 11.733433509789464]",-11.733433509789462,11.733433509789464,0,1,1,1.1190475887562217,2.1190475887562217,0.8809524112437783,3.0,1,1.8690475887562217,0,4.0,3.0,1,2,8,0,8,0,0,7,7,7,,,,,,,580.8826445000013,580.8826445000013,581.8968762919976,582.7632068329985,582.9820766249904,582.9820766249904,582.9820766249904,583.8634096669994,583.8634096669994,583.8634096669994,583.8634096669994,584.8822899579973,200003,305,2023-04-07_13h31.26.599,DMS_et_12-36,2022.2.4,None,
75,PRED,12,1.1190475887562217,2,images/picture_3.png,images/picture_1.png,0,"[-11.733433509789466, -11.733433509789462]",-11.733433509789464,-11.733433509789462,images/picture_2.png,1,"[-11.733433509789462, 11.733433509789464]",-11.733433509789462,11.733433509789464,images/picture_3.png,2,"[11.733433509789464, 11.733433509789462]",11.733433509789464,11.733433509789462,0,1,1,1.1190475887562217,2.1190475887562217,0.8809524112437783,3.0,1,1.8690475887562217,0,4.0,3.0,1,2,8,0,8,0,0,8,8,3,,,,,,,584.8822899579973,584.8822899579973,585.8968584999966,586.7634284169908,586.9830680419982,586.9830680419982,586.9830680419982,587.8634383329918,587.8634383329918,587.8634383329918,587.8634383329918,588.9630864579958,200003,305,2023-04-07_13h31.26.599,DMS_et_12-36,2022.2.4,None,
,,,,,,,,,,,,,,,,,,,,,,,,,,,,,,,,,,,8,0,8,0,,,,,,,,,588.9630864579958,600.990103958,,,,,,,,,,,,,200003,305,2023-04-07_13h31.26.599,DMS_et_12-36,2022.2.4,None,
81,UNPRED,12,1.1190475887562217,0,images/picture_1.png,images/picture_1.png,0,"[11.733433509789464, 11.733433509789462]",11.733433509789464,11.733433509789462,images/picture_2.png,1,"[11.733433509789462, -11.733433509789466]",11.733433509789462,-11.733433509789464,images/picture_3.png,2,"[-11.733433509789466, -11.733433509789462]",-11.733433509789464,-11.733433509789462,0,1,1,1.1190475887562217,2.1190475887562217,0.8809524112437783,3.0,1,1.8690475887562217,0,4.0,3.0,1,2,9,0,9,0,0,0,0,0,,,,,,,600.990103958,600.990103958,601.9966557079897,602.8634119999915,603.0965349999897,603.0965349999897,603.0965349999897,603.9823097499902,603.9823097499902,603.9823097499902,603.9823097499902,604.9962556669925,200003,305,2023-04-07_13h31.26.599,DMS_et_12-36,2022.2.4,None,
86,UNPRED,12,1.1190475887562217,0,images/picture_1.png,images/picture_1.png,0,"[11.733433509789462, -11.733433509789466]",11.733433509789462,-11.733433509789464,images/picture_2.png,1,"[-11.733433509789462, 11.733433509789464]",-11.733433509789462,11.733433509789464,images/picture_3.png,2,"[11.733433509789464, 11.733433509789462]",11.733433509789464,11.733433509789462,0,1,1,1.1190475887562217,2.1190475887562217,0.8809524112437783,3.0,1,1.8690475887562217,0,4.0,3.0,1,2,9,0,9,0,0,1,1,5,,,,,,,604.9962556669925,604.9962556669925,605.9968013329926,606.8633825419965,607.1160399169894,607.1160399169894,607.1160399169894,607.9966546670039,607.9966546670039,607.9966546670039,607.9966546670039,609.0152180419973,200003,305,2023-04-07_13h31.26.599,DMS_et_12-36,2022.2.4,None,
85,UNPRED,12,1.1190475887562217,2,images/picture_3.png,images/picture_1.png,0,"[-11.733433509789466, -11.733433509789462]",-11.733433509789464,-11.733433509789462,images/picture_2.png,1,"[-11.733433509789462, 11.733433509789464]",-11.733433509789462,11.733433509789464,images/picture_3.png,2,"[11.733433509789462, -11.733433509789466]",11.733433509789462,-11.733433509789464,0,1,1,1.1190475887562217,2.1190475887562217,0.8809524112437783,3.0,1,1.8690475887562217,0,4.0,3.0,1,2,9,0,9,0,0,2,2,4,,,,,,,609.0152180419973,609.0152180419973,610.0301196669898,610.8966881669912,611.1159635419899,611.1159635419899,611.1159635419899,611.996821666995,611.996821666995,611.996821666995,611.996821666995,613.0162662079965,200003,305,2023-04-07_13h31.26.599,DMS_et_12-36,2022.2.4,None,
83,UNPRED,12,1.1190475887562217,1,images/picture_2.png,images/picture_1.png,0,"[-11.733433509789462, 11.733433509789464]",-11.733433509789462,11.733433509789464,images/picture_2.png,1,"[11.733433509789464, 11.733433509789462]",11.733433509789464,11.733433509789462,images/picture_3.png,2,"[11.733433509789462, -11.733433509789466]",11.733433509789462,-11.733433509789464,0,1,1,1.1190475887562217,2.1190475887562217,0.8809524112437783,3.0,1,1.8690475887562217,0,4.0,3.0,1,2,9,0,9,0,0,3,3,2,,,,,,,613.0162662079965,613.0162662079965,614.029912041995,614.8968809999933,615.1160811250011,615.1160811250011,615.1160811250011,615.9968220419978,615.9968220419978,615.9968220419978,615.9968220419978,616.9960064579936,200003,305,2023-04-07_13h31.26.599,DMS_et_12-36,2022.2.4,None,
89,UNPRED,12,1.1190475887562217,0,images/picture_1.png,images/picture_1.png,0,"[11.733433509789462, -11.733433509789466]",11.733433509789462,-11.733433509789464,images/picture_2.png,1,"[-11.733433509789466, -11.733433509789462]",-11.733433509789464,-11.733433509789462,images/picture_3.png,2,"[-11.733433509789462, 11.733433509789464]",-11.733433509789462,11.733433509789464,0,1,1,1.1190475887562217,2.1190475887562217,0.8809524112437783,3.0,1,1.8690475887562217,0,4.0,3.0,1,2,9,0,9,0,0,4,4,8,,,,,,,616.9960064579936,616.9960064579936,617.9966152919951,618.863156499996,619.115619624994,619.115619624994,619.115619624994,619.9964271249919,619.9964271249919,619.9964271249919,619.9964271249919,620.9960112080007,200003,305,2023-04-07_13h31.26.599,DMS_et_12-36,2022.2.4,None,
84,UNPRED,12,1.1190475887562217,0,images/picture_1.png,images/picture_1.png,0,"[11.733433509789462, -11.733433509789466]",11.733433509789462,-11.733433509789464,images/picture_2.png,1,"[-11.733433509789466, -11.733433509789462]",-11.733433509789464,-11.733433509789462,images/picture_3.png,2,"[-11.733433509789462, 11.733433509789464]",-11.733433509789462,11.733433509789464,0,1,1,1.1190475887562217,2.1190475887562217,0.8809524112437783,3.0,1,1.8690475887562217,0,4.0,3.0,1,2,9,0,9,0,0,5,5,3,,,,,,,620.9960112080007,620.9960112080007,621.996572249991,622.8631343329907,623.1156879579939,623.1156879579939,623.1156879579939,623.9962173329986,623.9962173329986,623.9962173329986,623.9962173329986,624.9964768749924,200003,305,2023-04-07_13h31.26.599,DMS_et_12-36,2022.2.4,None,
88,UNPRED,12,1.1190475887562217,1,images/picture_2.png,images/picture_1.png,0,"[-11.733433509789466, -11.733433509789462]",-11.733433509789464,-11.733433509789462,images/picture_2.png,1,"[-11.733433509789462, 11.733433509789464]",-11.733433509789462,11.733433509789464,images/picture_3.png,2,"[11.733433509789462, -11.733433509789466]",11.733433509789462,-11.733433509789464,0,1,1,1.1190475887562217,2.1190475887562217,0.8809524112437783,3.0,1,1.8690475887562217,0,4.0,3.0,1,2,9,0,9,0,0,6,6,7,,,,,,,624.9964768749924,624.9964768749924,625.996379624994,626.8631359999999,627.1165151669993,627.1165151669993,627.1165151669993,627.9963992080011,627.9963992080011,627.9963992080011,627.9963992080011,628.9955633329955,200003,305,2023-04-07_13h31.26.599,DMS_et_12-36,2022.2.4,None,
82,UNPRED,12,1.1190475887562217,0,images/picture_1.png,images/picture_1.png,0,"[11.733433509789462, -11.733433509789466]",11.733433509789462,-11.733433509789464,images/picture_2.png,1,"[11.733433509789464, 11.733433509789462]",11.733433509789464,11.733433509789462,images/picture_3.png,2,"[-11.733433509789466, -11.733433509789462]",-11.733433509789464,-11.733433509789462,0,1,1,1.1190475887562217,2.1190475887562217,0.8809524112437783,3.0,1,1.8690475887562217,0,4.0,3.0,1,2,9,0,9,0,0,7,7,1,,,,,,,628.9955633329955,628.9955633329955,629.9965526669985,630.863134166997,631.1158960419998,631.1158960419998,631.1158960419998,631.996371125002,631.996371125002,631.996371125002,631.996371125002,632.9962175419932,200003,305,2023-04-07_13h31.26.599,DMS_et_12-36,2022.2.4,None,
87,UNPRED,12,1.1190475887562217,0,images/picture_1.png,images/picture_1.png,0,"[11.733433509789464, 11.733433509789462]",11.733433509789464,11.733433509789462,images/picture_2.png,1,"[-11.733433509789462, 11.733433509789464]",-11.733433509789462,11.733433509789464,images/picture_3.png,2,"[-11.733433509789466, -11.733433509789462]",-11.733433509789464,-11.733433509789462,0,1,1,1.1190475887562217,2.1190475887562217,0.8809524112437783,3.0,1,1.8690475887562217,0,4.0,3.0,1,2,9,0,9,0,0,8,8,6,,,,,,,632.9962175419932,632.9962175419932,633.9961176669894,634.8629802919895,635.115736666994,635.115736666994,635.115736666994,635.9967040420015,635.9967040420015,635.9967040420015,635.9967040420015,637.1019853749895,200003,305,2023-04-07_13h31.26.599,DMS_et_12-36,2022.2.4,None,
,,,,,,,,,,,,,,,,,,,,,,,,,,,,,,,,,,,9,0,9,0,,,,,,,,,637.1019853749895,649.1481213749939,,,,,,,,,,,,,200003,305,2023-04-07_13h31.26.599,DMS_et_12-36,2022.2.4,None,
98,PRED,12,1.1190475887562217,2,images/picture_3.png,images/picture_1.png,0,"[-11.733433509789462, 11.733433509789464]",-11.733433509789462,11.733433509789464,images/picture_2.png,1,"[-11.733433509789466, -11.733433509789462]",-11.733433509789464,-11.733433509789462,images/picture_3.png,2,"[11.733433509789462, -11.733433509789466]",11.733433509789462,-11.733433509789464,0,1,1,1.1190475887562217,2.1190475887562217,0.8809524112437783,3.0,1,1.8690475887562217,0,4.0,3.0,1,2,10,0,10,0,0,0,0,8,,,,,,,649.1481213749939,649.1481213749939,650.1633869999932,651.0299570829957,651.263155749999,651.263155749999,651.263155749999,652.1492424169992,652.1492424169992,652.1492424169992,652.1299627499975,653.1485793750035,200003,305,2023-04-07_13h31.26.599,DMS_et_12-36,2022.2.4,None,
93,PRED,12,1.1190475887562217,2,images/picture_3.png,images/picture_1.png,0,"[11.733433509789464, 11.733433509789462]",11.733433509789464,11.733433509789462,images/picture_2.png,1,"[11.733433509789462, -11.733433509789466]",11.733433509789462,-11.733433509789464,images/picture_3.png,2,"[-11.733433509789466, -11.733433509789462]",-11.733433509789464,-11.733433509789462,0,1,1,1.1190475887562217,2.1190475887562217,0.8809524112437783,3.0,1,1.8690475887562217,0,4.0,3.0,1,2,10,0,10,0,0,1,1,3,,,,,,,653.1485793750035,653.1485793750035,654.1632373329921,655.0296180419973,655.2485707500018,655.2485707500018,655.2485707500018,656.1298850829917,656.1298850829917,656.1298850829917,656.1298850829917,657.1489464579936,200003,305,2023-04-07_13h31.26.599,DMS_et_12-36,2022.2.4,None,
96,PRED,12,1.1190475887562217,2,images/picture_3.png,images/picture_1.png,0,"[11.733433509789462, -11.733433509789466]",11.733433509789462,-11.733433509789464,images/picture_2.png,1,"[-11.733433509789462, 11.733433509789464]",-11.733433509789462,11.733433509789464,images/picture_3.png,2,"[11.733433509789464, 11.733433509789462]",11.733433509789464,11.733433509789462,0,1,1,1.1190475887562217,2.1190475887562217,0.8809524112437783,3.0,1,1.8690475887562217,0,4.0,3.0,1,2,10,0,10,0,0,2,2,6,,,,,,,657.1489464579936,657.1489464579936,658.1632982919982,659.0299318749894,659.2492176249943,659.2492176249943,659.2492176249943,660.129915707992,660.129915707992,660.129915707992,660.129915707992,661.1484267079941,200003,305,2023-04-07_13h31.26.599,DMS_et_12-36,2022.2.4,None,
90,PRED,12,1.1190475887562217,2,images/picture_3.png,images/picture_1.png,0,"[-11.733433509789466, -11.733433509789462]",-11.733433509789464,-11.733433509789462,images/picture_2.png,1,"[11.733433509789462, -11.733433509789466]",11.733433509789462,-11.733433509789464,images/picture_3.png,2,"[11.733433509789464, 11.733433509789462]",11.733433509789464,11.733433509789462,0,1,1,1.1190475887562217,2.1190475887562217,0.8809524112437783,3.0,1,1.8690475887562217,0,4.0,3.0,1,2,10,0,10,0,0,3,3,0,,,,,,,661.1484267079941,661.1484267079941,662.1633499169984,663.0299413750035,663.2491664169938,663.2491664169938,663.2491664169938,664.1298962080036,664.1298962080036,664.1298962080036,664.1298962080036,665.1308618329931,200003,305,2023-04-07_13h31.26.599,DMS_et_12-36,2022.2.4,None,
92,PRED,12,1.1190475887562217,2,images/picture_3.png,images/picture_1.png,0,"[11.733433509789464, 11.733433509789462]",11.733433509789464,11.733433509789462,images/picture_2.png,1,"[-11.733433509789466, -11.733433509789462]",-11.733433509789464,-11.733433509789462,images/picture_3.png,2,"[11.733433509789462, -11.733433509789466]",11.733433509789462,-11.733433509789464,0,1,1,1.1190475887562217,2.1190475887562217,0.8809524112437783,3.0,1,1.8690475887562217,0,4.0,3.0,1,2,10,0,10,0,0,4,4,2,,,,,,,665.1308618329931,665.1308618329931,666.1299085420032,666.9963785829896,667.249814499999,667.249814499999,667.249814499999,668.1298925829906,668.1298925829906,668.1298925829906,668.1298925829906,669.1492244169931,200003,305,2023-04-07_13h31.26.599,DMS_et_12-36,2022.2.4,None,
94,PRED,12,1.1190475887562217,2,images/picture_3.png,images/picture_1.png,0,"[11.733433509789464, 11.733433509789462]",11.733433509789464,11.733433509789462,images/picture_2.png,1,"[-11.733433509789466, -11.733433509789462]",-11.733433509789464,-11.733433509789462,images/picture_3.png,2,"[11.733433509789462, -11.733433509789466]",11.733433509789462,-11.733433509789464,0,1,1,1.1190475887562217,2.1190475887562217,0.8809524112437783,3.0,1,1.8690475887562217,0,4.0,3.0,1,2,10,0,10,0,0,5,5,4,,,,,,,669.1492244169931,669.1492244169931,670.1631957920035,671.0299099169933,671.2491997920006,671.2491997920006,671.2491997920006,672.1299606249959,672.1299606249959,672.1299606249959,672.1299606249959,673.148643374996,200003,305,2023-04-07_13h31.26.599,DMS_et_12-36,2022.2.4,None,
97,PRED,12,1.1190475887562217,2,images/picture_3.png,images/picture_1.png,0,"[11.733433509789464, 11.733433509789462]",11.733433509789464,11.733433509789462,images/picture_2.png,1,"[-11.733433509789466, -11.733433509789462]",-11.733433509789464,-11.733433509789462,images/picture_3.png,2,"[11.733433509789462, -11.733433509789466]",11.733433509789462,-11.733433509789464,0,1,1,1.1190475887562217,2.1190475887562217,0.8809524112437783,3.0,1,1.8690475887562217,0,4.0,3.0,1,2,10,0,10,0,0,6,6,7,,,,,,,673.148643374996,673.148643374996,674.1633290419995,675.029735374992,675.248562541994,675.248562541994,675.248562541994,676.1299129169929,676.1299129169929,676.1299129169929,676.1299129169929,677.1485735419992,200003,305,2023-04-07_13h31.26.599,DMS_et_12-36,2022.2.4,None,
95,PRED,12,1.1190475887562217,2,images/picture_3.png,images/picture_1.png,0,"[-11.733433509789466, -11.733433509789462]",-11.733433509789464,-11.733433509789462,images/picture_2.png,1,"[-11.733433509789462, 11.733433509789464]",-11.733433509789462,11.733433509789464,images/picture_3.png,2,"[11.733433509789462, -11.733433509789466]",11.733433509789462,-11.733433509789464,0,1,1,1.1190475887562217,2.1190475887562217,0.8809524112437783,3.0,1,1.8690475887562217,0,4.0,3.0,1,2,10,0,10,0,0,7,7,5,,,,,,,677.1485735419992,677.1485735419992,678.1631550829916,679.0298778330034,679.2489366249938,679.2489366249938,679.2489366249938,680.1298873749911,680.1298873749911,680.1298873749911,680.1298873749911,681.1495944999915,200003,305,2023-04-07_13h31.26.599,DMS_et_12-36,2022.2.4,None,
91,PRED,12,1.1190475887562217,2,images/picture_3.png,images/picture_1.png,0,"[11.733433509789462, -11.733433509789466]",11.733433509789462,-11.733433509789464,images/picture_2.png,1,"[-11.733433509789462, 11.733433509789464]",-11.733433509789462,11.733433509789464,images/picture_3.png,2,"[-11.733433509789466, -11.733433509789462]",-11.733433509789464,-11.733433509789462,0,1,1,1.1190475887562217,2.1190475887562217,0.8809524112437783,3.0,1,1.8690475887562217,0,4.0,3.0,1,2,10,0,10,0,0,8,8,1,,,,,,,681.1495944999915,681.1495944999915,682.1632160829904,683.0298850830004,683.2492232919903,683.2492232919903,683.2492232919903,684.1298305829987,684.1298305829987,684.1298305829987,684.1298305829987,685.2265805420029,200003,305,2023-04-07_13h31.26.599,DMS_et_12-36,2022.2.4,None,
,,,,,,,,,,,,,,,,,,,,,,,,,,,,,,,,,,,10,0,10,0,,,,,,,,,685.2265805420029,697.2672551249998,,,,,,,,,,,,,200003,305,2023-04-07_13h31.26.599,DMS_et_12-36,2022.2.4,None,
105,UNPRED,12,1.1190475887562217,2,images/picture_3.png,images/picture_1.png,0,"[-11.733433509789462, 11.733433509789464]",-11.733433509789462,11.733433509789464,images/picture_2.png,1,"[11.733433509789464, 11.733433509789462]",11.733433509789464,11.733433509789462,images/picture_3.png,2,"[-11.733433509789466, -11.733433509789462]",-11.733433509789464,-11.733433509789462,0,1,1,1.1190475887562217,2.1190475887562217,0.8809524112437783,3.0,1,1.8690475887562217,0,4.0,3.0,1,2,11,0,11,0,0,0,0,6,,,,,,,697.2672551249998,697.2672551249998,698.2827322079975,699.1492697079957,699.3824691249902,699.3824691249902,699.3824691249902,700.2631964579923,700.2631964579923,700.2631964579923,700.2631964579923,701.2828884999908,200003,305,2023-04-07_13h31.26.599,DMS_et_12-36,2022.2.4,None,
99,UNPRED,12,1.1190475887562217,1,images/picture_2.png,images/picture_1.png,0,"[-11.733433509789462, 11.733433509789464]",-11.733433509789462,11.733433509789464,images/picture_2.png,1,"[-11.733433509789466, -11.733433509789462]",-11.733433509789464,-11.733433509789462,images/picture_3.png,2,"[11.733433509789462, -11.733433509789466]",11.733433509789462,-11.733433509789464,0,1,1,1.1190475887562217,2.1190475887562217,0.8809524112437783,3.0,1,1.8690475887562217,0,4.0,3.0,1,2,11,0,11,0,0,1,1,0,,,,,,,701.2828884999908,701.2828884999908,702.2964437079936,703.163141750003,703.3825091250037,703.3825091250037,703.3825091250037,704.2632168749988,704.2632168749988,704.2632168749988,704.2632168749988,705.2822833329992,200003,305,2023-04-07_13h31.26.599,DMS_et_12-36,2022.2.4,None,
104,UNPRED,12,1.1190475887562217,2,images/picture_3.png,images/picture_1.png,0,"[-11.733433509789462, 11.733433509789464]",-11.733433509789462,11.733433509789464,images/picture_2.png,1,"[-11.733433509789466, -11.733433509789462]",-11.733433509789464,-11.733433509789462,images/picture_3.png,2,"[11.733433509789462, -11.733433509789466]",11.733433509789462,-11.733433509789464,0,1,1,1.1190475887562217,2.1190475887562217,0.8809524112437783,3.0,1,1.8690475887562217,0,4.0,3.0,1,2,11,0,11,0,0,2,2,5,,,,,,,705.2822833329992,705.2822833329992,706.2963092499995,707.1631796250003,707.3823288749991,707.3823288749991,707.3823288749991,708.2631782079989,708.2631782079989,708.2631782079989,708.2631782079989,709.2626462920016,200003,305,2023-04-07_13h31.26.599,DMS_et_12-36,2022.2.4,None,
102,UNPRED,12,1.1190475887562217,0,images/picture_1.png,images/picture_1.png,0,"[-11.733433509789466, -11.733433509789462]",-11.733433509789464,-11.733433509789462,images/picture_2.png,1,"[-11.733433509789462, 11.733433509789464]",-11.733433509789462,11.733433509789464,images/picture_3.png,2,"[11.733433509789464, 11.733433509789462]",11.733433509789464,11.733433509789462,0,1,1,1.1190475887562217,2.1190475887562217,0.8809524112437783,3.0,1,1.8690475887562217,0,4.0,3.0,1,2,11,0,11,0,0,3,3,3,,,,,,,709.2626462920016,709.2626462920016,710.2631659579929,711.1298787499982,711.3825392500003,711.3825392500003,711.3825392500003,712.2631614999991,712.2631614999991,712.2631614999991,712.2631614999991,713.2631590419915,200003,305,2023-04-07_13h31.26.599,DMS_et_12-36,2022.2.4,None,
100,UNPRED,12,1.1190475887562217,1,images/picture_2.png,images/picture_1.png,0,"[11.733433509789462, -11.733433509789466]",11.733433509789462,-11.733433509789464,images/picture_2.png,1,"[-11.733433509789466, -11.733433509789462]",-11.733433509789464,-11.733433509789462,images/picture_3.png,2,"[-11.733433509789462, 11.733433509789464]",-11.733433509789462,11.733433509789464,0,1,1,1.1190475887562217,2.1190475887562217,0.8809524112437783,3.0,1,1.8690475887562217,0,4.0,3.0,1,2,11,0,11,0,0,4,4,1,,,,,,,713.2631590419915,713.2631590419915,714.2631601250032,715.1299026670022,715.3826214579894,715.3826214579894,715.3826214579894,716.262994167002,716.262994167002,716.262994167002,716.262994167002,717.2625138750009,200003,305,2023-04-07_13h31.26.599,DMS_et_12-36,2022.2.4,None,
101,UNPRED,12,1.1190475887562217,0,images/picture_1.png,images/picture_1.png,0,"[-11.733433509789466, -11.733433509789462]",-11.733433509789464,-11.733433509789462,images/picture_2.png,1,"[-11.733433509789462, 11.733433509789464]",-11.733433509789462,11.733433509789464,images/picture_3.png,2,"[11.733433509789462, -11.733433509789466]",11.733433509789462,-11.733433509789464,0,1,1,1.1190475887562217,2.1190475887562217,0.8809524112437783,3.0,1,1.8690475887562217,0,4.0,3.0,1,2,11,0,11,0,0,5,5,2,,,,,,,717.2625138750009,717.2625138750009,718.2631852920022,719.1298410419986,719.3827078750037,719.3827078750037,719.3827078750037,720.2632078329916,720.2632078329916,720.2632078329916,720.2632078329916,721.2817654579994,200003,305,2023-04-07_13h31.26.599,DMS_et_12-36,2022.2.4,None,
107,UNPRED,12,1.1190475887562217,2,images/picture_3.png,images/picture_1.png,0,"[-11.733433509789466, -11.733433509789462]",-11.733433509789464,-11.733433509789462,images/picture_2.png,1,"[-11.733433509789462, 11.733433509789464]",-11.733433509789462,11.733433509789464,images/picture_3.png,2,"[11.733433509789462, -11.733433509789466]",11.733433509789462,-11.733433509789464,0,1,1,1.1190475887562217,2.1190475887562217,0.8809524112437783,3.0,1,1.8690475887562217,0,4.0,3.0,1,2,11,0,11,0,0,6,6,8,,,,,,,721.2817654579994,721.2817654579994,722.2966102920036,723.1631456250034,723.3826665829984,723.3826665829984,723.3826665829984,724.2632044170023,724.2632044170023,724.2632044170023,724.2632044170023,725.2639646669995,200003,305,2023-04-07_13h31.26.599,DMS_et_12-36,2022.2.4,None,
103,UNPRED,12,1.1190475887562217,1,images/picture_2.png,images/picture_1.png,0,"[-11.733433509789466, -11.733433509789462]",-11.733433509789464,-11.733433509789462,images/picture_2.png,1,"[11.733433509789462, -11.733433509789466]",11.733433509789462,-11.733433509789464,images/picture_3.png,2,"[11.733433509789464, 11.733433509789462]",11.733433509789464,11.733433509789462,0,1,1,1.1190475887562217,2.1190475887562217,0.8809524112437783,3.0,1,1.8690475887562217,0,4.0,3.0,1,2,11,0,11,0,0,7,7,4,,,,,,,725.2639646669995,725.2639646669995,726.2628425000003,727.148599082997,727.3824581669905,727.3824581669905,727.3824581669905,728.2633637079998,728.2633637079998,728.2633637079998,728.2633637079998,729.2631076249963,200003,305,2023-04-07_13h31.26.599,DMS_et_12-36,2022.2.4,None,
106,UNPRED,12,1.1190475887562217,0,images/picture_1.png,images/picture_1.png,0,"[-11.733433509789462, 11.733433509789464]",-11.733433509789462,11.733433509789464,images/picture_2.png,1,"[11.733433509789464, 11.733433509789462]",11.733433509789464,11.733433509789462,images/picture_3.png,2,"[-11.733433509789466, -11.733433509789462]",-11.733433509789464,-11.733433509789462,0,1,1,1.1190475887562217,2.1190475887562217,0.8809524112437783,3.0,1,1.8690475887562217,0,4.0,3.0,1,2,11,0,11,0,0,8,8,7,,,,,,,729.2631076249963,729.2631076249963,730.263397082992,731.1299187080003,731.3826870420016,731.3826870420016,731.3826870420016,732.2632738329994,732.2632738329994,732.2632738329994,732.2632738329994,733.4372407499905,200003,305,2023-04-07_13h31.26.599,DMS_et_12-36,2022.2.4,None,
,,,,,,,,,,,,,,,,,,,,,,,,,,,,,,,,,,,11,0,11,0,,,,,,,,,733.4372407499905,745.5764687920018,,,,,,,,,,,,,200003,305,2023-04-07_13h31.26.599,DMS_et_12-36,2022.2.4,None,
,,,,,,,,,,,,,,,,,,,,,,,,,,,,,,,,,,,,,,,,,,,,,,,745.5764687920018,758.09887466699,,,,,,,,,,,,,,,,,,,
