trial_count,blockType,blockNum,delay_time,stimImage_i,stimImage,responseImage1,responseImage1_i,responseImage1_pos,responseImage1_X,responseImage1_Y,responseImage2,responseImage2_i,responseImage2_pos,responseImage2_X,responseImage2_Y,responseImage3,responseImage3_i,responseImage3_pos,responseImage3_X,responseImage3_Y,cue_onset,cue_dur,delay_onset,delay_dur,resp_onset,resp_dur,rest_onset,rest_dur,circle_dur,circle_onset,blocks.thisRepN,blocks.thisTrialN,blocks.thisN,blocks.thisIndex,trials.thisRepN,trials.thisTrialN,trials.thisN,trials.thisIndex,key_resp.started,text.started,key_resp.keys,key_resp.rt,text_2.started,text_2.stopped,etRecord.started,sample.started,Delay.started,sample.stopped,Delay.stopped,Response_1.started,Response_2.started,Response_3.started,polygon.started,Response_1.stopped,Response_2.stopped,Response_3.stopped,etRecord.stopped,polygon.stopped,participant,session,date,expName,psychopyVersion,frameRate,
,,,,,,,,,,,,,,,,,,,,,,,,,,,,,,,,,,,,,,,37.433310583001,37.433310583001,t,60.96179349999875,,,,,,,,,,,,,,,,,200001,005,2023-03-10_12h40.57.543,DMS_BEST_eyetracking_DAN_base_12-60_looped_10minWORKING,2022.2.4,None,
12,PRED,8,1.0080220794684185,0,images/picture_1.png,images/picture_1.png,0,"[11.733433509789464, 11.733433509789462]",11.733433509789464,11.733433509789462,images/picture_2.png,1,"[11.733433509789462, -11.733433509789466]",11.733433509789462,-11.733433509789464,images/picture_3.png,2,"[-11.733433509789466, -11.733433509789462]",-11.733433509789464,-11.733433509789462,0,1,1,1.0080220794684185,2.0080220794684185,0.9919779205315816,3,1,1.7580220794684183,0,0,0,0,0,0,0,0,12,,,,,98.4052805829997,110.44659237500309,,,,,,,,,,,,,,,200001,005,2023-03-10_12h40.57.543,DMS_BEST_eyetracking_DAN_base_12-60_looped_10minWORKING,2022.2.4,None,
12,PRED,8,1.0080220794684185,0,images/picture_1.png,images/picture_1.png,0,"[11.733433509789464, 11.733433509789462]",11.733433509789464,11.733433509789462,images/picture_2.png,1,"[11.733433509789462, -11.733433509789466]",11.733433509789462,-11.733433509789464,images/picture_3.png,2,"[-11.733433509789466, -11.733433509789462]",-11.733433509789464,-11.733433509789462,0,1,1,1.0080220794684185,2.0080220794684185,0.9919779205315816,3,1,1.7580220794684183,0,0,0,0,0,0,0,0,12,,,,,,,0.004256167001585709,110.44659237500309,110.44659237500309,111.45334954099962,112.22002829100165,112.45311508300074,112.45311508300074,112.45311508300074,113.43927354100015,113.45341937500052,113.45341937500052,113.45341937500052,4.006487958002253,114.45421141600309,200001,005,2023-03-10_12h40.57.543,DMS_BEST_eyetracking_DAN_base_12-60_looped_10minWORKING,2022.2.4,None,
13,PRED,8,1.147100846015138,0,images/picture_1.png,images/picture_1.png,0,"[11.733433509789464, 11.733433509789462]",11.733433509789464,11.733433509789462,images/picture_2.png,1,"[-11.733433509789466, -11.733433509789462]",-11.733433509789464,-11.733433509789462,images/picture_3.png,2,"[11.733433509789462, -11.733433509789466]",11.733433509789462,-11.733433509789464,0,1,1,1.147100846015138,2.1471008460151384,0.8528991539848622,3,1,1.8971008460151384,0,0,0,0,0,0,1,1,13,,,,,,,,,,,,,,,,,,,,,200001,005,2023-03-10_12h40.57.543,DMS_BEST_eyetracking_DAN_base_12-60_looped_10minWORKING,2022.2.4,None,
13,PRED,8,1.147100846015138,0,images/picture_1.png,images/picture_1.png,0,"[11.733433509789464, 11.733433509789462]",11.733433509789464,11.733433509789462,images/picture_2.png,1,"[-11.733433509789466, -11.733433509789462]",-11.733433509789464,-11.733433509789462,images/picture_3.png,2,"[11.733433509789462, -11.733433509789466]",11.733433509789462,-11.733433509789464,0,1,1,1.147100846015138,2.1471008460151384,0.8528991539848622,3,1,1.8971008460151384,0,0,0,0,0,0,1,1,13,,,,,,,0.0034766249991662335,114.45421141600309,114.45421141600309,115.45304324999961,116.35338283300007,116.58659658300166,116.58659658300166,116.58659658300166,117.45333333300005,117.45333333300005,117.45333333300005,117.45333333300005,3.9968199579998327,118.47285000000193,200001,005,2023-03-10_12h40.57.543,DMS_BEST_eyetracking_DAN_base_12-60_looped_10minWORKING,2022.2.4,None,
9,PRED,8,0.5496819794824341,0,images/picture_1.png,images/picture_1.png,0,"[-11.733433509789466, -11.733433509789462]",-11.733433509789464,-11.733433509789462,images/picture_2.png,1,"[-11.733433509789462, 11.733433509789464]",-11.733433509789462,11.733433509789464,images/picture_3.png,2,"[11.733433509789464, 11.733433509789462]",11.733433509789464,11.733433509789462,0,1,1,0.5496819794824341,1.549681979482434,1.450318020517566,3,1,1.299681979482434,0,0,0,0,0,0,2,2,9,,,,,,,,,,,,,,,,,,,,,200001,005,2023-03-10_12h40.57.543,DMS_BEST_eyetracking_DAN_base_12-60_looped_10minWORKING,2022.2.4,None,
9,PRED,8,0.5496819794824341,0,images/picture_1.png,images/picture_1.png,0,"[-11.733433509789466, -11.733433509789462]",-11.733433509789464,-11.733433509789462,images/picture_2.png,1,"[-11.733433509789462, 11.733433509789464]",-11.733433509789462,11.733433509789464,images/picture_3.png,2,"[11.733433509789464, 11.733433509789462]",11.733433509789464,11.733433509789462,0,1,1,0.5496819794824341,1.549681979482434,1.450318020517566,3,1,1.299681979482434,0,0,0,0,0,0,2,2,9,,,,,,,0.003609333998610964,118.47285000000193,118.47285000000193,119.48670108300212,119.78688595800122,120.00605058300062,120.00605058300062,120.00605058300062,121.45332591600163,121.45332591600163,121.45332591600163,121.45332591600163,4.029291625000042,122.45363591600108,200001,005,2023-03-10_12h40.57.543,DMS_BEST_eyetracking_DAN_base_12-60_looped_10minWORKING,2022.2.4,None,
11,PRED,8,0.8474674606325594,0,images/picture_1.png,images/picture_1.png,0,"[-11.733433509789466, -11.733433509789462]",-11.733433509789464,-11.733433509789462,images/picture_2.png,1,"[-11.733433509789462, 11.733433509789464]",-11.733433509789462,11.733433509789464,images/picture_3.png,2,"[11.733433509789464, 11.733433509789462]",11.733433509789464,11.733433509789462,0,1,1,0.8474674606325594,1.8474674606325596,1.1525325393674406,3,1,1.5974674606325594,0,0,0,0,0,0,3,3,11,,,,,,,,,,,,,,,,,,,,,200001,005,2023-03-10_12h40.57.543,DMS_BEST_eyetracking_DAN_base_12-60_looped_10minWORKING,2022.2.4,None,
11,PRED,8,0.8474674606325594,0,images/picture_1.png,images/picture_1.png,0,"[-11.733433509789466, -11.733433509789462]",-11.733433509789464,-11.733433509789462,images/picture_2.png,1,"[-11.733433509789462, 11.733433509789464]",-11.733433509789462,11.733433509789464,images/picture_3.png,2,"[11.733433509789464, 11.733433509789462]",11.733433509789464,11.733433509789462,0,1,1,0.8474674606325594,1.8474674606325596,1.1525325393674406,3,1,1.5974674606325594,0,0,0,0,0,0,3,3,11,,,,,,,0.003336249999847496,122.4866931659999,122.4866931659999,123.48678954100251,124.08663700000034,124.31975975000023,124.31975975000023,124.31975975000023,125.48638666600164,125.48638666600164,125.48638666600164,125.48638666600164,3.997122832999594,126.48784800000067,200001,005,2023-03-10_12h40.57.543,DMS_BEST_eyetracking_DAN_base_12-60_looped_10minWORKING,2022.2.4,None,
5,PRED,8,0.6553473737901687,0,images/picture_1.png,images/picture_1.png,0,"[11.733433509789464, 11.733433509789462]",11.733433509789464,11.733433509789462,images/picture_2.png,1,"[-11.733433509789462, 11.733433509789464]",-11.733433509789462,11.733433509789464,images/picture_3.png,2,"[-11.733433509789466, -11.733433509789462]",-11.733433509789464,-11.733433509789462,0,1,1,0.6553473737901687,1.6553473737901687,1.3446526262098313,3,1,1.4053473737901687,0,0,0,0,0,0,4,4,5,,,,,,,,,,,,,,,,,,,,,200001,005,2023-03-10_12h40.57.543,DMS_BEST_eyetracking_DAN_base_12-60_looped_10minWORKING,2022.2.4,None,
5,PRED,8,0.6553473737901687,0,images/picture_1.png,images/picture_1.png,0,"[11.733433509789464, 11.733433509789462]",11.733433509789464,11.733433509789462,images/picture_2.png,1,"[-11.733433509789462, 11.733433509789464]",-11.733433509789462,11.733433509789464,images/picture_3.png,2,"[-11.733433509789466, -11.733433509789462]",-11.733433509789464,-11.733433509789462,0,1,1,0.6553473737901687,1.6553473737901687,1.3446526262098313,3,1,1.4053473737901687,0,0,0,0,0,0,4,4,5,,,,,,,0.0033930830031749792,126.48784800000067,126.48784800000067,127.48688200000106,127.9061983749998,128.1397496660029,128.1397496660029,128.1397496660029,129.48674058300094,129.48674058300094,129.48674058300094,129.48674058300094,3.9967947080003796,130.48722737500066,200001,005,2023-03-10_12h40.57.543,DMS_BEST_eyetracking_DAN_base_12-60_looped_10minWORKING,2022.2.4,None,
0,PRED,8,0.6577783244874261,0,images/picture_1.png,images/picture_1.png,0,"[-11.733433509789466, -11.733433509789462]",-11.733433509789464,-11.733433509789462,images/picture_2.png,1,"[11.733433509789462, -11.733433509789466]",11.733433509789462,-11.733433509789464,images/picture_3.png,2,"[11.733433509789464, 11.733433509789462]",11.733433509789464,11.733433509789462,0,1,1,0.6577783244874261,1.6577783244874262,1.3422216755125738,3,1,1.4077783244874262,0,0,0,0,0,0,5,5,0,,,,,,,,,,,,,,,,,,,,,200001,005,2023-03-10_12h40.57.543,DMS_BEST_eyetracking_DAN_base_12-60_looped_10minWORKING,2022.2.4,None,
0,PRED,8,0.6577783244874261,0,images/picture_1.png,images/picture_1.png,0,"[-11.733433509789466, -11.733433509789462]",-11.733433509789464,-11.733433509789462,images/picture_2.png,1,"[11.733433509789462, -11.733433509789466]",11.733433509789462,-11.733433509789464,images/picture_3.png,2,"[11.733433509789464, 11.733433509789462]",11.733433509789464,11.733433509789462,0,1,1,0.6577783244874261,1.6577783244874262,1.3422216755125738,3,1,1.4077783244874262,0,0,0,0,0,0,5,5,0,,,,,,,0.003451749998930609,130.48722737500066,130.48722737500066,131.48671487500178,131.90593250000165,132.1399952080028,132.1399952080028,132.1399952080028,133.48676908299967,133.48676908299967,133.48676908299967,133.48676908299967,3.9968224589974852,134.48651754100138,200001,005,2023-03-10_12h40.57.543,DMS_BEST_eyetracking_DAN_base_12-60_looped_10minWORKING,2022.2.4,None,
6,PRED,8,0.8034654686499285,0,images/picture_1.png,images/picture_1.png,0,"[11.733433509789464, 11.733433509789462]",11.733433509789464,11.733433509789462,images/picture_2.png,1,"[-11.733433509789462, 11.733433509789464]",-11.733433509789462,11.733433509789464,images/picture_3.png,2,"[-11.733433509789466, -11.733433509789462]",-11.733433509789464,-11.733433509789462,0,1,1,0.8034654686499285,1.8034654686499283,1.1965345313500717,3,1,1.5534654686499283,0,0,0,0,0,0,6,6,6,,,,,,,,,,,,,,,,,,,,,200001,005,2023-03-10_12h40.57.543,DMS_BEST_eyetracking_DAN_base_12-60_looped_10minWORKING,2022.2.4,None,
6,PRED,8,0.8034654686499285,0,images/picture_1.png,images/picture_1.png,0,"[11.733433509789464, 11.733433509789462]",11.733433509789464,11.733433509789462,images/picture_2.png,1,"[-11.733433509789462, 11.733433509789464]",-11.733433509789462,11.733433509789464,images/picture_3.png,2,"[-11.733433509789466, -11.733433509789462]",-11.733433509789464,-11.733433509789462,0,1,1,0.8034654686499285,1.8034654686499283,1.1965345313500717,3,1,1.5534654686499283,0,0,0,0,0,0,6,6,6,,,,,,,0.0033567089994903654,134.48651754100138,134.48651754100138,135.48641604099976,136.05297766600052,136.28665487500257,136.28665487500257,136.28665487500257,137.48690825000085,137.48690825000085,137.48690825000085,137.48690825000085,3.9977335420007876,138.48765125000136,200001,005,2023-03-10_12h40.57.543,DMS_BEST_eyetracking_DAN_base_12-60_looped_10minWORKING,2022.2.4,None,
3,PRED,8,0.7302208484179409,0,images/picture_1.png,images/picture_1.png,0,"[-11.733433509789462, 11.733433509789464]",-11.733433509789462,11.733433509789464,images/picture_2.png,1,"[11.733433509789462, -11.733433509789466]",11.733433509789462,-11.733433509789464,images/picture_3.png,2,"[-11.733433509789466, -11.733433509789462]",-11.733433509789464,-11.733433509789462,0,1,1,0.7302208484179409,1.7302208484179409,1.2697791515820591,3,1,1.4802208484179409,0,0,0,0,0,0,7,7,3,,,,,,,,,,,,,,,,,,,,,200001,005,2023-03-10_12h40.57.543,DMS_BEST_eyetracking_DAN_base_12-60_looped_10minWORKING,2022.2.4,None,
3,PRED,8,0.7302208484179409,0,images/picture_1.png,images/picture_1.png,0,"[-11.733433509789462, 11.733433509789464]",-11.733433509789462,11.733433509789464,images/picture_2.png,1,"[11.733433509789462, -11.733433509789466]",11.733433509789462,-11.733433509789464,images/picture_3.png,2,"[-11.733433509789466, -11.733433509789462]",-11.733433509789464,-11.733433509789462,0,1,1,0.7302208484179409,1.7302208484179409,1.2697791515820591,3,1,1.4802208484179409,0,0,0,0,0,0,7,7,3,,,,,,,0.0034262919980392326,138.48765125000136,138.48765125000136,139.4867978330003,139.9732490000024,140.21985770800165,140.21985770800165,140.21985770800165,141.48693141600234,141.48693141600234,141.48693141600234,141.48693141600234,3.9969739589978417,142.4877062500018,200001,005,2023-03-10_12h40.57.543,DMS_BEST_eyetracking_DAN_base_12-60_looped_10minWORKING,2022.2.4,None,
8,PRED,8,0.6705696151585696,0,images/picture_1.png,images/picture_1.png,0,"[11.733433509789462, -11.733433509789466]",11.733433509789462,-11.733433509789464,images/picture_2.png,1,"[11.733433509789464, 11.733433509789462]",11.733433509789464,11.733433509789462,images/picture_3.png,2,"[-11.733433509789466, -11.733433509789462]",-11.733433509789464,-11.733433509789462,0,1,1,0.6705696151585696,1.6705696151585696,1.3294303848414304,3,1,1.4205696151585696,0,0,0,0,0,0,8,8,8,,,,,,,,,,,,,,,,,,,,,200001,005,2023-03-10_12h40.57.543,DMS_BEST_eyetracking_DAN_base_12-60_looped_10minWORKING,2022.2.4,None,
8,PRED,8,0.6705696151585696,0,images/picture_1.png,images/picture_1.png,0,"[11.733433509789462, -11.733433509789466]",11.733433509789462,-11.733433509789464,images/picture_2.png,1,"[11.733433509789464, 11.733433509789462]",11.733433509789464,11.733433509789462,images/picture_3.png,2,"[-11.733433509789466, -11.733433509789462]",-11.733433509789464,-11.733433509789462,0,1,1,0.6705696151585696,1.6705696151585696,1.3294303848414304,3,1,1.4205696151585696,0,0,0,0,0,0,8,8,8,,,,,,,0.003421666999201989,142.4877062500018,142.4877062500018,143.4869350000008,143.92008445800093,144.15316733300278,144.15316733300278,144.15316733300278,145.4863500829997,145.4863500829997,145.4863500829997,145.4863500829997,3.996526916998846,146.48713054100153,200001,005,2023-03-10_12h40.57.543,DMS_BEST_eyetracking_DAN_base_12-60_looped_10minWORKING,2022.2.4,None,
1,PRED,8,0.9255843945338248,0,images/picture_1.png,images/picture_1.png,0,"[-11.733433509789466, -11.733433509789462]",-11.733433509789464,-11.733433509789462,images/picture_2.png,1,"[-11.733433509789462, 11.733433509789464]",-11.733433509789462,11.733433509789464,images/picture_3.png,2,"[11.733433509789464, 11.733433509789462]",11.733433509789464,11.733433509789462,0,1,1,0.9255843945338248,1.925584394533825,1.074415605466175,3,1,1.675584394533825,0,0,0,0,0,0,9,9,1,,,,,,,,,,,,,,,,,,,,,200001,005,2023-03-10_12h40.57.543,DMS_BEST_eyetracking_DAN_base_12-60_looped_10minWORKING,2022.2.4,None,
1,PRED,8,0.9255843945338248,0,images/picture_1.png,images/picture_1.png,0,"[-11.733433509789466, -11.733433509789462]",-11.733433509789464,-11.733433509789462,images/picture_2.png,1,"[-11.733433509789462, 11.733433509789464]",-11.733433509789462,11.733433509789464,images/picture_3.png,2,"[11.733433509789464, 11.733433509789462]",11.733433509789464,11.733433509789462,0,1,1,0.9255843945338248,1.925584394533825,1.074415605466175,3,1,1.675584394533825,0,0,0,0,0,0,9,9,1,,,,,,,0.0033171670002047904,146.48713054100153,146.48713054100153,147.48685504100285,148.17299533299956,148.4061583750008,148.4061583750008,148.4061583750008,149.48666583300292,149.48666583300292,149.48666583300292,149.48666583300292,3.997478291999869,150.5062594580013,200001,005,2023-03-10_12h40.57.543,DMS_BEST_eyetracking_DAN_base_12-60_looped_10minWORKING,2022.2.4,None,
14,PRED,8,0.8352569841521138,0,images/picture_1.png,images/picture_1.png,0,"[11.733433509789462, -11.733433509789466]",11.733433509789462,-11.733433509789464,images/picture_2.png,1,"[-11.733433509789462, 11.733433509789464]",-11.733433509789462,11.733433509789464,images/picture_3.png,2,"[-11.733433509789466, -11.733433509789462]",-11.733433509789464,-11.733433509789462,0,1,1,0.8352569841521138,1.8352569841521136,1.1647430158478862,3,1,1.5852569841521138,0,0,0,0,0,0,10,10,14,,,,,,,,,,,,,,,,,,,,,200001,005,2023-03-10_12h40.57.543,DMS_BEST_eyetracking_DAN_base_12-60_looped_10minWORKING,2022.2.4,None,
14,PRED,8,0.8352569841521138,0,images/picture_1.png,images/picture_1.png,0,"[11.733433509789462, -11.733433509789466]",11.733433509789462,-11.733433509789464,images/picture_2.png,1,"[-11.733433509789462, 11.733433509789464]",-11.733433509789462,11.733433509789464,images/picture_3.png,2,"[-11.733433509789466, -11.733433509789462]",-11.733433509789464,-11.733433509789462,0,1,1,0.8352569841521138,1.8352569841521136,1.1647430158478862,3,1,1.5852569841521138,0,0,0,0,0,0,10,10,14,,,,,,,0.0034328750007261988,150.5062594580013,150.5062594580013,151.52011370800028,152.10592066600293,152.31994329100053,152.31994329100053,152.31994329100053,153.48680400000012,153.48680400000012,153.48680400000012,153.48680400000012,4.029486666000594,154.48684645800313,200001,005,2023-03-10_12h40.57.543,DMS_BEST_eyetracking_DAN_base_12-60_looped_10minWORKING,2022.2.4,None,
4,PRED,8,1.1754156161654106,0,images/picture_1.png,images/picture_1.png,0,"[11.733433509789462, -11.733433509789466]",11.733433509789462,-11.733433509789464,images/picture_2.png,1,"[-11.733433509789462, 11.733433509789464]",-11.733433509789462,11.733433509789464,images/picture_3.png,2,"[11.733433509789464, 11.733433509789462]",11.733433509789464,11.733433509789462,0,1,1,1.1754156161654106,2.1754156161654103,0.8245843838345894,3,1,1.9254156161654103,0,0,0,0,0,0,11,11,4,,,,,,,,,,,,,,,,,,,,,200001,005,2023-03-10_12h40.57.543,DMS_BEST_eyetracking_DAN_base_12-60_looped_10minWORKING,2022.2.4,None,
4,PRED,8,1.1754156161654106,0,images/picture_1.png,images/picture_1.png,0,"[11.733433509789462, -11.733433509789466]",11.733433509789462,-11.733433509789464,images/picture_2.png,1,"[-11.733433509789462, 11.733433509789464]",-11.733433509789462,11.733433509789464,images/picture_3.png,2,"[11.733433509789464, 11.733433509789462]",11.733433509789464,11.733433509789462,0,1,1,1.1754156161654106,2.1754156161654103,0.8245843838345894,3,1,1.9254156161654103,0,0,0,0,0,0,11,11,4,,,,,,,0.003403916001843754,154.5211756250028,154.5211756250028,155.5196055000015,156.45308558300167,156.68660858300063,156.68660858300063,156.68660858300063,157.5200814580021,157.5200814580021,157.5200814580021,157.5200814580021,3.9966564160022244,158.52067066600284,200001,005,2023-03-10_12h40.57.543,DMS_BEST_eyetracking_DAN_base_12-60_looped_10minWORKING,2022.2.4,None,
7,PRED,8,0.5407730637465418,0,images/picture_1.png,images/picture_1.png,0,"[11.733433509789462, -11.733433509789466]",11.733433509789462,-11.733433509789464,images/picture_2.png,1,"[-11.733433509789466, -11.733433509789462]",-11.733433509789464,-11.733433509789462,images/picture_3.png,2,"[11.733433509789464, 11.733433509789462]",11.733433509789464,11.733433509789462,0,1,1,0.5407730637465418,1.5407730637465418,1.4592269362534582,3,1,1.2907730637465418,0,0,0,0,0,0,12,12,7,,,,,,,,,,,,,,,,,,,,,200001,005,2023-03-10_12h40.57.543,DMS_BEST_eyetracking_DAN_base_12-60_looped_10minWORKING,2022.2.4,None,
7,PRED,8,0.5407730637465418,0,images/picture_1.png,images/picture_1.png,0,"[11.733433509789462, -11.733433509789466]",11.733433509789462,-11.733433509789464,images/picture_2.png,1,"[-11.733433509789466, -11.733433509789462]",-11.733433509789464,-11.733433509789462,images/picture_3.png,2,"[11.733433509789464, 11.733433509789462]",11.733433509789464,11.733433509789462,0,1,1,0.5407730637465418,1.5407730637465418,1.4592269362534582,3,1,1.2907730637465418,0,0,0,0,0,0,12,12,7,,,,,,,0.003330874998937361,158.52067066600284,158.52067066600284,159.5201184159996,159.8202865000021,160.05318633299976,160.05318633299976,160.05318633299976,161.52016000000003,161.52016000000003,161.52016000000003,161.52016000000003,3.9969153749989346,162.52038625000205,200001,005,2023-03-10_12h40.57.543,DMS_BEST_eyetracking_DAN_base_12-60_looped_10minWORKING,2022.2.4,None,
10,PRED,8,0.9874034599179828,0,images/picture_1.png,images/picture_1.png,0,"[-11.733433509789462, 11.733433509789464]",-11.733433509789462,11.733433509789464,images/picture_2.png,1,"[11.733433509789462, -11.733433509789466]",11.733433509789462,-11.733433509789464,images/picture_3.png,2,"[11.733433509789464, 11.733433509789462]",11.733433509789464,11.733433509789462,0,1,1,0.9874034599179828,1.9874034599179828,1.0125965400820172,3,1,1.7374034599179828,0,0,0,0,0,0,13,13,10,,,,,,,,,,,,,,,,,,,,,200001,005,2023-03-10_12h40.57.543,DMS_BEST_eyetracking_DAN_base_12-60_looped_10minWORKING,2022.2.4,None,
10,PRED,8,0.9874034599179828,0,images/picture_1.png,images/picture_1.png,0,"[-11.733433509789462, 11.733433509789464]",-11.733433509789462,11.733433509789464,images/picture_2.png,1,"[11.733433509789462, -11.733433509789466]",11.733433509789462,-11.733433509789464,images/picture_3.png,2,"[11.733433509789464, 11.733433509789462]",11.733433509789464,11.733433509789462,0,1,1,0.9874034599179828,1.9874034599179828,1.0125965400820172,3,1,1.7374034599179828,0,0,0,0,0,0,13,13,10,,,,,,,0.003306708997115493,162.52038625000205,162.52038625000205,163.5202360000003,164.27294466600142,164.50541916600196,164.50541916600196,164.50541916600196,165.5201397080018,165.5201397080018,165.5201397080018,165.5201397080018,3.996607249999215,166.51964345800297,200001,005,2023-03-10_12h40.57.543,DMS_BEST_eyetracking_DAN_base_12-60_looped_10minWORKING,2022.2.4,None,
2,PRED,8,0.6565584662061912,0,images/picture_1.png,images/picture_1.png,0,"[-11.733433509789466, -11.733433509789462]",-11.733433509789464,-11.733433509789462,images/picture_2.png,1,"[11.733433509789462, -11.733433509789466]",11.733433509789462,-11.733433509789464,images/picture_3.png,2,"[-11.733433509789462, 11.733433509789464]",-11.733433509789462,11.733433509789464,0,1,1,0.6565584662061912,1.6565584662061912,1.3434415337938088,3,1,1.4065584662061912,0,0,0,0,0,0,14,14,2,,,,,,,,,,,,,,,,,,,,,200001,005,2023-03-10_12h40.57.543,DMS_BEST_eyetracking_DAN_base_12-60_looped_10minWORKING,2022.2.4,None,
2,PRED,8,0.6565584662061912,0,images/picture_1.png,images/picture_1.png,0,"[-11.733433509789466, -11.733433509789462]",-11.733433509789464,-11.733433509789462,images/picture_2.png,1,"[11.733433509789462, -11.733433509789466]",11.733433509789462,-11.733433509789464,images/picture_3.png,2,"[-11.733433509789462, 11.733433509789464]",-11.733433509789462,11.733433509789464,0,1,1,0.6565584662061912,1.6565584662061912,1.3434415337938088,3,1,1.4065584662061912,0,0,0,0,0,0,14,14,2,,,,,,,0.0013684579971595667,166.51964345800297,166.51964345800297,167.52017491600054,167.9393181250016,168.17298816600305,168.17298816600305,168.17298816600305,169.52009974999964,169.52009974999964,169.52009974999964,169.52009974999964,3.998862624997855,170.55561191600282,200001,005,2023-03-10_12h40.57.543,DMS_BEST_eyetracking_DAN_base_12-60_looped_10minWORKING,2022.2.4,None,
,,,,,,,,,,,,,,,,,,,,,,,,,,,,,,,0,0,0,0,,,,,,,,,170.55561191600282,182.57407175000117,,,,,,,,,,,,,,,200001,005,2023-03-10_12h40.57.543,DMS_BEST_eyetracking_DAN_base_12-60_looped_10minWORKING,2022.2.4,None,
15,UNPRED,8,1.0101428947856783,2,images/picture_3.png,images/picture_1.png,0,"[-11.733433509789466, -11.733433509789462]",-11.733433509789464,-11.733433509789462,images/picture_2.png,1,"[-11.733433509789462, 11.733433509789464]",-11.733433509789462,11.733433509789464,images/picture_3.png,2,"[11.733433509789462, -11.733433509789466]",11.733433509789462,-11.733433509789464,0,1,1,1.0101428947856783,2.0101428947856785,0.9898571052143216,3,1,1.7601428947856783,0,1,0,1,0,0,0,0,0,,,,,,,,,,,,,,,,,,,,,200001,005,2023-03-10_12h40.57.543,DMS_BEST_eyetracking_DAN_base_12-60_looped_10minWORKING,2022.2.4,None,
15,UNPRED,8,1.0101428947856783,2,images/picture_3.png,images/picture_1.png,0,"[-11.733433509789466, -11.733433509789462]",-11.733433509789464,-11.733433509789462,images/picture_2.png,1,"[-11.733433509789462, 11.733433509789464]",-11.733433509789462,11.733433509789464,images/picture_3.png,2,"[11.733433509789462, -11.733433509789466]",11.733433509789462,-11.733433509789464,0,1,1,1.0101428947856783,2.0101428947856785,0.9898571052143216,3,1,1.7601428947856783,0,1,0,1,0,0,0,0,0,,,,,,,0.003234250001696637,182.57407175000117,182.57407175000117,183.5868584580021,184.34003670800303,184.58660854100162,184.58660854100162,184.58660854100162,185.5722577910019,185.5867247080023,185.5867247080023,185.5867247080023,4.009062625002116,186.58640899999955,200001,005,2023-03-10_12h40.57.543,DMS_BEST_eyetracking_DAN_base_12-60_looped_10minWORKING,2022.2.4,None,
25,UNPRED,8,0.7908090102903808,2,images/picture_3.png,images/picture_1.png,0,"[11.733433509789462, -11.733433509789466]",11.733433509789462,-11.733433509789464,images/picture_2.png,1,"[-11.733433509789466, -11.733433509789462]",-11.733433509789464,-11.733433509789462,images/picture_3.png,2,"[11.733433509789464, 11.733433509789462]",11.733433509789464,11.733433509789462,0,1,1,0.7908090102903808,1.7908090102903809,1.2091909897096191,3,1,1.5408090102903809,0,1,0,1,0,0,1,1,10,,,,,,,,,,,,,,,,,,,,,200001,005,2023-03-10_12h40.57.543,DMS_BEST_eyetracking_DAN_base_12-60_looped_10minWORKING,2022.2.4,None,
25,UNPRED,8,0.7908090102903808,2,images/picture_3.png,images/picture_1.png,0,"[11.733433509789462, -11.733433509789466]",11.733433509789462,-11.733433509789464,images/picture_2.png,1,"[-11.733433509789466, -11.733433509789462]",-11.733433509789464,-11.733433509789462,images/picture_3.png,2,"[11.733433509789464, 11.733433509789462]",11.733433509789464,11.733433509789462,0,1,1,0.7908090102903808,1.7908090102903809,1.2091909897096191,3,1,1.5408090102903809,0,1,0,1,0,0,1,1,10,,,,,,,0.00150216600013664,186.58640899999955,186.58640899999955,187.5868261249998,188.13970962500025,188.3731000000007,188.3731000000007,188.3731000000007,189.62115658300172,189.62115658300172,189.62115658300172,189.62115658300172,3.998097374998906,190.6584036250024,200001,005,2023-03-10_12h40.57.543,DMS_BEST_eyetracking_DAN_base_12-60_looped_10minWORKING,2022.2.4,None,
20,UNPRED,8,1.024994524546168,2,images/picture_3.png,images/picture_1.png,0,"[11.733433509789464, 11.733433509789462]",11.733433509789464,11.733433509789462,images/picture_2.png,1,"[-11.733433509789466, -11.733433509789462]",-11.733433509789464,-11.733433509789462,images/picture_3.png,2,"[11.733433509789462, -11.733433509789466]",11.733433509789462,-11.733433509789464,0,1,1,1.024994524546168,2.0249945245461682,0.975005475453832,3,1,1.7749945245461678,0,1,0,1,0,0,2,2,5,,,,,,,,,,,,,,,,,,,,,200001,005,2023-03-10_12h40.57.543,DMS_BEST_eyetracking_DAN_base_12-60_looped_10minWORKING,2022.2.4,None,
20,UNPRED,8,1.024994524546168,2,images/picture_3.png,images/picture_1.png,0,"[11.733433509789464, 11.733433509789462]",11.733433509789464,11.733433509789462,images/picture_2.png,1,"[-11.733433509789466, -11.733433509789462]",-11.733433509789464,-11.733433509789462,images/picture_3.png,2,"[11.733433509789462, -11.733433509789466]",11.733433509789462,-11.733433509789464,0,1,1,1.024994524546168,2.0249945245461682,0.975005475453832,3,1,1.7749945245461678,0,1,0,1,0,0,2,2,5,,,,,,,0.0022390410013031214,190.6584036250024,190.6584036250024,191.6924355830015,192.43933012500202,192.68693395800074,192.68693395800074,192.68693395800074,193.65378933300235,193.67278704099954,193.67278704099954,193.67278704099954,4.00516645800235,194.65379920800115,200001,005,2023-03-10_12h40.57.543,DMS_BEST_eyetracking_DAN_base_12-60_looped_10minWORKING,2022.2.4,None,
17,UNPRED,8,0.8486783309654049,1,images/picture_2.png,images/picture_1.png,0,"[11.733433509789464, 11.733433509789462]",11.733433509789464,11.733433509789462,images/picture_2.png,1,"[11.733433509789462, -11.733433509789466]",11.733433509789462,-11.733433509789464,images/picture_3.png,2,"[-11.733433509789466, -11.733433509789462]",-11.733433509789464,-11.733433509789462,0,1,1,0.8486783309654049,1.8486783309654051,1.151321669034595,3,1,1.5986783309654051,0,1,0,1,0,0,3,3,2,,,,,,,,,,,,,,,,,,,,,200001,005,2023-03-10_12h40.57.543,DMS_BEST_eyetracking_DAN_base_12-60_looped_10minWORKING,2022.2.4,None,
17,UNPRED,8,0.8486783309654049,1,images/picture_2.png,images/picture_1.png,0,"[11.733433509789464, 11.733433509789462]",11.733433509789464,11.733433509789462,images/picture_2.png,1,"[11.733433509789462, -11.733433509789466]",11.733433509789462,-11.733433509789464,images/picture_3.png,2,"[-11.733433509789466, -11.733433509789462]",-11.733433509789464,-11.733433509789462,0,1,1,0.8486783309654049,1.8486783309654051,1.151321669034595,3,1,1.5986783309654051,0,1,0,1,0,0,3,3,2,,,,,,,0.0050101250017178245,194.67282650000197,194.67282650000197,195.68705862500065,196.28684150000117,196.51988054100002,196.51988054100002,196.51988054100002,197.65363116600201,197.67309899999964,197.67309899999964,197.67309899999964,4.015807792002306,198.65363487500144,200001,005,2023-03-10_12h40.57.543,DMS_BEST_eyetracking_DAN_base_12-60_looped_10minWORKING,2022.2.4,None,
21,UNPRED,8,0.9063136891387638,2,images/picture_3.png,images/picture_1.png,0,"[-11.733433509789466, -11.733433509789462]",-11.733433509789464,-11.733433509789462,images/picture_2.png,1,"[11.733433509789462, -11.733433509789466]",11.733433509789462,-11.733433509789464,images/picture_3.png,2,"[11.733433509789464, 11.733433509789462]",11.733433509789464,11.733433509789462,0,1,1,0.9063136891387638,1.906313689138764,1.0936863108612362,3,1,1.6563136891387638,0,1,0,1,0,0,4,4,6,,,,,,,,,,,,,,,,,,,,,200001,005,2023-03-10_12h40.57.543,DMS_BEST_eyetracking_DAN_base_12-60_looped_10minWORKING,2022.2.4,None,
21,UNPRED,8,0.9063136891387638,2,images/picture_3.png,images/picture_1.png,0,"[-11.733433509789466, -11.733433509789462]",-11.733433509789464,-11.733433509789462,images/picture_2.png,1,"[11.733433509789462, -11.733433509789466]",11.733433509789462,-11.733433509789464,images/picture_3.png,2,"[11.733433509789464, 11.733433509789462]",11.733433509789464,11.733433509789462,0,1,1,0.9063136891387638,1.906313689138764,1.0936863108612362,3,1,1.6563136891387638,0,1,0,1,0,0,4,4,6,,,,,,,0.0032958750016405247,198.68771229100093,198.68771229100093,199.68687345800208,200.35360850000143,200.58694083299997,200.58694083299997,200.58694083299997,201.68701633300225,201.68701633300225,201.68701633300225,201.68701633300225,3.9967381249989558,202.70632500000283,200001,005,2023-03-10_12h40.57.543,DMS_BEST_eyetracking_DAN_base_12-60_looped_10minWORKING,2022.2.4,None,
29,UNPRED,8,0.6259927712608127,1,images/picture_2.png,images/picture_1.png,0,"[11.733433509789464, 11.733433509789462]",11.733433509789464,11.733433509789462,images/picture_2.png,1,"[11.733433509789462, -11.733433509789466]",11.733433509789462,-11.733433509789464,images/picture_3.png,2,"[-11.733433509789462, 11.733433509789464]",-11.733433509789462,11.733433509789464,0,1,1,0.6259927712608127,1.6259927712608129,1.3740072287391871,3,1,1.3759927712608129,0,1,0,1,0,0,5,5,14,,,,,,,,,,,,,,,,,,,,,200001,005,2023-03-10_12h40.57.543,DMS_BEST_eyetracking_DAN_base_12-60_looped_10minWORKING,2022.2.4,None,
29,UNPRED,8,0.6259927712608127,1,images/picture_2.png,images/picture_1.png,0,"[11.733433509789464, 11.733433509789462]",11.733433509789464,11.733433509789462,images/picture_2.png,1,"[11.733433509789462, -11.733433509789466]",11.733433509789462,-11.733433509789464,images/picture_3.png,2,"[-11.733433509789462, 11.733433509789464]",-11.733433509789462,11.733433509789464,0,1,1,0.6259927712608127,1.6259927712608129,1.3740072287391871,3,1,1.3759927712608129,0,1,0,1,0,0,5,5,14,,,,,,,0.004865916998824105,202.70632500000283,202.70632500000283,203.7204531660027,204.0871012500029,204.30702291600028,204.30702291600028,204.30702291600028,205.68701641600273,205.68701641600273,205.68701641600273,205.68701641600273,4.0294492919965705,206.68649812500007,200001,005,2023-03-10_12h40.57.543,DMS_BEST_eyetracking_DAN_base_12-60_looped_10minWORKING,2022.2.4,None,
19,UNPRED,8,1.0476432893292047,0,images/picture_1.png,images/picture_1.png,0,"[11.733433509789464, 11.733433509789462]",11.733433509789464,11.733433509789462,images/picture_2.png,1,"[-11.733433509789466, -11.733433509789462]",-11.733433509789464,-11.733433509789462,images/picture_3.png,2,"[11.733433509789462, -11.733433509789466]",11.733433509789462,-11.733433509789464,0,1,1,1.0476432893292047,2.0476432893292054,0.9523567106707952,3,1,1.7976432893292051,0,1,0,1,0,0,6,6,4,,,,,,,,,,,,,,,,,,,,,200001,005,2023-03-10_12h40.57.543,DMS_BEST_eyetracking_DAN_base_12-60_looped_10minWORKING,2022.2.4,None,
19,UNPRED,8,1.0476432893292047,0,images/picture_1.png,images/picture_1.png,0,"[11.733433509789464, 11.733433509789462]",11.733433509789464,11.733433509789462,images/picture_2.png,1,"[-11.733433509789466, -11.733433509789462]",-11.733433509789464,-11.733433509789462,images/picture_3.png,2,"[11.733433509789462, -11.733433509789466]",11.733433509789462,-11.733433509789464,0,1,1,1.0476432893292047,2.0476432893292054,0.9523567106707952,3,1,1.7976432893292051,0,1,0,1,0,0,6,6,4,,,,,,,0.0018873750013881363,206.7199080829996,206.7199080829996,207.72031683300156,208.52048866600308,208.75348004100306,208.75348004100306,208.75348004100306,209.72018833300172,209.72018833300172,209.72018833300172,209.72018833300172,3.99935254200318,210.74000604100002,200001,005,2023-03-10_12h40.57.543,DMS_BEST_eyetracking_DAN_base_12-60_looped_10minWORKING,2022.2.4,None,
24,UNPRED,8,1.193347634000382,1,images/picture_2.png,images/picture_1.png,0,"[11.733433509789464, 11.733433509789462]",11.733433509789464,11.733433509789462,images/picture_2.png,1,"[11.733433509789462, -11.733433509789466]",11.733433509789462,-11.733433509789464,images/picture_3.png,2,"[-11.733433509789462, 11.733433509789464]",-11.733433509789462,11.733433509789464,0,1,1,1.193347634000382,2.1933476340003817,0.8066523659996179,3,1,1.943347634000382,0,1,0,1,0,0,7,7,9,,,,,,,,,,,,,,,,,,,,,200001,005,2023-03-10_12h40.57.543,DMS_BEST_eyetracking_DAN_base_12-60_looped_10minWORKING,2022.2.4,None,
24,UNPRED,8,1.193347634000382,1,images/picture_2.png,images/picture_1.png,0,"[11.733433509789464, 11.733433509789462]",11.733433509789464,11.733433509789462,images/picture_2.png,1,"[11.733433509789462, -11.733433509789466]",11.733433509789462,-11.733433509789464,images/picture_3.png,2,"[-11.733433509789462, 11.733433509789464]",-11.733433509789462,11.733433509789464,0,1,1,1.193347634000382,2.1933476340003817,0.8066523659996179,3,1,1.943347634000382,0,1,0,1,0,0,7,7,9,,,,,,,0.005872124998859363,210.74000604100002,210.74000604100002,211.753791541003,212.68709766600296,212.90641958299966,212.90641958299966,212.90641958299966,213.72054416600076,213.72054416600076,213.72054416600076,213.72054416600076,4.0305201659975864,214.72045408300255,200001,005,2023-03-10_12h40.57.543,DMS_BEST_eyetracking_DAN_base_12-60_looped_10minWORKING,2022.2.4,None,
26,UNPRED,8,0.8267368837814273,0,images/picture_1.png,images/picture_1.png,0,"[-11.733433509789462, 11.733433509789464]",-11.733433509789462,11.733433509789464,images/picture_2.png,1,"[11.733433509789462, -11.733433509789466]",11.733433509789462,-11.733433509789464,images/picture_3.png,2,"[-11.733433509789466, -11.733433509789462]",-11.733433509789464,-11.733433509789462,0,1,1,0.8267368837814273,1.8267368837814275,1.1732631162185727,3,1,1.5767368837814273,0,1,0,1,0,0,8,8,11,,,,,,,,,,,,,,,,,,,,,200001,005,2023-03-10_12h40.57.543,DMS_BEST_eyetracking_DAN_base_12-60_looped_10minWORKING,2022.2.4,None,
26,UNPRED,8,0.8267368837814273,0,images/picture_1.png,images/picture_1.png,0,"[-11.733433509789462, 11.733433509789464]",-11.733433509789462,11.733433509789464,images/picture_2.png,1,"[11.733433509789462, -11.733433509789466]",11.733433509789462,-11.733433509789464,images/picture_3.png,2,"[-11.733433509789466, -11.733433509789462]",-11.733433509789464,-11.733433509789462,0,1,1,0.8267368837814273,1.8267368837814275,1.1732631162185727,3,1,1.5767368837814273,0,1,0,1,0,0,8,8,11,,,,,,,0.004468041999643901,214.77366229100153,214.77366229100153,215.78703579099965,216.35359754100136,216.57296345800205,216.57296345800205,216.57296345800205,217.75344125000265,217.75344125000265,217.75344125000265,217.75344125000265,4.030225667000195,218.75375616600286,200001,005,2023-03-10_12h40.57.543,DMS_BEST_eyetracking_DAN_base_12-60_looped_10minWORKING,2022.2.4,None,
23,UNPRED,8,1.032421333857107,1,images/picture_2.png,images/picture_1.png,0,"[11.733433509789462, -11.733433509789466]",11.733433509789462,-11.733433509789464,images/picture_2.png,1,"[-11.733433509789462, 11.733433509789464]",-11.733433509789462,11.733433509789464,images/picture_3.png,2,"[-11.733433509789466, -11.733433509789462]",-11.733433509789464,-11.733433509789462,0,1,1,1.032421333857107,2.0324213338571067,0.9675786661428928,3,1,1.7824213338571069,0,1,0,1,0,0,9,9,8,,,,,,,,,,,,,,,,,,,,,200001,005,2023-03-10_12h40.57.543,DMS_BEST_eyetracking_DAN_base_12-60_looped_10minWORKING,2022.2.4,None,
23,UNPRED,8,1.032421333857107,1,images/picture_2.png,images/picture_1.png,0,"[11.733433509789462, -11.733433509789466]",11.733433509789462,-11.733433509789464,images/picture_2.png,1,"[-11.733433509789462, 11.733433509789464]",-11.733433509789462,11.733433509789464,images/picture_3.png,2,"[-11.733433509789466, -11.733433509789462]",-11.733433509789464,-11.733433509789462,0,1,1,1.032421333857107,2.0324213338571067,0.9675786661428928,3,1,1.7824213338571069,0,1,0,1,0,0,9,9,8,,,,,,,0.005898459003219614,218.80662737500097,218.80662737500097,219.8203403330008,220.58709250000175,220.82031166600063,220.82031166600063,220.82031166600063,221.78707291600222,221.78707291600222,221.78707291600222,221.78707291600222,4.029618042000948,222.78735245800272,200001,005,2023-03-10_12h40.57.543,DMS_BEST_eyetracking_DAN_base_12-60_looped_10minWORKING,2022.2.4,None,
28,UNPRED,8,0.9393690476214084,0,images/picture_1.png,images/picture_1.png,0,"[11.733433509789462, -11.733433509789466]",11.733433509789462,-11.733433509789464,images/picture_2.png,1,"[-11.733433509789462, 11.733433509789464]",-11.733433509789462,11.733433509789464,images/picture_3.png,2,"[-11.733433509789466, -11.733433509789462]",-11.733433509789464,-11.733433509789462,0,1,1,0.9393690476214084,1.9393690476214085,1.0606309523785915,3,1,1.6893690476214085,0,1,0,1,0,0,10,10,13,,,,,,,,,,,,,,,,,,,,,200001,005,2023-03-10_12h40.57.543,DMS_BEST_eyetracking_DAN_base_12-60_looped_10minWORKING,2022.2.4,None,
28,UNPRED,8,0.9393690476214084,0,images/picture_1.png,images/picture_1.png,0,"[11.733433509789462, -11.733433509789466]",11.733433509789462,-11.733433509789464,images/picture_2.png,1,"[-11.733433509789462, 11.733433509789464]",-11.733433509789462,11.733433509789464,images/picture_3.png,2,"[-11.733433509789466, -11.733433509789462]",-11.733433509789464,-11.733433509789462,0,1,1,0.9393690476214084,1.9393690476214085,1.0606309523785915,3,1,1.6893690476214085,0,1,0,1,0,0,10,10,13,,,,,,,0.004489124999963678,222.83974837500136,222.83974837500136,223.85378979100278,224.5394088330031,224.75342466599977,224.75342466599977,224.75342466599977,225.82052133300022,225.82052133300022,225.82052133300022,225.82052133300022,4.029484209000657,226.8203809580009,200001,005,2023-03-10_12h40.57.543,DMS_BEST_eyetracking_DAN_base_12-60_looped_10minWORKING,2022.2.4,None,
22,UNPRED,8,1.0963304446479474,1,images/picture_2.png,images/picture_1.png,0,"[11.733433509789464, 11.733433509789462]",11.733433509789464,11.733433509789462,images/picture_2.png,1,"[-11.733433509789462, 11.733433509789464]",-11.733433509789462,11.733433509789464,images/picture_3.png,2,"[-11.733433509789466, -11.733433509789462]",-11.733433509789464,-11.733433509789462,0,1,1,1.0963304446479474,2.096330444647948,0.9036695553520526,3,1,1.8463304446479476,0,1,0,1,0,0,11,11,7,,,,,,,,,,,,,,,,,,,,,200001,005,2023-03-10_12h40.57.543,DMS_BEST_eyetracking_DAN_base_12-60_looped_10minWORKING,2022.2.4,None,
22,UNPRED,8,1.0963304446479474,1,images/picture_2.png,images/picture_1.png,0,"[11.733433509789464, 11.733433509789462]",11.733433509789464,11.733433509789462,images/picture_2.png,1,"[-11.733433509789462, 11.733433509789464]",-11.733433509789462,11.733433509789464,images/picture_3.png,2,"[-11.733433509789466, -11.733433509789462]",-11.733433509789464,-11.733433509789462,0,1,1,1.0963304446479474,2.096330444647948,0.9036695553520526,3,1,1.8463304446479476,0,1,0,1,0,0,11,11,7,,,,,,,0.002372208000451792,226.85328895800194,226.85328895800194,227.85326570799953,228.70647612500034,228.94031091600118,228.94031091600118,228.94031091600118,229.8537610830026,229.8537610830026,229.8537610830026,229.8537610830026,3.999116082999535,230.87309062500208,200001,005,2023-03-10_12h40.57.543,DMS_BEST_eyetracking_DAN_base_12-60_looped_10minWORKING,2022.2.4,None,
27,UNPRED,8,0.5836107022417085,2,images/picture_3.png,images/picture_1.png,0,"[11.733433509789462, -11.733433509789466]",11.733433509789462,-11.733433509789464,images/picture_2.png,1,"[-11.733433509789466, -11.733433509789462]",-11.733433509789464,-11.733433509789462,images/picture_3.png,2,"[-11.733433509789462, 11.733433509789464]",-11.733433509789462,11.733433509789464,0,1,1,0.5836107022417085,1.5836107022417083,1.4163892977582917,3,1,1.3336107022417083,0,1,0,1,0,0,12,12,12,,,,,,,,,,,,,,,,,,,,,200001,005,2023-03-10_12h40.57.543,DMS_BEST_eyetracking_DAN_base_12-60_looped_10minWORKING,2022.2.4,None,
27,UNPRED,8,0.5836107022417085,2,images/picture_3.png,images/picture_1.png,0,"[11.733433509789462, -11.733433509789466]",11.733433509789462,-11.733433509789464,images/picture_2.png,1,"[-11.733433509789466, -11.733433509789462]",-11.733433509789464,-11.733433509789462,images/picture_3.png,2,"[-11.733433509789462, 11.733433509789464]",-11.733433509789462,11.733433509789464,0,1,1,0.5836107022417085,1.5836107022417083,1.4163892977582917,3,1,1.3336107022417083,0,1,0,1,0,0,12,12,12,,,,,,,0.0033697500002745073,230.87309062500208,230.87309062500208,231.88718275000065,232.22062970800107,232.4399446660027,232.4399446660027,232.4399446660027,233.85378875000242,233.85378875000242,233.85378875000242,233.85378875000242,4.0296860830021615,234.8537682080023,200001,005,2023-03-10_12h40.57.543,DMS_BEST_eyetracking_DAN_base_12-60_looped_10minWORKING,2022.2.4,None,
18,UNPRED,8,0.8442852942291466,1,images/picture_2.png,images/picture_1.png,0,"[-11.733433509789466, -11.733433509789462]",-11.733433509789464,-11.733433509789462,images/picture_2.png,1,"[11.733433509789462, -11.733433509789466]",11.733433509789462,-11.733433509789464,images/picture_3.png,2,"[-11.733433509789462, 11.733433509789464]",-11.733433509789462,11.733433509789464,0,1,1,0.8442852942291466,1.8442852942291463,1.1557147057708534,3,1,1.5942852942291466,0,1,0,1,0,0,13,13,3,,,,,,,,,,,,,,,,,,,,,200001,005,2023-03-10_12h40.57.543,DMS_BEST_eyetracking_DAN_base_12-60_looped_10minWORKING,2022.2.4,None,
18,UNPRED,8,0.8442852942291466,1,images/picture_2.png,images/picture_1.png,0,"[-11.733433509789466, -11.733433509789462]",-11.733433509789464,-11.733433509789462,images/picture_2.png,1,"[11.733433509789462, -11.733433509789466]",11.733433509789462,-11.733433509789464,images/picture_3.png,2,"[-11.733433509789462, 11.733433509789464]",-11.733433509789462,11.733433509789464,0,1,1,0.8442852942291466,1.8442852942291463,1.1557147057708534,3,1,1.5942852942291466,0,1,0,1,0,0,13,13,3,,,,,,,0.0048619160006637685,234.90643612500207,234.90643612500207,235.92051229100252,236.50617608300308,236.72020233300282,236.72020233300282,236.72020233300282,237.88668995800253,237.88668995800253,237.88668995800253,237.88668995800253,4.030423500000325,238.8871139160001,200001,005,2023-03-10_12h40.57.543,DMS_BEST_eyetracking_DAN_base_12-60_looped_10minWORKING,2022.2.4,None,
16,UNPRED,8,0.7318722915051078,1,images/picture_2.png,images/picture_1.png,0,"[11.733433509789462, -11.733433509789466]",11.733433509789462,-11.733433509789464,images/picture_2.png,1,"[-11.733433509789466, -11.733433509789462]",-11.733433509789464,-11.733433509789462,images/picture_3.png,2,"[-11.733433509789462, 11.733433509789464]",-11.733433509789462,11.733433509789464,0,1,1,0.7318722915051078,1.7318722915051077,1.2681277084948923,3,1,1.4818722915051077,0,1,0,1,0,0,14,14,1,,,,,,,,,,,,,,,,,,,,,200001,005,2023-03-10_12h40.57.543,DMS_BEST_eyetracking_DAN_base_12-60_looped_10minWORKING,2022.2.4,None,
16,UNPRED,8,0.7318722915051078,1,images/picture_2.png,images/picture_1.png,0,"[11.733433509789462, -11.733433509789466]",11.733433509789462,-11.733433509789464,images/picture_2.png,1,"[-11.733433509789466, -11.733433509789462]",-11.733433509789464,-11.733433509789462,images/picture_3.png,2,"[-11.733433509789462, 11.733433509789464]",-11.733433509789462,11.733433509789464,0,1,1,0.7318722915051078,1.7318722915051077,1.2681277084948923,3,1,1.4818722915051077,0,1,0,1,0,0,14,14,1,,,,,,,0.0048300419985025655,238.9401706660028,238.9401706660028,239.95381695800097,240.42053300000043,240.65376837500298,240.65376837500298,240.65376837500298,241.92054583299978,241.92054583299978,241.92054583299978,241.92054583299978,4.030178834000253,242.9205348329997,200001,005,2023-03-10_12h40.57.543,DMS_BEST_eyetracking_DAN_base_12-60_looped_10minWORKING,2022.2.4,None,
,,,,,,,,,,,,,,,,,,,,,,,,,,,,,,,1,0,1,0,,,,,,,,,243.0108611249998,255.0425572080021,,,,,,,,,,,,,,,200001,005,2023-03-10_12h40.57.543,DMS_BEST_eyetracking_DAN_base_12-60_looped_10minWORKING,2022.2.4,None,
37,PRED,8,0.7836498733102621,0,images/picture_1.png,images/picture_1.png,0,"[11.733433509789464, 11.733433509789462]",11.733433509789464,11.733433509789462,images/picture_2.png,1,"[11.733433509789462, -11.733433509789466]",11.733433509789462,-11.733433509789464,images/picture_3.png,2,"[-11.733433509789466, -11.733433509789462]",-11.733433509789464,-11.733433509789462,0,1,1,0.7836498733102621,1.783649873310262,1.216350126689738,3,1,1.533649873310262,0,2,0,2,0,0,0,0,7,,,,,,,,,,,,,,,,,,,,,200001,005,2023-03-10_12h40.57.543,DMS_BEST_eyetracking_DAN_base_12-60_looped_10minWORKING,2022.2.4,None,
37,PRED,8,0.7836498733102621,0,images/picture_1.png,images/picture_1.png,0,"[11.733433509789464, 11.733433509789462]",11.733433509789464,11.733433509789462,images/picture_2.png,1,"[11.733433509789462, -11.733433509789466]",11.733433509789462,-11.733433509789464,images/picture_3.png,2,"[-11.733433509789466, -11.733433509789462]",-11.733433509789464,-11.733433509789462,0,1,1,0.7836498733102621,1.783649873310262,1.216350126689738,3,1,1.533649873310262,0,2,0,2,0,0,0,0,7,,,,,,,0.003380750000360422,255.0425572080021,255.0425572080021,256.0537899160008,256.5872487910019,256.82032908300243,256.82032908300243,256.82032908300243,258.038873583002,258.038873583002,258.038873583002,258.038873583002,4.008012750000489,259.0546574580003,200001,005,2023-03-10_12h40.57.543,DMS_BEST_eyetracking_DAN_base_12-60_looped_10minWORKING,2022.2.4,None,
44,PRED,8,0.9931618578868396,0,images/picture_1.png,images/picture_1.png,0,"[11.733433509789464, 11.733433509789462]",11.733433509789464,11.733433509789462,images/picture_2.png,1,"[11.733433509789462, -11.733433509789466]",11.733433509789462,-11.733433509789464,images/picture_3.png,2,"[-11.733433509789462, 11.733433509789464]",-11.733433509789462,11.733433509789464,0,1,1,0.9931618578868396,1.9931618578868395,1.0068381421131605,3,1,1.7431618578868395,0,2,0,2,0,0,1,1,14,,,,,,,,,,,,,,,,,,,,,200001,005,2023-03-10_12h40.57.543,DMS_BEST_eyetracking_DAN_base_12-60_looped_10minWORKING,2022.2.4,None,
44,PRED,8,0.9931618578868396,0,images/picture_1.png,images/picture_1.png,0,"[11.733433509789464, 11.733433509789462]",11.733433509789464,11.733433509789462,images/picture_2.png,1,"[11.733433509789462, -11.733433509789466]",11.733433509789462,-11.733433509789464,images/picture_3.png,2,"[-11.733433509789462, 11.733433509789464]",-11.733433509789462,11.733433509789464,0,1,1,0.9931618578868396,1.9931618578868395,1.0068381421131605,3,1,1.7431618578868395,0,2,0,2,0,0,1,1,14,,,,,,,0.0034522499990998767,259.0546574580003,259.0546574580003,260.05389362500136,260.8063811660031,261.03997733300275,261.03997733300275,261.03997733300275,262.053811875001,262.053811875001,262.053811875001,262.053811875001,3.9969279159995494,263.0549522910005,200001,005,2023-03-10_12h40.57.543,DMS_BEST_eyetracking_DAN_base_12-60_looped_10minWORKING,2022.2.4,None,
34,PRED,8,1.0154548353810198,0,images/picture_1.png,images/picture_1.png,0,"[11.733433509789464, 11.733433509789462]",11.733433509789464,11.733433509789462,images/picture_2.png,1,"[11.733433509789462, -11.733433509789466]",11.733433509789462,-11.733433509789464,images/picture_3.png,2,"[-11.733433509789466, -11.733433509789462]",-11.733433509789464,-11.733433509789462,0,1,1,1.0154548353810198,2.0154548353810195,0.9845451646189802,3,1,1.7654548353810195,0,2,0,2,0,0,2,2,4,,,,,,,,,,,,,,,,,,,,,200001,005,2023-03-10_12h40.57.543,DMS_BEST_eyetracking_DAN_base_12-60_looped_10minWORKING,2022.2.4,None,
34,PRED,8,1.0154548353810198,0,images/picture_1.png,images/picture_1.png,0,"[11.733433509789464, 11.733433509789462]",11.733433509789464,11.733433509789462,images/picture_2.png,1,"[11.733433509789462, -11.733433509789466]",11.733433509789462,-11.733433509789464,images/picture_3.png,2,"[-11.733433509789466, -11.733433509789462]",-11.733433509789464,-11.733433509789462,0,1,1,1.0154548353810198,2.0154548353810195,0.9845451646189802,3,1,1.7654548353810195,0,2,0,2,0,0,2,2,4,,,,,,,0.0034868750008172356,263.0549522910005,263.0549522910005,264.05378783299966,264.8205345410024,265.07312600000296,265.07312600000296,265.07312600000296,266.0538480409996,266.07353016600246,266.07353016600246,266.07353016600246,3.996474749998015,267.05438850000064,200001,005,2023-03-10_12h40.57.543,DMS_BEST_eyetracking_DAN_base_12-60_looped_10minWORKING,2022.2.4,None,
38,PRED,8,0.5320359741837766,0,images/picture_1.png,images/picture_1.png,0,"[11.733433509789464, 11.733433509789462]",11.733433509789464,11.733433509789462,images/picture_2.png,1,"[-11.733433509789462, 11.733433509789464]",-11.733433509789462,11.733433509789464,images/picture_3.png,2,"[11.733433509789462, -11.733433509789466]",11.733433509789462,-11.733433509789464,0,1,1,0.5320359741837766,1.5320359741837766,1.4679640258162234,3,1,1.2820359741837766,0,2,0,2,0,0,3,3,8,,,,,,,,,,,,,,,,,,,,,200001,005,2023-03-10_12h40.57.543,DMS_BEST_eyetracking_DAN_base_12-60_looped_10minWORKING,2022.2.4,None,
38,PRED,8,0.5320359741837766,0,images/picture_1.png,images/picture_1.png,0,"[11.733433509789464, 11.733433509789462]",11.733433509789464,11.733433509789462,images/picture_2.png,1,"[-11.733433509789462, 11.733433509789464]",-11.733433509789462,11.733433509789464,images/picture_3.png,2,"[11.733433509789462, -11.733433509789466]",11.733433509789462,-11.733433509789464,0,1,1,0.5320359741837766,1.5320359741837766,1.4679640258162234,3,1,1.2820359741837766,0,2,0,2,0,0,3,3,8,,,,,,,0.0034083749997080304,267.05438850000064,267.05438850000064,268.05353979100255,268.3391041249997,268.5868720409999,268.5868720409999,268.5868720409999,270.0538822080016,270.0538822080016,270.0538822080016,270.0538822080016,3.9970622090004326,271.0543815830024,200001,005,2023-03-10_12h40.57.543,DMS_BEST_eyetracking_DAN_base_12-60_looped_10minWORKING,2022.2.4,None,
32,PRED,8,1.0847841876547544,0,images/picture_1.png,images/picture_1.png,0,"[-11.733433509789462, 11.733433509789464]",-11.733433509789462,11.733433509789464,images/picture_2.png,1,"[11.733433509789464, 11.733433509789462]",11.733433509789464,11.733433509789462,images/picture_3.png,2,"[-11.733433509789466, -11.733433509789462]",-11.733433509789464,-11.733433509789462,0,1,1,1.0847841876547544,2.0847841876547544,0.9152158123452456,3,1,1.8347841876547544,0,2,0,2,0,0,4,4,2,,,,,,,,,,,,,,,,,,,,,200001,005,2023-03-10_12h40.57.543,DMS_BEST_eyetracking_DAN_base_12-60_looped_10minWORKING,2022.2.4,None,
32,PRED,8,1.0847841876547544,0,images/picture_1.png,images/picture_1.png,0,"[-11.733433509789462, 11.733433509789464]",-11.733433509789462,11.733433509789464,images/picture_2.png,1,"[11.733433509789464, 11.733433509789462]",11.733433509789464,11.733433509789462,images/picture_3.png,2,"[-11.733433509789466, -11.733433509789462]",-11.733433509789464,-11.733433509789462,0,1,1,1.0847841876547544,2.0847841876547544,0.9152158123452456,3,1,1.8347841876547544,0,2,0,2,0,0,4,4,2,,,,,,,0.0034257909974257927,271.0543815830024,271.0543815830024,272.05385733300136,272.8873485410004,273.14028391600004,273.14028391600004,273.14028391600004,274.053854875001,274.053854875001,274.053854875001,274.053854875001,3.9970352909986104,275.05469758300023,200001,005,2023-03-10_12h40.57.543,DMS_BEST_eyetracking_DAN_base_12-60_looped_10minWORKING,2022.2.4,None,
41,PRED,8,0.8907584242983182,0,images/picture_1.png,images/picture_1.png,0,"[11.733433509789462, -11.733433509789466]",11.733433509789462,-11.733433509789464,images/picture_2.png,1,"[11.733433509789464, 11.733433509789462]",11.733433509789464,11.733433509789462,images/picture_3.png,2,"[-11.733433509789462, 11.733433509789464]",-11.733433509789462,11.733433509789464,0,1,1,0.8907584242983182,1.8907584242983184,1.1092415757016818,3,1,1.6407584242983182,0,2,0,2,0,0,5,5,11,,,,,,,,,,,,,,,,,,,,,200001,005,2023-03-10_12h40.57.543,DMS_BEST_eyetracking_DAN_base_12-60_looped_10minWORKING,2022.2.4,None,
41,PRED,8,0.8907584242983182,0,images/picture_1.png,images/picture_1.png,0,"[11.733433509789462, -11.733433509789466]",11.733433509789462,-11.733433509789464,images/picture_2.png,1,"[11.733433509789464, 11.733433509789462]",11.733433509789464,11.733433509789462,images/picture_3.png,2,"[-11.733433509789462, 11.733433509789464]",-11.733433509789462,11.733433509789464,0,1,1,0.8907584242983182,1.8907584242983184,1.1092415757016818,3,1,1.6407584242983182,0,2,0,2,0,0,5,5,11,,,,,,,0.0034389579996059183,275.05469758300023,275.05469758300023,276.0540429160028,276.7067555410031,276.939818791001,276.939818791001,276.939818791001,278.05346879100034,278.05346879100034,278.05346879100034,278.05346879100034,3.9969650829989405,279.0546360410008,200001,005,2023-03-10_12h40.57.543,DMS_BEST_eyetracking_DAN_base_12-60_looped_10minWORKING,2022.2.4,None,
42,PRED,8,0.7213466723151399,0,images/picture_1.png,images/picture_1.png,0,"[-11.733433509789466, -11.733433509789462]",-11.733433509789464,-11.733433509789462,images/picture_2.png,1,"[11.733433509789462, -11.733433509789466]",11.733433509789462,-11.733433509789464,images/picture_3.png,2,"[-11.733433509789462, 11.733433509789464]",-11.733433509789462,11.733433509789464,0,1,1,0.7213466723151399,1.7213466723151398,1.2786533276848602,3,1,1.4713466723151398,0,2,0,2,0,0,6,6,12,,,,,,,,,,,,,,,,,,,,,200001,005,2023-03-10_12h40.57.543,DMS_BEST_eyetracking_DAN_base_12-60_looped_10minWORKING,2022.2.4,None,
42,PRED,8,0.7213466723151399,0,images/picture_1.png,images/picture_1.png,0,"[-11.733433509789466, -11.733433509789462]",-11.733433509789464,-11.733433509789462,images/picture_2.png,1,"[11.733433509789462, -11.733433509789466]",11.733433509789462,-11.733433509789464,images/picture_3.png,2,"[-11.733433509789462, 11.733433509789464]",-11.733433509789462,11.733433509789464,0,1,1,0.7213466723151399,1.7213466723151398,1.2786533276848602,3,1,1.4713466723151398,0,2,0,2,0,0,6,6,12,,,,,,,0.0034360829995421227,279.0546360410008,279.0546360410008,280.05401387500024,280.53992412500156,280.7735724160011,280.7735724160011,280.7735724160011,282.05383370799973,282.05383370799973,282.05383370799973,282.05383370799973,3.9969719170003373,283.05448875,200001,005,2023-03-10_12h40.57.543,DMS_BEST_eyetracking_DAN_base_12-60_looped_10minWORKING,2022.2.4,None,
36,PRED,8,0.8479188994210621,0,images/picture_1.png,images/picture_1.png,0,"[11.733433509789464, 11.733433509789462]",11.733433509789464,11.733433509789462,images/picture_2.png,1,"[-11.733433509789462, 11.733433509789464]",-11.733433509789462,11.733433509789464,images/picture_3.png,2,"[-11.733433509789466, -11.733433509789462]",-11.733433509789464,-11.733433509789462,0,1,1,0.8479188994210621,1.8479188994210618,1.152081100578938,3,1,1.5979188994210618,0,2,0,2,0,0,7,7,6,,,,,,,,,,,,,,,,,,,,,200001,005,2023-03-10_12h40.57.543,DMS_BEST_eyetracking_DAN_base_12-60_looped_10minWORKING,2022.2.4,None,
36,PRED,8,0.8479188994210621,0,images/picture_1.png,images/picture_1.png,0,"[11.733433509789464, 11.733433509789462]",11.733433509789464,11.733433509789462,images/picture_2.png,1,"[-11.733433509789462, 11.733433509789464]",-11.733433509789462,11.733433509789464,images/picture_3.png,2,"[-11.733433509789466, -11.733433509789462]",-11.733433509789464,-11.733433509789462,0,1,1,0.8479188994210621,1.8479188994210618,1.152081100578938,3,1,1.5979188994210618,0,2,0,2,0,0,7,7,6,,,,,,,0.0033898339970619418,283.05448875,283.05448875,284.0540112080016,284.65402608300064,284.90667250000115,284.90667250000115,284.90667250000115,286.0539886660008,286.07352866600195,286.07352866600195,286.07352866600195,3.99740091700005,287.0736563330029,200001,005,2023-03-10_12h40.57.543,DMS_BEST_eyetracking_DAN_base_12-60_looped_10minWORKING,2022.2.4,None,
35,PRED,8,0.5396071565582858,0,images/picture_1.png,images/picture_1.png,0,"[-11.733433509789462, 11.733433509789464]",-11.733433509789462,11.733433509789464,images/picture_2.png,1,"[-11.733433509789466, -11.733433509789462]",-11.733433509789464,-11.733433509789462,images/picture_3.png,2,"[11.733433509789464, 11.733433509789462]",11.733433509789464,11.733433509789462,0,1,1,0.5396071565582858,1.5396071565582858,1.4603928434417142,3,1,1.2896071565582858,0,2,0,2,0,0,8,8,5,,,,,,,,,,,,,,,,,,,,,200001,005,2023-03-10_12h40.57.543,DMS_BEST_eyetracking_DAN_base_12-60_looped_10minWORKING,2022.2.4,None,
35,PRED,8,0.5396071565582858,0,images/picture_1.png,images/picture_1.png,0,"[-11.733433509789462, 11.733433509789464]",-11.733433509789462,11.733433509789464,images/picture_2.png,1,"[-11.733433509789466, -11.733433509789462]",-11.733433509789464,-11.733433509789462,images/picture_3.png,2,"[11.733433509789464, 11.733433509789462]",11.733433509789464,11.733433509789462,0,1,1,0.5396071565582858,1.5396071565582858,1.4603928434417142,3,1,1.2896071565582858,0,2,0,2,0,0,8,8,5,,,,,,,0.0034321660023124423,287.0736563330029,287.0736563330029,288.08691191600155,288.3724999160004,288.5868530410007,288.5868530410007,288.5868530410007,290.05406729100287,290.05406729100287,290.05406729100287,290.05406729100287,4.029282375002367,291.0540611659999,200001,005,2023-03-10_12h40.57.543,DMS_BEST_eyetracking_DAN_base_12-60_looped_10minWORKING,2022.2.4,None,
33,PRED,8,0.8642054297698303,0,images/picture_1.png,images/picture_1.png,0,"[-11.733433509789462, 11.733433509789464]",-11.733433509789462,11.733433509789464,images/picture_2.png,1,"[-11.733433509789466, -11.733433509789462]",-11.733433509789464,-11.733433509789462,images/picture_3.png,2,"[11.733433509789462, -11.733433509789466]",11.733433509789462,-11.733433509789464,0,1,1,0.8642054297698303,1.8642054297698305,1.1357945702301695,3,1,1.6142054297698305,0,2,0,2,0,0,9,9,3,,,,,,,,,,,,,,,,,,,,,200001,005,2023-03-10_12h40.57.543,DMS_BEST_eyetracking_DAN_base_12-60_looped_10minWORKING,2022.2.4,None,
33,PRED,8,0.8642054297698303,0,images/picture_1.png,images/picture_1.png,0,"[-11.733433509789462, 11.733433509789464]",-11.733433509789462,11.733433509789464,images/picture_2.png,1,"[-11.733433509789466, -11.733433509789462]",-11.733433509789464,-11.733433509789462,images/picture_3.png,2,"[11.733433509789462, -11.733433509789466]",11.733433509789462,-11.733433509789464,0,1,1,0.8642054297698303,1.8642054297698305,1.1357945702301695,3,1,1.6142054297698305,0,2,0,2,0,0,9,9,3,,,,,,,0.0033453340001869947,291.08757170800163,291.08757170800163,292.0875705409999,292.70677641600196,292.9536505830001,292.9536505830001,292.9536505830001,294.0873520000023,294.0873520000023,294.0873520000023,294.0873520000023,3.9974663339999097,295.1067262910001,200001,005,2023-03-10_12h40.57.543,DMS_BEST_eyetracking_DAN_base_12-60_looped_10minWORKING,2022.2.4,None,
31,PRED,8,0.8206067910331429,0,images/picture_1.png,images/picture_1.png,0,"[-11.733433509789466, -11.733433509789462]",-11.733433509789464,-11.733433509789462,images/picture_2.png,1,"[-11.733433509789462, 11.733433509789464]",-11.733433509789462,11.733433509789464,images/picture_3.png,2,"[11.733433509789464, 11.733433509789462]",11.733433509789464,11.733433509789462,0,1,1,0.8206067910331429,1.8206067910331432,1.1793932089668568,3,1,1.5706067910331432,0,2,0,2,0,0,10,10,1,,,,,,,,,,,,,,,,,,,,,200001,005,2023-03-10_12h40.57.543,DMS_BEST_eyetracking_DAN_base_12-60_looped_10minWORKING,2022.2.4,None,
31,PRED,8,0.8206067910331429,0,images/picture_1.png,images/picture_1.png,0,"[-11.733433509789466, -11.733433509789462]",-11.733433509789464,-11.733433509789462,images/picture_2.png,1,"[-11.733433509789462, 11.733433509789464]",-11.733433509789462,11.733433509789464,images/picture_3.png,2,"[11.733433509789464, 11.733433509789462]",11.733433509789464,11.733433509789462,0,1,1,0.8206067910331429,1.8206067910331432,1.1793932089668568,3,1,1.5706067910331432,0,2,0,2,0,0,10,10,1,,,,,,,0.003539250003086636,295.1067262910001,295.1067262910001,296.1206396660018,296.68734550000227,296.90728412500175,296.90728412500175,296.90728412500175,298.08733037500133,298.08733037500133,298.08733037500133,298.08733037500133,4.028866500000731,299.0869413750006,200001,005,2023-03-10_12h40.57.543,DMS_BEST_eyetracking_DAN_base_12-60_looped_10minWORKING,2022.2.4,None,
30,PRED,8,0.6094913354471223,0,images/picture_1.png,images/picture_1.png,0,"[-11.733433509789466, -11.733433509789462]",-11.733433509789464,-11.733433509789462,images/picture_2.png,1,"[11.733433509789464, 11.733433509789462]",11.733433509789464,11.733433509789462,images/picture_3.png,2,"[-11.733433509789462, 11.733433509789464]",-11.733433509789462,11.733433509789464,0,1,1,0.6094913354471223,1.6094913354471223,1.3905086645528777,3,1,1.3594913354471223,0,2,0,2,0,0,11,11,0,,,,,,,,,,,,,,,,,,,,,200001,005,2023-03-10_12h40.57.543,DMS_BEST_eyetracking_DAN_base_12-60_looped_10minWORKING,2022.2.4,None,
30,PRED,8,0.6094913354471223,0,images/picture_1.png,images/picture_1.png,0,"[-11.733433509789466, -11.733433509789462]",-11.733433509789464,-11.733433509789462,images/picture_2.png,1,"[11.733433509789464, 11.733433509789462]",11.733433509789464,11.733433509789462,images/picture_3.png,2,"[-11.733433509789462, 11.733433509789464]",-11.733433509789462,11.733433509789464,0,1,1,0.6094913354471223,1.6094913354471223,1.3905086645528777,3,1,1.3594913354471223,0,2,0,2,0,0,11,11,0,,,,,,,0.001413583002431551,299.12021975000243,299.12021975000243,300.1206022080005,300.4873054580021,300.7205565410004,300.7205565410004,300.7205565410004,302.1207918750006,302.1207918750006,302.1207918750006,302.1207918750006,3.997981874999823,303.139862041,200001,005,2023-03-10_12h40.57.543,DMS_BEST_eyetracking_DAN_base_12-60_looped_10minWORKING,2022.2.4,None,
43,PRED,8,0.9375948850522742,0,images/picture_1.png,images/picture_1.png,0,"[-11.733433509789466, -11.733433509789462]",-11.733433509789464,-11.733433509789462,images/picture_2.png,1,"[11.733433509789464, 11.733433509789462]",11.733433509789464,11.733433509789462,images/picture_3.png,2,"[-11.733433509789462, 11.733433509789464]",-11.733433509789462,11.733433509789464,0,1,1,0.9375948850522742,1.9375948850522744,1.0624051149477258,3,1,1.6875948850522742,0,2,0,2,0,0,12,12,13,,,,,,,,,,,,,,,,,,,,,200001,005,2023-03-10_12h40.57.543,DMS_BEST_eyetracking_DAN_base_12-60_looped_10minWORKING,2022.2.4,None,
43,PRED,8,0.9375948850522742,0,images/picture_1.png,images/picture_1.png,0,"[-11.733433509789466, -11.733433509789462]",-11.733433509789464,-11.733433509789462,images/picture_2.png,1,"[11.733433509789464, 11.733433509789462]",11.733433509789464,11.733433509789462,images/picture_3.png,2,"[-11.733433509789462, 11.733433509789464]",-11.733433509789462,11.733433509789464,0,1,1,0.9375948850522742,1.9375948850522744,1.0624051149477258,3,1,1.6875948850522742,0,2,0,2,0,0,12,12,13,,,,,,,0.0034864169974753167,303.139862041,303.139862041,304.1540579160028,304.83989641600056,305.05383837500267,305.05383837500267,305.05383837500267,306.12080337500083,306.12080337500083,306.12080337500083,306.12080337500083,4.029248333998112,307.12074041600135,200001,005,2023-03-10_12h40.57.543,DMS_BEST_eyetracking_DAN_base_12-60_looped_10minWORKING,2022.2.4,None,
39,PRED,8,1.0078534073287515,0,images/picture_1.png,images/picture_1.png,0,"[-11.733433509789466, -11.733433509789462]",-11.733433509789464,-11.733433509789462,images/picture_2.png,1,"[11.733433509789464, 11.733433509789462]",11.733433509789464,11.733433509789462,images/picture_3.png,2,"[-11.733433509789462, 11.733433509789464]",-11.733433509789462,11.733433509789464,0,1,1,1.0078534073287515,2.007853407328752,0.9921465926712484,3,1,1.757853407328752,0,2,0,2,0,0,13,13,9,,,,,,,,,,,,,,,,,,,,,200001,005,2023-03-10_12h40.57.543,DMS_BEST_eyetracking_DAN_base_12-60_looped_10minWORKING,2022.2.4,None,
39,PRED,8,1.0078534073287515,0,images/picture_1.png,images/picture_1.png,0,"[-11.733433509789466, -11.733433509789462]",-11.733433509789464,-11.733433509789462,images/picture_2.png,1,"[11.733433509789464, 11.733433509789462]",11.733433509789464,11.733433509789462,images/picture_3.png,2,"[-11.733433509789462, 11.733433509789464]",-11.733433509789462,11.733433509789464,0,1,1,1.0078534073287515,2.007853407328752,0.9921465926712484,3,1,1.757853407328752,0,2,0,2,0,0,13,13,9,,,,,,,0.0033235000009881333,307.15463020800235,307.15463020800235,308.15403470800084,308.9202082910015,309.15354758300236,309.15354758300236,309.15354758300236,310.15395662500305,310.15395662500305,310.15395662500305,310.15395662500305,3.9970933750009863,311.17369370800225,200001,005,2023-03-10_12h40.57.543,DMS_BEST_eyetracking_DAN_base_12-60_looped_10minWORKING,2022.2.4,None,
40,PRED,8,0.924580958840054,0,images/picture_1.png,images/picture_1.png,0,"[11.733433509789462, -11.733433509789466]",11.733433509789462,-11.733433509789464,images/picture_2.png,1,"[-11.733433509789466, -11.733433509789462]",-11.733433509789464,-11.733433509789462,images/picture_3.png,2,"[-11.733433509789462, 11.733433509789464]",-11.733433509789462,11.733433509789464,0,1,1,0.924580958840054,1.9245809588400544,1.0754190411599458,3,1,1.6745809588400542,0,2,0,2,0,0,14,14,10,,,,,,,,,,,,,,,,,,,,,200001,005,2023-03-10_12h40.57.543,DMS_BEST_eyetracking_DAN_base_12-60_looped_10minWORKING,2022.2.4,None,
40,PRED,8,0.924580958840054,0,images/picture_1.png,images/picture_1.png,0,"[11.733433509789462, -11.733433509789466]",11.733433509789462,-11.733433509789464,images/picture_2.png,1,"[-11.733433509789466, -11.733433509789462]",-11.733433509789464,-11.733433509789462,images/picture_3.png,2,"[-11.733433509789462, 11.733433509789464]",-11.733433509789462,11.733433509789464,0,1,1,0.924580958840054,1.9245809588400544,1.0754190411599458,3,1,1.6745809588400542,0,2,0,2,0,0,14,14,10,,,,,,,0.0035727089998545125,311.17369370800225,311.17369370800225,312.1873441250027,312.8540713330003,313.074127666001,313.074127666001,313.074127666001,314.154093166002,314.154093166002,314.154093166002,314.154093166002,4.02964300000167,315.15412154099977,200001,005,2023-03-10_12h40.57.543,DMS_BEST_eyetracking_DAN_base_12-60_looped_10minWORKING,2022.2.4,None,
,,,,,,,,,,,,,,,,,,,,,,,,,,,,,,,2,0,2,0,,,,,,,,,315.2626454580022,327.291344958001,,,,,,,,,,,,,,,200001,005,2023-03-10_12h40.57.543,DMS_BEST_eyetracking_DAN_base_12-60_looped_10minWORKING,2022.2.4,None,
55,UNPRED,8,0.5884683990097191,0,images/picture_1.png,images/picture_1.png,0,"[-11.733433509789462, 11.733433509789464]",-11.733433509789462,11.733433509789464,images/picture_2.png,1,"[-11.733433509789466, -11.733433509789462]",-11.733433509789464,-11.733433509789462,images/picture_3.png,2,"[11.733433509789462, -11.733433509789466]",11.733433509789462,-11.733433509789464,0,1,1,0.5884683990097191,1.5884683990097193,1.4115316009902807,3,1,1.3384683990097193,0,3,0,3,0,0,0,0,10,,,,,,,,,,,,,,,,,,,,,200001,005,2023-03-10_12h40.57.543,DMS_BEST_eyetracking_DAN_base_12-60_looped_10minWORKING,2022.2.4,None,
55,UNPRED,8,0.5884683990097191,0,images/picture_1.png,images/picture_1.png,0,"[-11.733433509789462, 11.733433509789464]",-11.733433509789462,11.733433509789464,images/picture_2.png,1,"[-11.733433509789466, -11.733433509789462]",-11.733433509789464,-11.733433509789462,images/picture_3.png,2,"[11.733433509789462, -11.733433509789466]",11.733433509789462,-11.733433509789464,0,1,1,0.5884683990097191,1.5884683990097193,1.4115316009902807,3,1,1.3384683990097193,0,3,0,3,0,0,0,0,10,,,,,,,0.002628791997267399,327.291344958001,327.291344958001,328.30702200000087,328.64026383300006,328.87248937500044,328.87248937500044,328.87248937500044,330.28754633300196,330.28754633300196,330.28754633300196,330.28754633300196,3.9930343749983876,331.3070438750001,200001,005,2023-03-10_12h40.57.543,DMS_BEST_eyetracking_DAN_base_12-60_looped_10minWORKING,2022.2.4,None,
57,UNPRED,8,0.5461354718048156,2,images/picture_3.png,images/picture_1.png,0,"[-11.733433509789466, -11.733433509789462]",-11.733433509789464,-11.733433509789462,images/picture_2.png,1,"[-11.733433509789462, 11.733433509789464]",-11.733433509789462,11.733433509789464,images/picture_3.png,2,"[11.733433509789462, -11.733433509789466]",11.733433509789462,-11.733433509789464,0,1,1,0.5461354718048156,1.5461354718048157,1.4538645281951843,3,1,1.2961354718048157,0,3,0,3,0,0,1,1,12,,,,,,,,,,,,,,,,,,,,,200001,005,2023-03-10_12h40.57.543,DMS_BEST_eyetracking_DAN_base_12-60_looped_10minWORKING,2022.2.4,None,
57,UNPRED,8,0.5461354718048156,2,images/picture_3.png,images/picture_1.png,0,"[-11.733433509789466, -11.733433509789462]",-11.733433509789464,-11.733433509789462,images/picture_2.png,1,"[-11.733433509789462, 11.733433509789464]",-11.733433509789462,11.733433509789464,images/picture_3.png,2,"[11.733433509789462, -11.733433509789466]",11.733433509789462,-11.733433509789464,0,1,1,0.5461354718048156,1.5461354718048157,1.4538645281951843,3,1,1.2961354718048157,0,3,0,3,0,0,1,1,12,,,,,,,0.004435874998307554,331.3070438750001,331.3070438750001,332.3207712080002,332.6067017910027,332.82019375000164,332.82019375000164,332.82019375000164,334.28754975000265,334.28754975000265,334.28754975000265,334.28754975000265,4.030034291998163,335.2875735000016,200001,005,2023-03-10_12h40.57.543,DMS_BEST_eyetracking_DAN_base_12-60_looped_10minWORKING,2022.2.4,None,
52,UNPRED,8,0.6260432571746641,2,images/picture_3.png,images/picture_1.png,0,"[-11.733433509789466, -11.733433509789462]",-11.733433509789464,-11.733433509789462,images/picture_2.png,1,"[-11.733433509789462, 11.733433509789464]",-11.733433509789462,11.733433509789464,images/picture_3.png,2,"[11.733433509789464, 11.733433509789462]",11.733433509789464,11.733433509789462,0,1,1,0.6260432571746641,1.626043257174664,1.373956742825336,3,1,1.376043257174664,0,3,0,3,0,0,2,2,7,,,,,,,,,,,,,,,,,,,,,200001,005,2023-03-10_12h40.57.543,DMS_BEST_eyetracking_DAN_base_12-60_looped_10minWORKING,2022.2.4,None,
52,UNPRED,8,0.6260432571746641,2,images/picture_3.png,images/picture_1.png,0,"[-11.733433509789466, -11.733433509789462]",-11.733433509789464,-11.733433509789462,images/picture_2.png,1,"[-11.733433509789462, 11.733433509789464]",-11.733433509789462,11.733433509789464,images/picture_3.png,2,"[11.733433509789464, 11.733433509789462]",11.733433509789464,11.733433509789462,0,1,1,0.6260432571746641,1.626043257174664,1.373956742825336,3,1,1.376043257174664,0,3,0,3,0,0,2,2,7,,,,,,,0.003385083000466693,335.3219868330016,335.3219868330016,336.3208658330004,336.7071494160009,336.9401154160005,336.9401154160005,336.9401154160005,338.32082645800256,338.32082645800256,338.32082645800256,338.32082645800256,3.9957167499997013,339.3202912500019,200001,005,2023-03-10_12h40.57.543,DMS_BEST_eyetracking_DAN_base_12-60_looped_10minWORKING,2022.2.4,None,
46,UNPRED,8,0.7814668737127237,2,images/picture_3.png,images/picture_1.png,0,"[11.733433509789464, 11.733433509789462]",11.733433509789464,11.733433509789462,images/picture_2.png,1,"[-11.733433509789462, 11.733433509789464]",-11.733433509789462,11.733433509789464,images/picture_3.png,2,"[11.733433509789462, -11.733433509789466]",11.733433509789462,-11.733433509789464,0,1,1,0.7814668737127237,1.7814668737127235,1.2185331262872765,3,1,1.5314668737127235,0,3,0,3,0,0,3,3,1,,,,,,,,,,,,,,,,,,,,,200001,005,2023-03-10_12h40.57.543,DMS_BEST_eyetracking_DAN_base_12-60_looped_10minWORKING,2022.2.4,None,
46,UNPRED,8,0.7814668737127237,2,images/picture_3.png,images/picture_1.png,0,"[11.733433509789464, 11.733433509789462]",11.733433509789464,11.733433509789462,images/picture_2.png,1,"[-11.733433509789462, 11.733433509789464]",-11.733433509789462,11.733433509789464,images/picture_3.png,2,"[11.733433509789462, -11.733433509789466]",11.733433509789462,-11.733433509789464,0,1,1,0.7814668737127237,1.7814668737127235,1.2185331262872765,3,1,1.5314668737127235,0,3,0,3,0,0,3,3,1,,,,,,,0.001410000000760192,339.3202912500019,339.3202912500019,340.3209867080004,340.854114208003,341.0871878750004,341.0871878750004,341.0871878750004,342.32082004100084,342.32082004100084,342.32082004100084,342.32082004100084,3.9980399160012894,343.3218861660025,200001,005,2023-03-10_12h40.57.543,DMS_BEST_eyetracking_DAN_base_12-60_looped_10minWORKING,2022.2.4,None,
50,UNPRED,8,0.6385168667713793,2,images/picture_3.png,images/picture_1.png,0,"[-11.733433509789466, -11.733433509789462]",-11.733433509789464,-11.733433509789462,images/picture_2.png,1,"[11.733433509789464, 11.733433509789462]",11.733433509789464,11.733433509789462,images/picture_3.png,2,"[-11.733433509789462, 11.733433509789464]",-11.733433509789462,11.733433509789464,0,1,1,0.6385168667713793,1.6385168667713792,1.3614831332286208,3,1,1.3885168667713792,0,3,0,3,0,0,4,4,5,,,,,,,,,,,,,,,,,,,,,200001,005,2023-03-10_12h40.57.543,DMS_BEST_eyetracking_DAN_base_12-60_looped_10minWORKING,2022.2.4,None,
50,UNPRED,8,0.6385168667713793,2,images/picture_3.png,images/picture_1.png,0,"[-11.733433509789466, -11.733433509789462]",-11.733433509789464,-11.733433509789462,images/picture_2.png,1,"[11.733433509789464, 11.733433509789462]",11.733433509789464,11.733433509789462,images/picture_3.png,2,"[-11.733433509789462, 11.733433509789464]",-11.733433509789462,11.733433509789464,0,1,1,0.6385168667713793,1.6385168667713792,1.3614831332286208,3,1,1.3885168667713792,0,3,0,3,0,0,4,4,5,,,,,,,0.0033333749997837003,343.3218861660025,343.3218861660025,344.3208100000011,344.7208266660018,344.9539590830027,344.9539590830027,344.9539590830027,346.32080487500207,346.32080487500207,346.32080487500207,346.32080487500207,3.996621624999534,347.3408609580001,200001,005,2023-03-10_12h40.57.543,DMS_BEST_eyetracking_DAN_base_12-60_looped_10minWORKING,2022.2.4,None,
51,UNPRED,8,1.1063934325462794,1,images/picture_2.png,images/picture_1.png,0,"[11.733433509789462, -11.733433509789466]",11.733433509789462,-11.733433509789464,images/picture_2.png,1,"[11.733433509789464, 11.733433509789462]",11.733433509789464,11.733433509789462,images/picture_3.png,2,"[-11.733433509789466, -11.733433509789462]",-11.733433509789464,-11.733433509789462,0,1,1,1.1063934325462794,2.1063934325462794,0.8936065674537206,3,1,1.8563934325462796,0,3,0,3,0,0,5,5,6,,,,,,,,,,,,,,,,,,,,,200001,005,2023-03-10_12h40.57.543,DMS_BEST_eyetracking_DAN_base_12-60_looped_10minWORKING,2022.2.4,None,
51,UNPRED,8,1.1063934325462794,1,images/picture_2.png,images/picture_1.png,0,"[11.733433509789462, -11.733433509789466]",11.733433509789462,-11.733433509789464,images/picture_2.png,1,"[11.733433509789464, 11.733433509789462]",11.733433509789464,11.733433509789462,images/picture_3.png,2,"[-11.733433509789466, -11.733433509789462]",-11.733433509789464,-11.733433509789462,0,1,1,1.1063934325462794,2.1063934325462794,0.8936065674537206,3,1,1.8563934325462796,0,3,0,3,0,0,5,5,6,,,,,,,0.0048938330000964925,347.3408609580001,347.3408609580001,348.3542588750024,349.206670208001,349.4204717080029,349.4204717080029,349.4204717080029,350.32064408299993,350.32064408299993,350.32064408299993,350.32064408299993,4.0300539579984616,351.32086691600125,200001,005,2023-03-10_12h40.57.543,DMS_BEST_eyetracking_DAN_base_12-60_looped_10minWORKING,2022.2.4,None,
53,UNPRED,8,0.7979485502522876,1,images/picture_2.png,images/picture_1.png,0,"[-11.733433509789466, -11.733433509789462]",-11.733433509789464,-11.733433509789462,images/picture_2.png,1,"[11.733433509789462, -11.733433509789466]",11.733433509789462,-11.733433509789464,images/picture_3.png,2,"[-11.733433509789462, 11.733433509789464]",-11.733433509789462,11.733433509789464,0,1,1,0.7979485502522876,1.7979485502522876,1.2020514497477124,3,1,1.5479485502522876,0,3,0,3,0,0,6,6,8,,,,,,,,,,,,,,,,,,,,,200001,005,2023-03-10_12h40.57.543,DMS_BEST_eyetracking_DAN_base_12-60_looped_10minWORKING,2022.2.4,None,
53,UNPRED,8,0.7979485502522876,1,images/picture_2.png,images/picture_1.png,0,"[-11.733433509789466, -11.733433509789462]",-11.733433509789464,-11.733433509789462,images/picture_2.png,1,"[11.733433509789462, -11.733433509789466]",11.733433509789462,-11.733433509789464,images/picture_3.png,2,"[-11.733433509789462, 11.733433509789464]",-11.733433509789462,11.733433509789464,0,1,1,0.7979485502522876,1.7979485502522876,1.2020514497477124,3,1,1.5479485502522876,0,3,0,3,0,0,6,6,8,,,,,,,0.004933000000164611,351.3733288750009,351.3733288750009,352.38747658300053,352.92085945800136,353.153902666003,353.153902666003,353.153902666003,354.3543052080022,354.3543052080022,354.3543052080022,354.3543052080022,4.029171041998779,355.3542750000015,200001,005,2023-03-10_12h40.57.543,DMS_BEST_eyetracking_DAN_base_12-60_looped_10minWORKING,2022.2.4,None,
58,UNPRED,8,0.8598215337026909,0,images/picture_1.png,images/picture_1.png,0,"[-11.733433509789462, 11.733433509789464]",-11.733433509789462,11.733433509789464,images/picture_2.png,1,"[11.733433509789464, 11.733433509789462]",11.733433509789464,11.733433509789462,images/picture_3.png,2,"[11.733433509789462, -11.733433509789466]",11.733433509789462,-11.733433509789464,0,1,1,0.8598215337026909,1.8598215337026909,1.1401784662973091,3,1,1.6098215337026909,0,3,0,3,0,0,7,7,13,,,,,,,,,,,,,,,,,,,,,200001,005,2023-03-10_12h40.57.543,DMS_BEST_eyetracking_DAN_base_12-60_looped_10minWORKING,2022.2.4,None,
58,UNPRED,8,0.8598215337026909,0,images/picture_1.png,images/picture_1.png,0,"[-11.733433509789462, 11.733433509789464]",-11.733433509789462,11.733433509789464,images/picture_2.png,1,"[11.733433509789464, 11.733433509789462]",11.733433509789464,11.733433509789462,images/picture_3.png,2,"[11.733433509789462, -11.733433509789466]",11.733433509789462,-11.733433509789464,0,1,1,0.8598215337026909,1.8598215337026909,1.1401784662973091,3,1,1.6098215337026909,0,3,0,3,0,0,7,7,13,,,,,,,0.004628624999895692,355.40748291600175,355.40748291600175,356.42036870800075,357.0210725830002,357.24059750000015,357.24059750000015,357.24059750000015,358.3875620830004,358.3875620830004,358.3875620830004,358.3875620830004,4.029300250000233,359.38719445800234,200001,005,2023-03-10_12h40.57.543,DMS_BEST_eyetracking_DAN_base_12-60_looped_10minWORKING,2022.2.4,None,
48,UNPRED,8,0.562839757732295,1,images/picture_2.png,images/picture_1.png,0,"[11.733433509789464, 11.733433509789462]",11.733433509789464,11.733433509789462,images/picture_2.png,1,"[-11.733433509789466, -11.733433509789462]",-11.733433509789464,-11.733433509789462,images/picture_3.png,2,"[11.733433509789462, -11.733433509789466]",11.733433509789462,-11.733433509789464,0,1,1,0.562839757732295,1.5628397577322948,1.4371602422677052,3,1,1.312839757732295,0,3,0,3,0,0,8,8,3,,,,,,,,,,,,,,,,,,,,,200001,005,2023-03-10_12h40.57.543,DMS_BEST_eyetracking_DAN_base_12-60_looped_10minWORKING,2022.2.4,None,
48,UNPRED,8,0.562839757732295,1,images/picture_2.png,images/picture_1.png,0,"[11.733433509789464, 11.733433509789462]",11.733433509789464,11.733433509789462,images/picture_2.png,1,"[-11.733433509789466, -11.733433509789462]",-11.733433509789464,-11.733433509789462,images/picture_3.png,2,"[11.733433509789462, -11.733433509789466]",11.733433509789462,-11.733433509789464,0,1,1,0.562839757732295,1.5628397577322948,1.4371602422677052,3,1,1.312839757732295,0,3,0,3,0,0,8,8,3,,,,,,,0.0022668339988740627,359.4202773750003,359.4202773750003,360.42059512500055,360.7403860830018,360.97380412500206,360.97380412500206,360.97380412500206,362.42039987500175,362.42039987500175,362.42039987500175,362.42039987500175,3.9984116249979706,363.4406368330019,200001,005,2023-03-10_12h40.57.543,DMS_BEST_eyetracking_DAN_base_12-60_looped_10minWORKING,2022.2.4,None,
47,UNPRED,8,0.5730607438313414,1,images/picture_2.png,images/picture_1.png,0,"[-11.733433509789462, 11.733433509789464]",-11.733433509789462,11.733433509789464,images/picture_2.png,1,"[11.733433509789464, 11.733433509789462]",11.733433509789464,11.733433509789462,images/picture_3.png,2,"[11.733433509789462, -11.733433509789466]",11.733433509789462,-11.733433509789464,0,1,1,0.5730607438313414,1.573060743831341,1.426939256168659,3,1,1.323060743831341,0,3,0,3,0,0,9,9,2,,,,,,,,,,,,,,,,,,,,,200001,005,2023-03-10_12h40.57.543,DMS_BEST_eyetracking_DAN_base_12-60_looped_10minWORKING,2022.2.4,None,
47,UNPRED,8,0.5730607438313414,1,images/picture_2.png,images/picture_1.png,0,"[-11.733433509789462, 11.733433509789464]",-11.733433509789462,11.733433509789464,images/picture_2.png,1,"[11.733433509789464, 11.733433509789462]",11.733433509789464,11.733433509789462,images/picture_3.png,2,"[11.733433509789462, -11.733433509789466]",11.733433509789462,-11.733433509789464,0,1,1,0.5730607438313414,1.573060743831341,1.426939256168659,3,1,1.323060743831341,0,3,0,3,0,0,9,9,2,,,,,,,0.004845457999181235,363.4406368330019,363.4406368330019,364.4543068330022,364.7732263329999,364.9876512080009,364.9876512080009,364.9876512080009,366.4208627500011,366.4208627500011,366.4208627500011,366.4208627500011,4.0308185829999275,367.42100500000015,200001,005,2023-03-10_12h40.57.543,DMS_BEST_eyetracking_DAN_base_12-60_looped_10minWORKING,2022.2.4,None,
45,UNPRED,8,1.029111535196062,0,images/picture_1.png,images/picture_1.png,0,"[11.733433509789462, -11.733433509789466]",11.733433509789462,-11.733433509789464,images/picture_2.png,1,"[-11.733433509789462, 11.733433509789464]",-11.733433509789462,11.733433509789464,images/picture_3.png,2,"[11.733433509789464, 11.733433509789462]",11.733433509789464,11.733433509789462,0,1,1,1.029111535196062,2.0291115351960616,0.970888464803938,3,1,1.7791115351960618,0,3,0,3,0,0,10,10,0,,,,,,,,,,,,,,,,,,,,,200001,005,2023-03-10_12h40.57.543,DMS_BEST_eyetracking_DAN_base_12-60_looped_10minWORKING,2022.2.4,None,
45,UNPRED,8,1.029111535196062,0,images/picture_1.png,images/picture_1.png,0,"[11.733433509789462, -11.733433509789466]",11.733433509789462,-11.733433509789464,images/picture_2.png,1,"[-11.733433509789462, 11.733433509789464]",-11.733433509789462,11.733433509789464,images/picture_3.png,2,"[11.733433509789464, 11.733433509789462]",11.733433509789464,11.733433509789462,0,1,1,1.029111535196062,2.0291115351960616,0.970888464803938,3,1,1.7791115351960618,0,3,0,3,0,0,10,10,0,,,,,,,0.004658416997699533,367.4738395830027,367.4738395830027,368.4871692910019,369.25431329099956,369.4872991660013,369.4872991660013,369.4872991660013,370.45384366600047,370.4728082500005,370.4728082500005,370.4728082500005,4.029209542000899,371.4538805000011,200001,005,2023-03-10_12h40.57.543,DMS_BEST_eyetracking_DAN_base_12-60_looped_10minWORKING,2022.2.4,None,
54,UNPRED,8,1.1153613666096571,1,images/picture_2.png,images/picture_1.png,0,"[11.733433509789462, -11.733433509789466]",11.733433509789462,-11.733433509789464,images/picture_2.png,1,"[-11.733433509789462, 11.733433509789464]",-11.733433509789462,11.733433509789464,images/picture_3.png,2,"[-11.733433509789466, -11.733433509789462]",-11.733433509789464,-11.733433509789462,0,1,1,1.1153613666096571,2.1153613666096573,0.8846386333903429,3,1,1.8653613666096571,0,3,0,3,0,0,11,11,9,,,,,,,,,,,,,,,,,,,,,200001,005,2023-03-10_12h40.57.543,DMS_BEST_eyetracking_DAN_base_12-60_looped_10minWORKING,2022.2.4,None,
54,UNPRED,8,1.1153613666096571,1,images/picture_2.png,images/picture_1.png,0,"[11.733433509789462, -11.733433509789466]",11.733433509789462,-11.733433509789464,images/picture_2.png,1,"[-11.733433509789462, 11.733433509789464]",-11.733433509789462,11.733433509789464,images/picture_3.png,2,"[-11.733433509789466, -11.733433509789462]",-11.733433509789464,-11.733433509789462,0,1,1,1.1153613666096571,2.1153613666096573,0.8846386333903429,3,1,1.8653613666096571,0,3,0,3,0,0,11,11,9,,,,,,,0.005595792001258815,371.5069325830009,371.5069325830009,372.52124600000025,373.3876135829996,373.6070585000016,373.6070585000016,373.6070585000016,374.48723883300045,374.5070661660029,374.5070661660029,374.5070661660029,4.030930167002225,375.48762904100295,200001,005,2023-03-10_12h40.57.543,DMS_BEST_eyetracking_DAN_base_12-60_looped_10minWORKING,2022.2.4,None,
49,UNPRED,8,0.7671203204462936,2,images/picture_3.png,images/picture_1.png,0,"[-11.733433509789466, -11.733433509789462]",-11.733433509789464,-11.733433509789462,images/picture_2.png,1,"[11.733433509789464, 11.733433509789462]",11.733433509789464,11.733433509789462,images/picture_3.png,2,"[11.733433509789462, -11.733433509789466]",11.733433509789462,-11.733433509789464,0,1,1,0.7671203204462936,1.7671203204462935,1.2328796795537065,3,1,1.5171203204462935,0,3,0,3,0,0,12,12,4,,,,,,,,,,,,,,,,,,,,,200001,005,2023-03-10_12h40.57.543,DMS_BEST_eyetracking_DAN_base_12-60_looped_10minWORKING,2022.2.4,None,
49,UNPRED,8,0.7671203204462936,2,images/picture_3.png,images/picture_1.png,0,"[-11.733433509789466, -11.733433509789462]",-11.733433509789464,-11.733433509789462,images/picture_2.png,1,"[11.733433509789464, 11.733433509789462]",11.733433509789464,11.733433509789462,images/picture_3.png,2,"[11.733433509789462, -11.733433509789466]",11.733433509789462,-11.733433509789464,0,1,1,0.7671203204462936,1.7671203204462935,1.2328796795537065,3,1,1.5171203204462935,0,3,0,3,0,0,12,12,4,,,,,,,0.0033937920015887357,375.5410297910021,375.5410297910021,376.55428841600224,377.0739430410031,377.2873744160024,377.2873744160024,377.2873744160024,378.5211676660001,378.5211676660001,378.5211676660001,378.5211676660001,4.029071666998789,379.521038875002,200001,005,2023-03-10_12h40.57.543,DMS_BEST_eyetracking_DAN_base_12-60_looped_10minWORKING,2022.2.4,None,
59,UNPRED,8,0.9780857757764718,2,images/picture_3.png,images/picture_1.png,0,"[11.733433509789464, 11.733433509789462]",11.733433509789464,11.733433509789462,images/picture_2.png,1,"[11.733433509789462, -11.733433509789466]",11.733433509789462,-11.733433509789464,images/picture_3.png,2,"[-11.733433509789466, -11.733433509789462]",-11.733433509789464,-11.733433509789462,0,1,1,0.9780857757764718,1.978085775776472,1.0219142242235282,3,1,1.7280857757764718,0,3,0,3,0,0,13,13,14,,,,,,,,,,,,,,,,,,,,,200001,005,2023-03-10_12h40.57.543,DMS_BEST_eyetracking_DAN_base_12-60_looped_10minWORKING,2022.2.4,None,
59,UNPRED,8,0.9780857757764718,2,images/picture_3.png,images/picture_1.png,0,"[11.733433509789464, 11.733433509789462]",11.733433509789464,11.733433509789462,images/picture_2.png,1,"[11.733433509789462, -11.733433509789466]",11.733433509789462,-11.733433509789464,images/picture_3.png,2,"[-11.733433509789466, -11.733433509789462]",-11.733433509789464,-11.733433509789462,0,1,1,0.9780857757764718,1.978085775776472,1.0219142242235282,3,1,1.7280857757764718,0,3,0,3,0,0,13,13,14,,,,,,,0.0033763330029614735,379.5554333750006,379.5554333750006,380.5537417080013,381.2876591660024,381.5207380000029,381.5207380000029,381.5207380000029,382.554338416001,382.554338416001,382.554338416001,382.554338416001,3.995850417002657,383.55406154100274,200001,005,2023-03-10_12h40.57.543,DMS_BEST_eyetracking_DAN_base_12-60_looped_10minWORKING,2022.2.4,None,
56,UNPRED,8,1.0497251035986432,2,images/picture_3.png,images/picture_1.png,0,"[11.733433509789462, -11.733433509789466]",11.733433509789462,-11.733433509789464,images/picture_2.png,1,"[-11.733433509789466, -11.733433509789462]",-11.733433509789464,-11.733433509789462,images/picture_3.png,2,"[-11.733433509789462, 11.733433509789464]",-11.733433509789462,11.733433509789464,0,1,1,1.0497251035986432,2.049725103598643,0.9502748964013568,3,1,1.799725103598643,0,3,0,3,0,0,14,14,11,,,,,,,,,,,,,,,,,,,,,200001,005,2023-03-10_12h40.57.543,DMS_BEST_eyetracking_DAN_base_12-60_looped_10minWORKING,2022.2.4,None,
56,UNPRED,8,1.0497251035986432,2,images/picture_3.png,images/picture_1.png,0,"[11.733433509789462, -11.733433509789466]",11.733433509789462,-11.733433509789464,images/picture_2.png,1,"[-11.733433509789466, -11.733433509789462]",-11.733433509789464,-11.733433509789462,images/picture_3.png,2,"[-11.733433509789462, 11.733433509789464]",-11.733433509789462,11.733433509789464,0,1,1,1.0497251035986432,2.049725103598643,0.9502748964013568,3,1,1.799725103598643,0,3,0,3,0,0,14,14,11,,,,,,,0.003082834002270829,383.55406154100274,383.55406154100274,384.55434058300307,385.3543123330019,385.6072836250023,385.6072836250023,385.6072836250023,386.5543729580022,386.5543729580022,386.5543729580022,386.5543729580022,3.9976201669996954,387.6911904160006,200001,005,2023-03-10_12h40.57.543,DMS_BEST_eyetracking_DAN_base_12-60_looped_10minWORKING,2022.2.4,None,
,,,,,,,,,,,,,,,,,,,,,,,,,,,,,,,3,0,3,0,,,,,,,,,387.6911904160006,399.710044958003,,,,,,,,,,,,,,,200001,005,2023-03-10_12h40.57.543,DMS_BEST_eyetracking_DAN_base_12-60_looped_10minWORKING,2022.2.4,None,
71,PRED,8,0.8116650600208146,0,images/picture_1.png,images/picture_1.png,0,"[11.733433509789464, 11.733433509789462]",11.733433509789464,11.733433509789462,images/picture_2.png,1,"[-11.733433509789462, 11.733433509789464]",-11.733433509789462,11.733433509789464,images/picture_3.png,2,"[-11.733433509789466, -11.733433509789462]",-11.733433509789464,-11.733433509789462,0,1,1,0.8116650600208146,1.8116650600208144,1.1883349399791854,3,1,1.5616650600208146,0,4,0,4,0,0,0,0,11,,,,,,,,,,,,,,,,,,,,,200001,005,2023-03-10_12h40.57.543,DMS_BEST_eyetracking_DAN_base_12-60_looped_10minWORKING,2022.2.4,None,
71,PRED,8,0.8116650600208146,0,images/picture_1.png,images/picture_1.png,0,"[11.733433509789464, 11.733433509789462]",11.733433509789464,11.733433509789462,images/picture_2.png,1,"[-11.733433509789462, 11.733433509789464]",-11.733433509789462,11.733433509789464,images/picture_3.png,2,"[-11.733433509789466, -11.733433509789462]",-11.733433509789464,-11.733433509789462,0,1,1,0.8116650600208146,1.8116650600208144,1.1883349399791854,3,1,1.5616650600208146,0,4,0,4,0,0,0,0,11,,,,,,,0.003544625000358792,399.710044958003,399.710044958003,400.7206083750025,401.2739830829996,401.520727500003,401.520727500003,401.520727500003,402.7073962909999,402.7210213750004,402.7210213750004,402.7210213750004,4.008222832999309,403.74122091600293,200001,005,2023-03-10_12h40.57.543,DMS_BEST_eyetracking_DAN_base_12-60_looped_10minWORKING,2022.2.4,None,
61,PRED,8,0.5677814516030525,0,images/picture_1.png,images/picture_1.png,0,"[11.733433509789464, 11.733433509789462]",11.733433509789464,11.733433509789462,images/picture_2.png,1,"[11.733433509789462, -11.733433509789466]",11.733433509789462,-11.733433509789464,images/picture_3.png,2,"[-11.733433509789462, 11.733433509789464]",-11.733433509789462,11.733433509789464,0,1,1,0.5677814516030525,1.5677814516030524,1.4322185483969476,3,1,1.3177814516030524,0,4,0,4,0,0,1,1,1,,,,,,,,,,,,,,,,,,,,,200001,005,2023-03-10_12h40.57.543,DMS_BEST_eyetracking_DAN_base_12-60_looped_10minWORKING,2022.2.4,None,
61,PRED,8,0.5677814516030525,0,images/picture_1.png,images/picture_1.png,0,"[11.733433509789464, 11.733433509789462]",11.733433509789464,11.733433509789462,images/picture_2.png,1,"[11.733433509789462, -11.733433509789466]",11.733433509789462,-11.733433509789464,images/picture_3.png,2,"[-11.733433509789462, 11.733433509789464]",-11.733433509789462,11.733433509789464,0,1,1,0.5677814516030525,1.5677814516030524,1.4322185483969476,3,1,1.3177814516030524,0,4,0,4,0,0,1,1,1,,,,,,,0.0034947079984704033,403.74122091600293,403.74122091600293,404.75452962500276,405.0736177910003,405.2871647080028,405.2871647080028,405.2871647080028,406.72108570800265,406.72108570800265,406.72108570800265,406.72108570800265,4.0300882079973235,407.7212478750007,200001,005,2023-03-10_12h40.57.543,DMS_BEST_eyetracking_DAN_base_12-60_looped_10minWORKING,2022.2.4,None,
62,PRED,8,0.9916430505692472,0,images/picture_1.png,images/picture_1.png,0,"[-11.733433509789466, -11.733433509789462]",-11.733433509789464,-11.733433509789462,images/picture_2.png,1,"[11.733433509789464, 11.733433509789462]",11.733433509789464,11.733433509789462,images/picture_3.png,2,"[11.733433509789462, -11.733433509789466]",11.733433509789462,-11.733433509789464,0,1,1,0.9916430505692472,1.9916430505692466,1.008356949430753,3,1,1.7416430505692466,0,4,0,4,0,0,2,2,2,,,,,,,,,,,,,,,,,,,,,200001,005,2023-03-10_12h40.57.543,DMS_BEST_eyetracking_DAN_base_12-60_looped_10minWORKING,2022.2.4,None,
62,PRED,8,0.9916430505692472,0,images/picture_1.png,images/picture_1.png,0,"[-11.733433509789466, -11.733433509789462]",-11.733433509789464,-11.733433509789462,images/picture_2.png,1,"[11.733433509789464, 11.733433509789462]",11.733433509789464,11.733433509789462,images/picture_3.png,2,"[11.733433509789462, -11.733433509789466]",11.733433509789462,-11.733433509789464,0,1,1,0.9916430505692472,1.9916430505692466,1.008356949430753,3,1,1.7416430505692466,0,4,0,4,0,0,2,2,2,,,,,,,0.003550417000951711,407.7742141250019,407.7742141250019,408.78787083300267,409.5210950410001,409.74101558300026,409.74101558300026,409.74101558300026,410.7540270829995,410.7540270829995,410.7540270829995,410.7540270829995,4.029393666998658,411.75452604100064,200001,005,2023-03-10_12h40.57.543,DMS_BEST_eyetracking_DAN_base_12-60_looped_10minWORKING,2022.2.4,None,
65,PRED,8,0.9341523420985868,0,images/picture_1.png,images/picture_1.png,0,"[-11.733433509789462, 11.733433509789464]",-11.733433509789462,11.733433509789464,images/picture_2.png,1,"[11.733433509789464, 11.733433509789462]",11.733433509789464,11.733433509789462,images/picture_3.png,2,"[11.733433509789462, -11.733433509789466]",11.733433509789462,-11.733433509789464,0,1,1,0.9341523420985868,1.9341523420985869,1.0658476579014131,3,1,1.6841523420985869,0,4,0,4,0,0,3,3,5,,,,,,,,,,,,,,,,,,,,,200001,005,2023-03-10_12h40.57.543,DMS_BEST_eyetracking_DAN_base_12-60_looped_10minWORKING,2022.2.4,None,
65,PRED,8,0.9341523420985868,0,images/picture_1.png,images/picture_1.png,0,"[-11.733433509789462, 11.733433509789464]",-11.733433509789462,11.733433509789464,images/picture_2.png,1,"[11.733433509789464, 11.733433509789462]",11.733433509789464,11.733433509789462,images/picture_3.png,2,"[11.733433509789462, -11.733433509789466]",11.733433509789462,-11.733433509789464,0,1,1,0.9341523420985868,1.9341523420985869,1.0658476579014131,3,1,1.6841523420985869,0,4,0,4,0,0,3,3,5,,,,,,,0.0035076250023848843,411.80731520799964,411.80731520799964,412.8211304159995,413.5067416660022,413.72088000000076,413.72088000000076,413.72088000000076,414.7877410000001,414.7877410000001,414.7877410000001,414.7877410000001,4.029701292001846,415.78778420800154,200001,005,2023-03-10_12h40.57.543,DMS_BEST_eyetracking_DAN_base_12-60_looped_10minWORKING,2022.2.4,None,
64,PRED,8,0.5939285274100187,0,images/picture_1.png,images/picture_1.png,0,"[-11.733433509789462, 11.733433509789464]",-11.733433509789462,11.733433509789464,images/picture_2.png,1,"[-11.733433509789466, -11.733433509789462]",-11.733433509789464,-11.733433509789462,images/picture_3.png,2,"[11.733433509789462, -11.733433509789466]",11.733433509789462,-11.733433509789464,0,1,1,0.5939285274100187,1.5939285274100188,1.4060714725899812,3,1,1.3439285274100188,0,4,0,4,0,0,4,4,4,,,,,,,,,,,,,,,,,,,,,200001,005,2023-03-10_12h40.57.543,DMS_BEST_eyetracking_DAN_base_12-60_looped_10minWORKING,2022.2.4,None,
64,PRED,8,0.5939285274100187,0,images/picture_1.png,images/picture_1.png,0,"[-11.733433509789462, 11.733433509789464]",-11.733433509789462,11.733433509789464,images/picture_2.png,1,"[-11.733433509789466, -11.733433509789462]",-11.733433509789464,-11.733433509789462,images/picture_3.png,2,"[11.733433509789462, -11.733433509789466]",11.733433509789462,-11.733433509789464,0,1,1,0.5939285274100187,1.5939285274100188,1.4060714725899812,3,1,1.3439285274100188,0,4,0,4,0,0,4,4,4,,,,,,,0.003440832999331178,415.8222117080004,415.8222117080004,416.82118216600065,417.17386462500144,417.4076700000005,417.4076700000005,417.4076700000005,418.82112241600043,418.82112241600043,418.82112241600043,418.82112241600043,3.9965184159991622,419.8411816660009,200001,005,2023-03-10_12h40.57.543,DMS_BEST_eyetracking_DAN_base_12-60_looped_10minWORKING,2022.2.4,None,
66,PRED,8,0.9416322791469448,0,images/picture_1.png,images/picture_1.png,0,"[-11.733433509789466, -11.733433509789462]",-11.733433509789464,-11.733433509789462,images/picture_2.png,1,"[-11.733433509789462, 11.733433509789464]",-11.733433509789462,11.733433509789464,images/picture_3.png,2,"[11.733433509789462, -11.733433509789466]",11.733433509789462,-11.733433509789464,0,1,1,0.9416322791469448,1.9416322791469451,1.058367720853055,3,1,1.6916322791469451,0,4,0,4,0,0,5,5,6,,,,,,,,,,,,,,,,,,,,,200001,005,2023-03-10_12h40.57.543,DMS_BEST_eyetracking_DAN_base_12-60_looped_10minWORKING,2022.2.4,None,
66,PRED,8,0.9416322791469448,0,images/picture_1.png,images/picture_1.png,0,"[-11.733433509789466, -11.733433509789462]",-11.733433509789464,-11.733433509789462,images/picture_2.png,1,"[-11.733433509789462, 11.733433509789464]",-11.733433509789462,11.733433509789464,images/picture_3.png,2,"[11.733433509789462, -11.733433509789466]",11.733433509789462,-11.733433509789464,0,1,1,0.9416322791469448,1.9416322791469451,1.058367720853055,3,1,1.6916322791469451,0,4,0,4,0,0,5,5,6,,,,,,,0.0034016669997072313,419.8411816660009,419.8411816660009,420.854183833002,421.5399554579999,421.75414220800303,421.75414220800303,421.75414220800303,422.8206508330004,422.8206508330004,422.8206508330004,422.8206508330004,4.030044749997614,423.82127462500284,200001,005,2023-03-10_12h40.57.543,DMS_BEST_eyetracking_DAN_base_12-60_looped_10minWORKING,2022.2.4,None,
68,PRED,8,0.8497553196918793,0,images/picture_1.png,images/picture_1.png,0,"[11.733433509789462, -11.733433509789466]",11.733433509789462,-11.733433509789464,images/picture_2.png,1,"[-11.733433509789466, -11.733433509789462]",-11.733433509789464,-11.733433509789462,images/picture_3.png,2,"[-11.733433509789462, 11.733433509789464]",-11.733433509789462,11.733433509789464,0,1,1,0.8497553196918793,1.8497553196918792,1.1502446803081208,3,1,1.5997553196918792,0,4,0,4,0,0,6,6,8,,,,,,,,,,,,,,,,,,,,,200001,005,2023-03-10_12h40.57.543,DMS_BEST_eyetracking_DAN_base_12-60_looped_10minWORKING,2022.2.4,None,
68,PRED,8,0.8497553196918793,0,images/picture_1.png,images/picture_1.png,0,"[11.733433509789462, -11.733433509789466]",11.733433509789462,-11.733433509789464,images/picture_2.png,1,"[-11.733433509789466, -11.733433509789462]",-11.733433509789464,-11.733433509789462,images/picture_3.png,2,"[-11.733433509789462, 11.733433509789464]",-11.733433509789462,11.733433509789464,0,1,1,0.8497553196918793,1.8497553196918792,1.1502446803081208,3,1,1.5997553196918792,0,4,0,4,0,0,6,6,8,,,,,,,0.003464249999524327,423.8744441660019,423.8744441660019,424.8878269580018,425.4877107909997,425.70723570799964,425.70723570799964,425.70723570799964,426.85452420799993,426.85452420799993,426.85452420799993,426.85452420799993,4.0294231660009245,427.85452983300274,200001,005,2023-03-10_12h40.57.543,DMS_BEST_eyetracking_DAN_base_12-60_looped_10minWORKING,2022.2.4,None,
73,PRED,8,0.6003527343640864,0,images/picture_1.png,images/picture_1.png,0,"[11.733433509789464, 11.733433509789462]",11.733433509789464,11.733433509789462,images/picture_2.png,1,"[-11.733433509789466, -11.733433509789462]",-11.733433509789464,-11.733433509789462,images/picture_3.png,2,"[11.733433509789462, -11.733433509789466]",11.733433509789462,-11.733433509789464,0,1,1,0.6003527343640864,1.6003527343640864,1.3996472656359136,3,1,1.3503527343640864,0,4,0,4,0,0,7,7,13,,,,,,,,,,,,,,,,,,,,,200001,005,2023-03-10_12h40.57.543,DMS_BEST_eyetracking_DAN_base_12-60_looped_10minWORKING,2022.2.4,None,
