trial_count,blockType,blockNum,delay_time,stimImage_i,stimImage,responseImage1,responseImage1_i,responseImage1_pos,responseImage1_X,responseImage1_Y,responseImage2,responseImage2_i,responseImage2_pos,responseImage2_X,responseImage2_Y,responseImage3,responseImage3_i,responseImage3_pos,responseImage3_X,responseImage3_Y,cue_onset,cue_dur,delay_onset,delay_dur,resp_onset,resp_dur,rest_onset,rest_dur,circle_dur,circle_onset,total_dur,cross_onset,cross_dur,delay_resp_period,blocks.thisRepN,blocks.thisTrialN,blocks.thisN,blocks.thisIndex,trials.thisRepN,trials.thisTrialN,trials.thisN,trials.thisIndex,key_resp.started,text.started,key_resp.keys,key_resp.rt,text_2.started,text_2.stopped,sample.started,Delay.started,sample.stopped,Delay.stopped,Response_1.started,Response_2.started,Response_3.started,Response_1.stopped,Response_2.stopped,Response_3.stopped,polygon.started,polygon.stopped,participant,session,date,expName,psychopyVersion,frameRate,
,,,,,,,,,,,,,,,,,,,,,,,,,,,,,,,,,,,,,,,,,,,96.70746954099741,96.70746954099741,t,50.18505641701631,,,,,,,,,,,,,,,200003,105,2023-03-24_13h28.15.864,DMS_et_12-36,2022.2.4,None,
8,PRED,12,1.1955301040240789,2,images/picture_3.png,images/picture_1.png,0,"[11.733433509789462, -11.733433509789466]",11.733433509789462,-11.733433509789464,images/picture_2.png,1,"[-11.733433509789462, 11.733433509789464]",-11.733433509789462,11.733433509789464,images/picture_3.png,2,"[11.733433509789464, 11.733433509789462]",11.733433509789464,11.733433509789462,0,1,1,1.1955301040240789,2.1955301040240793,0.8044698959759213,3.0,1,1.9455301040240789,0,4.0,3.0,1,2,0,0,0,0,0,0,0,8,,,,,147.41081829101313,159.45433387497906,159.45433387497906,159.45433387497906,160.45485245797317,161.40773708291817,161.62174037494697,161.62174037494697,161.62174037494697,162.44093799998518,162.44093799998518,162.44093799998518,162.44093799998518,163.4742672080174,200003,105,2023-03-24_13h28.15.864,DMS_et_12-36,2022.2.4,None,
7,PRED,12,1.1955301040240789,2,images/picture_3.png,images/picture_1.png,0,"[-11.733433509789462, 11.733433509789464]",-11.733433509789462,11.733433509789464,images/picture_2.png,1,"[11.733433509789464, 11.733433509789462]",11.733433509789464,11.733433509789462,images/picture_3.png,2,"[-11.733433509789466, -11.733433509789462]",-11.733433509789464,-11.733433509789462,0,1,1,1.1955301040240789,2.1955301040240793,0.8044698959759213,3.0,1,1.9455301040240789,0,4.0,3.0,1,2,0,0,0,0,0,1,1,7,,,,,,,163.4742672080174,163.4742672080174,164.48829999996815,165.42179120797664,165.64102783298586,165.64102783298586,165.64102783298586,166.45498754095752,166.45498754095752,166.45498754095752,166.45498754095752,167.47405020799488,200003,105,2023-03-24_13h28.15.864,DMS_et_12-36,2022.2.4,None,
3,PRED,12,1.1955301040240789,2,images/picture_3.png,images/picture_1.png,0,"[11.733433509789464, 11.733433509789462]",11.733433509789464,11.733433509789462,images/picture_2.png,1,"[-11.733433509789466, -11.733433509789462]",-11.733433509789464,-11.733433509789462,images/picture_3.png,2,"[-11.733433509789462, 11.733433509789464]",-11.733433509789462,11.733433509789464,0,1,1,1.1955301040240789,2.1955301040240793,0.8044698959759213,3.0,1,1.9455301040240789,0,4.0,3.0,1,2,0,0,0,0,0,2,2,3,,,,,,,167.47405020799488,167.47405020799488,168.4884757909458,169.4215742079541,169.64108249999117,169.64108249999117,169.64108249999117,170.45505824999418,170.45505824999418,170.45505824999418,170.45505824999418,171.47393350000493,200003,105,2023-03-24_13h28.15.864,DMS_et_12-36,2022.2.4,None,
6,PRED,12,1.1955301040240789,2,images/picture_3.png,images/picture_1.png,0,"[-11.733433509789462, 11.733433509789464]",-11.733433509789462,11.733433509789464,images/picture_2.png,1,"[11.733433509789464, 11.733433509789462]",11.733433509789464,11.733433509789462,images/picture_3.png,2,"[11.733433509789462, -11.733433509789466]",11.733433509789462,-11.733433509789464,0,1,1,1.1955301040240789,2.1955301040240793,0.8044698959759213,3.0,1,1.9455301040240789,0,4.0,3.0,1,2,0,0,0,0,0,3,3,6,,,,,,,171.47393350000493,171.47393350000493,172.4883158749435,173.42139433301054,173.64095187501516,173.64095187501516,173.64095187501516,174.4548411249416,174.4548411249416,174.4548411249416,174.4548411249416,175.47379650000948,200003,105,2023-03-24_13h28.15.864,DMS_et_12-36,2022.2.4,None,
0,PRED,12,1.1955301040240789,2,images/picture_3.png,images/picture_1.png,0,"[11.733433509789462, -11.733433509789466]",11.733433509789462,-11.733433509789464,images/picture_2.png,1,"[-11.733433509789462, 11.733433509789464]",-11.733433509789462,11.733433509789464,images/picture_3.png,2,"[-11.733433509789466, -11.733433509789462]",-11.733433509789464,-11.733433509789462,0,1,1,1.1955301040240789,2.1955301040240793,0.8044698959759213,3.0,1,1.9455301040240789,0,4.0,3.0,1,2,0,0,0,0,0,4,4,0,,,,,,,175.47379650000948,175.47379650000948,176.48834966600407,177.4217334999703,177.64120287494734,177.64120287494734,177.64120287494734,178.45500600000378,178.45500600000378,178.45500600000378,178.45500600000378,179.47392562497407,200003,105,2023-03-24_13h28.15.864,DMS_et_12-36,2022.2.4,None,
2,PRED,12,1.1955301040240789,2,images/picture_3.png,images/picture_1.png,0,"[11.733433509789464, 11.733433509789462]",11.733433509789464,11.733433509789462,images/picture_2.png,1,"[-11.733433509789462, 11.733433509789464]",-11.733433509789462,11.733433509789464,images/picture_3.png,2,"[-11.733433509789466, -11.733433509789462]",-11.733433509789464,-11.733433509789462,0,1,1,1.1955301040240789,2.1955301040240793,0.8044698959759213,3.0,1,1.9455301040240789,0,4.0,3.0,1,2,0,0,0,0,0,5,5,2,,,,,,,179.47392562497407,179.47392562497407,180.48839574994054,181.42158691596705,181.6411437499337,181.6411437499337,181.6411437499337,182.45523249998223,182.45523249998223,182.45523249998223,182.45523249998223,183.47384554101154,200003,105,2023-03-24_13h28.15.864,DMS_et_12-36,2022.2.4,None,
4,PRED,12,1.1955301040240789,2,images/picture_3.png,images/picture_1.png,0,"[11.733433509789464, 11.733433509789462]",11.733433509789464,11.733433509789462,images/picture_2.png,1,"[11.733433509789462, -11.733433509789466]",11.733433509789462,-11.733433509789464,images/picture_3.png,2,"[-11.733433509789462, 11.733433509789464]",-11.733433509789462,11.733433509789464,0,1,1,1.1955301040240789,2.1955301040240793,0.8044698959759213,3.0,1,1.9455301040240789,0,4.0,3.0,1,2,0,0,0,0,0,6,6,4,,,,,,,183.47384554101154,183.47384554101154,184.48831770801917,185.42183166590985,185.64098774990998,185.64098774990998,185.64098774990998,186.4552730829455,186.4552730829455,186.4552730829455,186.4552730829455,187.47395087499171,200003,105,2023-03-24_13h28.15.864,DMS_et_12-36,2022.2.4,None,
5,PRED,12,1.1955301040240789,2,images/picture_3.png,images/picture_1.png,0,"[11.733433509789464, 11.733433509789462]",11.733433509789464,11.733433509789462,images/picture_2.png,1,"[-11.733433509789466, -11.733433509789462]",-11.733433509789464,-11.733433509789462,images/picture_3.png,2,"[11.733433509789462, -11.733433509789466]",11.733433509789462,-11.733433509789464,0,1,1,1.1955301040240789,2.1955301040240793,0.8044698959759213,3.0,1,1.9455301040240789,0,4.0,3.0,1,2,0,0,0,0,0,7,7,5,,,,,,,187.47395087499171,187.47395087499171,188.48856291593984,189.42171908298042,189.64102899993304,189.64102899993304,189.64102899993304,190.4551006249385,190.4551006249385,190.4551006249385,190.4551006249385,191.47397683293093,200003,105,2023-03-24_13h28.15.864,DMS_et_12-36,2022.2.4,None,
1,PRED,12,1.1955301040240789,2,images/picture_3.png,images/picture_1.png,0,"[-11.733433509789466, -11.733433509789462]",-11.733433509789464,-11.733433509789462,images/picture_2.png,1,"[11.733433509789464, 11.733433509789462]",11.733433509789464,11.733433509789462,images/picture_3.png,2,"[11.733433509789462, -11.733433509789466]",11.733433509789462,-11.733433509789464,0,1,1,1.1955301040240789,2.1955301040240793,0.8044698959759213,3.0,1,1.9455301040240789,0,4.0,3.0,1,2,0,0,0,0,0,8,8,1,,,,,,,191.47397683293093,191.47397683293093,192.4882895000046,193.42178370791953,193.64105754101183,193.64105754101183,193.64105754101183,194.45493633300066,194.45493633300066,194.45493633300066,194.45493633300066,195.47399716591462,200003,105,2023-03-24_13h28.15.864,DMS_et_12-36,2022.2.4,None,
,,,,,,,,,,,,,,,,,,,,,,,,,,,,,,,,,,,0,0,0,0,,,,,,,,,195.47399716591462,207.5109797079349,,,,,,,,,,,,,200003,105,2023-03-24_13h28.15.864,DMS_et_12-36,2022.2.4,None,
13,UNPRED,12,1.1955301040240789,2,images/picture_3.png,images/picture_1.png,0,"[-11.733433509789466, -11.733433509789462]",-11.733433509789464,-11.733433509789462,images/picture_2.png,1,"[11.733433509789462, -11.733433509789466]",11.733433509789462,-11.733433509789464,images/picture_3.png,2,"[11.733433509789464, 11.733433509789462]",11.733433509789464,11.733433509789462,0,1,1,1.1955301040240789,2.1955301040240793,0.8044698959759213,3.0,1,1.9455301040240789,0,4.0,3.0,1,2,1,0,1,0,0,0,0,4,,,,,,,207.5109797079349,207.5109797079349,208.52181687497068,209.45508649991825,209.68848733301274,209.68848733301274,209.68848733301274,210.50759325001854,210.50759325001854,210.50759325001854,210.50759325001854,211.54031674994621,200003,105,2023-03-24_13h28.15.864,DMS_et_12-36,2022.2.4,None,
9,UNPRED,12,1.1955301040240789,2,images/picture_3.png,images/picture_1.png,0,"[11.733433509789462, -11.733433509789466]",11.733433509789462,-11.733433509789464,images/picture_2.png,1,"[-11.733433509789466, -11.733433509789462]",-11.733433509789464,-11.733433509789462,images/picture_3.png,2,"[-11.733433509789462, 11.733433509789464]",-11.733433509789462,11.733433509789464,0,1,1,1.1955301040240789,2.1955301040240793,0.8044698959759213,3.0,1,1.9455301040240789,0,4.0,3.0,1,2,1,0,1,0,0,1,1,0,,,,,,,211.54031674994621,211.54031674994621,212.55500816600397,213.48853024991695,213.70770799997263,213.70770799997263,213.70770799997263,214.52146958291996,214.52146958291996,214.52146958291996,214.52146958291996,215.54075787495822,200003,105,2023-03-24_13h28.15.864,DMS_et_12-36,2022.2.4,None,
17,UNPRED,12,1.1955301040240789,2,images/picture_3.png,images/picture_1.png,0,"[-11.733433509789466, -11.733433509789462]",-11.733433509789464,-11.733433509789462,images/picture_2.png,1,"[11.733433509789464, 11.733433509789462]",11.733433509789464,11.733433509789462,images/picture_3.png,2,"[-11.733433509789462, 11.733433509789464]",-11.733433509789462,11.733433509789464,0,1,1,1.1955301040240789,2.1955301040240793,0.8044698959759213,3.0,1,1.9455301040240789,0,4.0,3.0,1,2,1,0,1,0,0,2,2,8,,,,,,,215.54075787495822,215.54075787495822,216.5550657499116,217.48848387494218,217.70765050000045,217.70765050000045,217.70765050000045,218.5218031660188,218.5218031660188,218.5218031660188,218.5218031660188,219.52146904100664,200003,105,2023-03-24_13h28.15.864,DMS_et_12-36,2022.2.4,None,
15,UNPRED,12,1.1955301040240789,1,images/picture_2.png,images/picture_1.png,0,"[-11.733433509789466, -11.733433509789462]",-11.733433509789464,-11.733433509789462,images/picture_2.png,1,"[11.733433509789464, 11.733433509789462]",11.733433509789464,11.733433509789462,images/picture_3.png,2,"[-11.733433509789462, 11.733433509789464]",-11.733433509789462,11.733433509789464,0,1,1,1.1955301040240789,2.1955301040240793,0.8044698959759213,3.0,1,1.9455301040240789,0,4.0,3.0,1,2,1,0,1,0,0,3,3,6,,,,,,,219.52146904100664,219.52146904100664,220.52171374997124,221.4745259579504,221.70764279097784,221.70764279097784,221.70764279097784,222.52176099992357,222.52176099992357,222.52176099992357,222.52176099992357,223.5211927909404,200003,105,2023-03-24_13h28.15.864,DMS_et_12-36,2022.2.4,None,
10,UNPRED,12,1.1955301040240789,0,images/picture_1.png,images/picture_1.png,0,"[11.733433509789462, -11.733433509789466]",11.733433509789462,-11.733433509789464,images/picture_2.png,1,"[11.733433509789464, 11.733433509789462]",11.733433509789464,11.733433509789462,images/picture_3.png,2,"[-11.733433509789466, -11.733433509789462]",-11.733433509789464,-11.733433509789462,0,1,1,1.1955301040240789,2.1955301040240793,0.8044698959759213,3.0,1,1.9455301040240789,0,4.0,3.0,1,2,1,0,1,0,0,4,4,1,,,,,,,223.5211927909404,223.5211927909404,224.5214924159227,225.4735862079542,225.7074837909313,225.7074837909313,225.7074837909313,226.52182116592303,226.52182116592303,226.52182116592303,226.52182116592303,227.52123099996243,200003,105,2023-03-24_13h28.15.864,DMS_et_12-36,2022.2.4,None,
12,UNPRED,12,1.1955301040240789,1,images/picture_2.png,images/picture_1.png,0,"[11.733433509789464, 11.733433509789462]",11.733433509789464,11.733433509789462,images/picture_2.png,1,"[-11.733433509789466, -11.733433509789462]",-11.733433509789464,-11.733433509789462,images/picture_3.png,2,"[11.733433509789462, -11.733433509789466]",11.733433509789462,-11.733433509789464,0,1,1,1.1955301040240789,2.1955301040240793,0.8044698959759213,3.0,1,1.9455301040240789,0,4.0,3.0,1,2,1,0,1,0,0,5,5,3,,,,,,,227.52123099996243,227.52123099996243,228.52192024991382,229.47443858301267,229.70798087492585,229.70798087492585,229.70798087492585,230.52176287490875,230.52176287490875,230.52176287490875,230.52176287490875,231.52123491594102,200003,105,2023-03-24_13h28.15.864,DMS_et_12-36,2022.2.4,None,
14,UNPRED,12,1.1955301040240789,1,images/picture_2.png,images/picture_1.png,0,"[11.733433509789462, -11.733433509789466]",11.733433509789462,-11.733433509789464,images/picture_2.png,1,"[11.733433509789464, 11.733433509789462]",11.733433509789464,11.733433509789462,images/picture_3.png,2,"[-11.733433509789462, 11.733433509789464]",-11.733433509789462,11.733433509789464,0,1,1,1.1955301040240789,2.1955301040240793,0.8044698959759213,3.0,1,1.9455301040240789,0,4.0,3.0,1,2,1,0,1,0,0,6,6,5,,,,,,,231.52123491594102,231.52123491594102,232.52177949994802,233.47433379094582,233.70771666592918,233.70771666592918,233.70771666592918,234.52187658299226,234.52187658299226,234.52187658299226,234.52187658299226,235.5216846249532,200003,105,2023-03-24_13h28.15.864,DMS_et_12-36,2022.2.4,None,
16,UNPRED,12,1.1955301040240789,0,images/picture_1.png,images/picture_1.png,0,"[-11.733433509789462, 11.733433509789464]",-11.733433509789462,11.733433509789464,images/picture_2.png,1,"[11.733433509789464, 11.733433509789462]",11.733433509789464,11.733433509789462,images/picture_3.png,2,"[-11.733433509789466, -11.733433509789462]",-11.733433509789464,-11.733433509789462,0,1,1,1.1955301040240789,2.1955301040240793,0.8044698959759213,3.0,1,1.9455301040240789,0,4.0,3.0,1,2,1,0,1,0,0,7,7,7,,,,,,,235.5216846249532,235.5216846249532,236.52185141597874,237.4744556659134,237.70792366599198,237.70792366599198,237.70792366599198,238.52175808290485,238.52175808290485,238.52175808290485,238.52175808290485,239.54058308294043,200003,105,2023-03-24_13h28.15.864,DMS_et_12-36,2022.2.4,None,
11,UNPRED,12,1.1955301040240789,2,images/picture_3.png,images/picture_1.png,0,"[-11.733433509789462, 11.733433509789464]",-11.733433509789462,11.733433509789464,images/picture_2.png,1,"[-11.733433509789466, -11.733433509789462]",-11.733433509789464,-11.733433509789462,images/picture_3.png,2,"[11.733433509789464, 11.733433509789462]",11.733433509789464,11.733433509789462,0,1,1,1.1955301040240789,2.1955301040240793,0.8044698959759213,3.0,1,1.9455301040240789,0,4.0,3.0,1,2,1,0,1,0,0,8,8,2,,,,,,,239.54058308294043,239.54058308294043,240.55501337500755,241.48846620798577,241.70785004098434,241.70785004098434,241.70785004098434,242.52198954101186,242.52198954101186,242.52198954101186,242.52198954101186,243.5532546659233,200003,105,2023-03-24_13h28.15.864,DMS_et_12-36,2022.2.4,None,
,,,,,,,,,,,,,,,,,,,,,,,,,,,,,,,,,,,1,0,1,0,,,,,,,,,243.5532546659233,255.5737996660173,,,,,,,,,,,,,200003,105,2023-03-24_13h28.15.864,DMS_et_12-36,2022.2.4,None,
22,PRED,12,1.1955301040240789,0,images/picture_1.png,images/picture_1.png,0,"[11.733433509789462, -11.733433509789466]",11.733433509789462,-11.733433509789464,images/picture_2.png,1,"[-11.733433509789462, 11.733433509789464]",-11.733433509789462,11.733433509789464,images/picture_3.png,2,"[-11.733433509789466, -11.733433509789462]",-11.733433509789464,-11.733433509789462,0,1,1,1.1955301040240789,2.1955301040240793,0.8044698959759213,3.0,1,1.9455301040240789,0,4.0,3.0,1,2,2,0,2,0,0,0,0,4,,,,,,,255.5737996660173,255.5737996660173,256.5885675000027,257.5217867079191,257.75530424993485,257.75530424993485,257.75530424993485,258.5744664159138,258.5744664159138,258.5744664159138,258.55506279098336,259.55488137493376,200003,105,2023-03-24_13h28.15.864,DMS_et_12-36,2022.2.4,None,
26,PRED,12,1.1955301040240789,0,images/picture_1.png,images/picture_1.png,0,"[-11.733433509789462, 11.733433509789464]",-11.733433509789462,11.733433509789464,images/picture_2.png,1,"[11.733433509789464, 11.733433509789462]",11.733433509789464,11.733433509789462,images/picture_3.png,2,"[-11.733433509789466, -11.733433509789462]",-11.733433509789464,-11.733433509789462,0,1,1,1.1955301040240789,2.1955301040240793,0.8044698959759213,3.0,1,1.9455301040240789,0,4.0,3.0,1,2,2,0,2,0,0,1,1,8,,,,,,,259.55488137493376,259.55488137493376,260.55502062500454,261.50757949997205,261.7409306250047,261.7409306250047,261.7409306250047,262.5552087079268,262.5552087079268,262.5552087079268,262.5552087079268,263.5547569579212,200003,105,2023-03-24_13h28.15.864,DMS_et_12-36,2022.2.4,None,
20,PRED,12,1.1955301040240789,0,images/picture_1.png,images/picture_1.png,0,"[11.733433509789462, -11.733433509789466]",11.733433509789462,-11.733433509789464,images/picture_2.png,1,"[-11.733433509789462, 11.733433509789464]",-11.733433509789462,11.733433509789464,images/picture_3.png,2,"[-11.733433509789466, -11.733433509789462]",-11.733433509789464,-11.733433509789462,0,1,1,1.1955301040240789,2.1955301040240793,0.8044698959759213,3.0,1,1.9455301040240789,0,4.0,3.0,1,2,2,0,2,0,0,2,2,2,,,,,,,263.5547569579212,263.5547569579212,264.55522695800755,265.50709874997847,265.7402623749804,265.7402623749804,265.7402623749804,266.5548528749496,266.5548528749496,266.5548528749496,266.5548528749496,267.55484574998263,200003,105,2023-03-24_13h28.15.864,DMS_et_12-36,2022.2.4,None,
25,PRED,12,1.1955301040240789,0,images/picture_1.png,images/picture_1.png,0,"[-11.733433509789466, -11.733433509789462]",-11.733433509789464,-11.733433509789462,images/picture_2.png,1,"[11.733433509789464, 11.733433509789462]",11.733433509789464,11.733433509789462,images/picture_3.png,2,"[11.733433509789462, -11.733433509789466]",11.733433509789462,-11.733433509789464,0,1,1,1.1955301040240789,2.1955301040240793,0.8044698959759213,3.0,1,1.9455301040240789,0,4.0,3.0,1,2,2,0,2,0,0,3,3,7,,,,,,,267.55484574998263,267.55484574998263,268.55521583301015,269.5079160409514,269.74104345799424,269.74104345799424,269.74104345799424,270.55521466594655,270.55521466594655,270.55521466594655,270.55521466594655,271.5548604159849,200003,105,2023-03-24_13h28.15.864,DMS_et_12-36,2022.2.4,None,
23,PRED,12,1.1955301040240789,0,images/picture_1.png,images/picture_1.png,0,"[11.733433509789464, 11.733433509789462]",11.733433509789464,11.733433509789462,images/picture_2.png,1,"[-11.733433509789466, -11.733433509789462]",-11.733433509789464,-11.733433509789462,images/picture_3.png,2,"[-11.733433509789462, 11.733433509789464]",-11.733433509789462,11.733433509789464,0,1,1,1.1955301040240789,2.1955301040240793,0.8044698959759213,3.0,1,1.9455301040240789,0,4.0,3.0,1,2,2,0,2,0,0,4,4,5,,,,,,,271.5548604159849,271.5548604159849,272.55522433295846,273.5079342079116,273.7410598329734,273.7410598329734,273.7410598329734,274.5552548749838,274.5552548749838,274.5552548749838,274.5552548749838,275.5547371659195,200003,105,2023-03-24_13h28.15.864,DMS_et_12-36,2022.2.4,None,
21,PRED,12,1.1955301040240789,0,images/picture_1.png,images/picture_1.png,0,"[11.733433509789464, 11.733433509789462]",11.733433509789464,11.733433509789462,images/picture_2.png,1,"[-11.733433509789466, -11.733433509789462]",-11.733433509789464,-11.733433509789462,images/picture_3.png,2,"[-11.733433509789462, 11.733433509789464]",-11.733433509789462,11.733433509789464,0,1,1,1.1955301040240789,2.1955301040240793,0.8044698959759213,3.0,1,1.9455301040240789,0,4.0,3.0,1,2,2,0,2,0,0,5,5,3,,,,,,,275.5547371659195,275.5547371659195,276.5549601659877,277.50765087490436,277.7411848329939,277.7411848329939,277.7411848329939,278.5552103749942,278.5552103749942,278.5552103749942,278.5552103749942,279.5548178749159,200003,105,2023-03-24_13h28.15.864,DMS_et_12-36,2022.2.4,None,
18,PRED,12,1.1955301040240789,0,images/picture_1.png,images/picture_1.png,0,"[-11.733433509789462, 11.733433509789464]",-11.733433509789462,11.733433509789464,images/picture_2.png,1,"[11.733433509789462, -11.733433509789466]",11.733433509789462,-11.733433509789464,images/picture_3.png,2,"[-11.733433509789466, -11.733433509789462]",-11.733433509789464,-11.733433509789462,0,1,1,1.1955301040240789,2.1955301040240793,0.8044698959759213,3.0,1,1.9455301040240789,0,4.0,3.0,1,2,2,0,2,0,0,6,6,0,,,,,,,279.5548178749159,279.5548178749159,280.5553599159466,281.5075879159849,281.74117533292156,281.74117533292156,281.74117533292156,282.55525291594677,282.55525291594677,282.55525291594677,282.55525291594677,283.5548155409051,200003,105,2023-03-24_13h28.15.864,DMS_et_12-36,2022.2.4,None,
19,PRED,12,1.1955301040240789,0,images/picture_1.png,images/picture_1.png,0,"[-11.733433509789462, 11.733433509789464]",-11.733433509789462,11.733433509789464,images/picture_2.png,1,"[-11.733433509789466, -11.733433509789462]",-11.733433509789464,-11.733433509789462,images/picture_3.png,2,"[11.733433509789462, -11.733433509789466]",11.733433509789462,-11.733433509789464,0,1,1,1.1955301040240789,2.1955301040240793,0.8044698959759213,3.0,1,1.9455301040240789,0,4.0,3.0,1,2,2,0,2,0,0,7,7,1,,,,,,,283.5548155409051,283.5548155409051,284.5552307079779,285.5079486659961,285.7410880830139,285.7410880830139,285.7410880830139,286.55496316601057,286.55496316601057,286.55496316601057,286.55496316601057,287.5549095829483,200003,105,2023-03-24_13h28.15.864,DMS_et_12-36,2022.2.4,None,
24,PRED,12,1.1955301040240789,0,images/picture_1.png,images/picture_1.png,0,"[11.733433509789462, -11.733433509789466]",11.733433509789462,-11.733433509789464,images/picture_2.png,1,"[11.733433509789464, 11.733433509789462]",11.733433509789464,11.733433509789462,images/picture_3.png,2,"[-11.733433509789466, -11.733433509789462]",-11.733433509789464,-11.733433509789462,0,1,1,1.1955301040240789,2.1955301040240793,0.8044698959759213,3.0,1,1.9455301040240789,0,4.0,3.0,1,2,2,0,2,0,0,8,8,6,,,,,,,287.5549095829483,287.5549095829483,288.5552161249798,289.50784137495793,289.74113970797043,289.74113970797043,289.74113970797043,290.555261624977,290.555261624977,290.555261624977,290.555261624977,291.5962322909618,200003,105,2023-03-24_13h28.15.864,DMS_et_12-36,2022.2.4,None,
,,,,,,,,,,,,,,,,,,,,,,,,,,,,,,,,,,,2,0,2,0,,,,,,,,,291.5962322909618,303.6201893329853,,,,,,,,,,,,,200003,105,2023-03-24_13h28.15.864,DMS_et_12-36,2022.2.4,None,
32,UNPRED,12,1.1955301040240789,1,images/picture_2.png,images/picture_1.png,0,"[-11.733433509789466, -11.733433509789462]",-11.733433509789464,-11.733433509789462,images/picture_2.png,1,"[11.733433509789464, 11.733433509789462]",11.733433509789464,11.733433509789462,images/picture_3.png,2,"[-11.733433509789462, 11.733433509789464]",-11.733433509789462,11.733433509789464,0,1,1,1.1955301040240789,2.1955301040240793,0.8044698959759213,3.0,1,1.9455301040240789,0,4.0,3.0,1,2,3,0,3,0,0,0,0,5,,,,,,,303.6201893329853,303.6201893329853,304.6217942079529,305.57432341598906,305.80788845801726,305.80788845801726,305.80788845801726,306.6215069160098,306.6215069160098,306.6215069160098,306.6215069160098,307.6410123750102,200003,105,2023-03-24_13h28.15.864,DMS_et_12-36,2022.2.4,None,
27,UNPRED,12,1.1955301040240789,2,images/picture_3.png,images/picture_1.png,0,"[11.733433509789464, 11.733433509789462]",11.733433509789464,11.733433509789462,images/picture_2.png,1,"[11.733433509789462, -11.733433509789466]",11.733433509789462,-11.733433509789464,images/picture_3.png,2,"[-11.733433509789462, 11.733433509789464]",-11.733433509789462,11.733433509789464,0,1,1,1.1955301040240789,2.1955301040240793,0.8044698959759213,3.0,1,1.9455301040240789,0,4.0,3.0,1,2,3,0,3,0,0,1,1,0,,,,,,,307.6410123750102,307.6410123750102,308.65534812491387,309.5885303330142,309.80782341596205,309.80782341596205,309.80782341596205,310.6218005409464,310.6218005409464,310.6218005409464,310.6218005409464,311.640572290984,200003,105,2023-03-24_13h28.15.864,DMS_et_12-36,2022.2.4,None,
34,UNPRED,12,1.1955301040240789,2,images/picture_3.png,images/picture_1.png,0,"[-11.733433509789462, 11.733433509789464]",-11.733433509789462,11.733433509789464,images/picture_2.png,1,"[11.733433509789462, -11.733433509789466]",11.733433509789462,-11.733433509789464,images/picture_3.png,2,"[-11.733433509789466, -11.733433509789462]",-11.733433509789464,-11.733433509789462,0,1,1,1.1955301040240789,2.1955301040240793,0.8044698959759213,3.0,1,1.9455301040240789,0,4.0,3.0,1,2,3,0,3,0,0,2,2,7,,,,,,,311.640572290984,311.640572290984,312.65528974996414,313.5885610829573,313.807706457912,313.807706457912,313.807706457912,314.62196066591423,314.62196066591423,314.62196066591423,314.62196066591423,315.6209704159992,200003,105,2023-03-24_13h28.15.864,DMS_et_12-36,2022.2.4,None,
33,UNPRED,12,1.1955301040240789,0,images/picture_1.png,images/picture_1.png,0,"[-11.733433509789462, 11.733433509789464]",-11.733433509789462,11.733433509789464,images/picture_2.png,1,"[11.733433509789464, 11.733433509789462]",11.733433509789464,11.733433509789462,images/picture_3.png,2,"[11.733433509789462, -11.733433509789466]",11.733433509789462,-11.733433509789464,0,1,1,1.1955301040240789,2.1955301040240793,0.8044698959759213,3.0,1,1.9455301040240789,0,4.0,3.0,1,2,3,0,3,0,0,3,3,6,,,,,,,315.6209704159992,315.6209704159992,316.6217685409356,317.5740438749781,317.8070298329694,317.8070298329694,317.8070298329694,318.62206612492446,318.62206612492446,318.62206612492446,318.62206612492446,319.6213974999264,200003,105,2023-03-24_13h28.15.864,DMS_et_12-36,2022.2.4,None,
35,UNPRED,12,1.1955301040240789,0,images/picture_1.png,images/picture_1.png,0,"[-11.733433509789462, 11.733433509789464]",-11.733433509789462,11.733433509789464,images/picture_2.png,1,"[11.733433509789464, 11.733433509789462]",11.733433509789464,11.733433509789462,images/picture_3.png,2,"[11.733433509789462, -11.733433509789466]",11.733433509789462,-11.733433509789464,0,1,1,1.1955301040240789,2.1955301040240793,0.8044698959759213,3.0,1,1.9455301040240789,0,4.0,3.0,1,2,3,0,3,0,0,4,4,8,,,,,,,319.6213974999264,319.6213974999264,320.62202499993145,321.5748284580186,321.80793024995364,321.80793024995364,321.80793024995364,322.62184770801105,322.62184770801105,322.62184770801105,322.62184770801105,323.62149262498133,200003,105,2023-03-24_13h28.15.864,DMS_et_12-36,2022.2.4,None,
30,UNPRED,12,1.1955301040240789,0,images/picture_1.png,images/picture_1.png,0,"[-11.733433509789466, -11.733433509789462]",-11.733433509789464,-11.733433509789462,images/picture_2.png,1,"[-11.733433509789462, 11.733433509789464]",-11.733433509789462,11.733433509789464,images/picture_3.png,2,"[11.733433509789464, 11.733433509789462]",11.733433509789464,11.733433509789462,0,1,1,1.1955301040240789,2.1955301040240793,0.8044698959759213,3.0,1,1.9455301040240789,0,4.0,3.0,1,2,3,0,3,0,0,5,5,3,,,,,,,323.62149262498133,323.62149262498133,324.62183487496804,325.57440129097085,325.8076648749411,325.8076648749411,325.8076648749411,326.6219963330077,326.6219963330077,326.6219963330077,326.6219963330077,327.62158466596156,200003,105,2023-03-24_13h28.15.864,DMS_et_12-36,2022.2.4,None,
31,UNPRED,12,1.1955301040240789,1,images/picture_2.png,images/picture_1.png,0,"[11.733433509789464, 11.733433509789462]",11.733433509789464,11.733433509789462,images/picture_2.png,1,"[11.733433509789462, -11.733433509789466]",11.733433509789462,-11.733433509789464,images/picture_3.png,2,"[-11.733433509789466, -11.733433509789462]",-11.733433509789464,-11.733433509789462,0,1,1,1.1955301040240789,2.1955301040240793,0.8044698959759213,3.0,1,1.9455301040240789,0,4.0,3.0,1,2,3,0,3,0,0,6,6,4,,,,,,,327.62158466596156,327.62158466596156,328.62203154095914,329.5746906659333,329.8078669999959,329.8078669999959,329.8078669999959,330.6218934999779,330.6218934999779,330.6218934999779,330.6218934999779,331.6405324159423,200003,105,2023-03-24_13h28.15.864,DMS_et_12-36,2022.2.4,None,
28,UNPRED,12,1.1955301040240789,2,images/picture_3.png,images/picture_1.png,0,"[11.733433509789464, 11.733433509789462]",11.733433509789464,11.733433509789462,images/picture_2.png,1,"[-11.733433509789462, 11.733433509789464]",-11.733433509789462,11.733433509789464,images/picture_3.png,2,"[11.733433509789462, -11.733433509789466]",11.733433509789462,-11.733433509789464,0,1,1,1.1955301040240789,2.1955301040240793,0.8044698959759213,3.0,1,1.9455301040240789,0,4.0,3.0,1,2,3,0,3,0,0,7,7,1,,,,,,,331.6405324159423,331.6405324159423,332.65525587496813,333.5885526249185,333.8079385829624,333.8079385829624,333.8079385829624,334.62196704093367,334.62196704093367,334.62196704093367,334.62196704093367,335.6213980829343,200003,105,2023-03-24_13h28.15.864,DMS_et_12-36,2022.2.4,None,
29,UNPRED,12,1.1955301040240789,1,images/picture_2.png,images/picture_1.png,0,"[-11.733433509789466, -11.733433509789462]",-11.733433509789464,-11.733433509789462,images/picture_2.png,1,"[-11.733433509789462, 11.733433509789464]",-11.733433509789462,11.733433509789464,images/picture_3.png,2,"[11.733433509789462, -11.733433509789466]",11.733433509789462,-11.733433509789464,0,1,1,1.1955301040240789,2.1955301040240793,0.8044698959759213,3.0,1,1.9455301040240789,0,4.0,3.0,1,2,3,0,3,0,0,8,8,2,,,,,,,335.6213980829343,335.6213980829343,336.62192129099276,337.57372358301654,337.80728449998423,337.80728449998423,337.80728449998423,338.62203320791014,338.62203320791014,338.62203320791014,338.62203320791014,339.67193974996917,200003,105,2023-03-24_13h28.15.864,DMS_et_12-36,2022.2.4,None,
,,,,,,,,,,,,,,,,,,,,,,,,,,,,,,,,,,,3,0,3,0,,,,,,,,,339.67193974996917,351.6903483750066,,,,,,,,,,,,,200003,105,2023-03-24_13h28.15.864,DMS_et_12-36,2022.2.4,None,
38,PRED,12,1.1955301040240789,0,images/picture_1.png,images/picture_1.png,0,"[11.733433509789464, 11.733433509789462]",11.733433509789464,11.733433509789462,images/picture_2.png,1,"[11.733433509789462, -11.733433509789466]",11.733433509789462,-11.733433509789464,images/picture_3.png,2,"[-11.733433509789462, 11.733433509789464]",-11.733433509789462,11.733433509789464,0,1,1,1.1955301040240789,2.1955301040240793,0.8044698959759213,3.0,1,1.9455301040240789,0,4.0,3.0,1,2,4,0,4,0,0,0,0,2,,,,,,,351.6903483750066,351.6903483750066,352.68849849991966,353.6411424159305,353.8883434579475,353.8883434579475,353.8883434579475,354.7075277499389,354.7075277499389,354.7075277499389,354.68855941598304,355.68834412493743,200003,105,2023-03-24_13h28.15.864,DMS_et_12-36,2022.2.4,None,
40,PRED,12,1.1955301040240789,0,images/picture_1.png,images/picture_1.png,0,"[11.733433509789464, 11.733433509789462]",11.733433509789464,11.733433509789462,images/picture_2.png,1,"[-11.733433509789466, -11.733433509789462]",-11.733433509789464,-11.733433509789462,images/picture_3.png,2,"[11.733433509789462, -11.733433509789466]",11.733433509789462,-11.733433509789464,0,1,1,1.1955301040240789,2.1955301040240793,0.8044698959759213,3.0,1,1.9455301040240789,0,4.0,3.0,1,2,4,0,4,0,0,1,1,4,,,,,,,355.68834412493743,355.68834412493743,356.6887372499332,357.64123829093296,357.8742026659893,357.8742026659893,357.8742026659893,358.68827762501314,358.68827762501314,358.68827762501314,358.68827762501314,359.6880606249906,200003,105,2023-03-24_13h28.15.864,DMS_et_12-36,2022.2.4,None,
41,PRED,12,1.1955301040240789,0,images/picture_1.png,images/picture_1.png,0,"[11.733433509789462, -11.733433509789466]",11.733433509789462,-11.733433509789464,images/picture_2.png,1,"[-11.733433509789462, 11.733433509789464]",-11.733433509789462,11.733433509789464,images/picture_3.png,2,"[-11.733433509789466, -11.733433509789462]",-11.733433509789464,-11.733433509789462,0,1,1,1.1955301040240789,2.1955301040240793,0.8044698959759213,3.0,1,1.9455301040240789,0,4.0,3.0,1,2,4,0,4,0,0,2,2,5,,,,,,,359.6880606249906,359.6880606249906,360.68872699991334,361.64127720799297,361.87474012491293,361.87474012491293,361.87474012491293,362.6886983329896,362.6886983329896,362.6886983329896,362.6886983329896,363.6880409999285,200003,105,2023-03-24_13h28.15.864,DMS_et_12-36,2022.2.4,None,
43,PRED,12,1.1955301040240789,0,images/picture_1.png,images/picture_1.png,0,"[11.733433509789464, 11.733433509789462]",11.733433509789464,11.733433509789462,images/picture_2.png,1,"[-11.733433509789462, 11.733433509789464]",-11.733433509789462,11.733433509789464,images/picture_3.png,2,"[-11.733433509789466, -11.733433509789462]",-11.733433509789464,-11.733433509789462,0,1,1,1.1955301040240789,2.1955301040240793,0.8044698959759213,3.0,1,1.9455301040240789,0,4.0,3.0,1,2,4,0,4,0,0,3,3,7,,,,,,,363.6880409999285,363.6880409999285,364.6885445829248,365.641284290934,365.8745139579987,365.8745139579987,365.8745139579987,366.6885431249393,366.6885431249393,366.6885431249393,366.6885431249393,367.688344999915,200003,105,2023-03-24_13h28.15.864,DMS_et_12-36,2022.2.4,None,
37,PRED,12,1.1955301040240789,0,images/picture_1.png,images/picture_1.png,0,"[11.733433509789462, -11.733433509789466]",11.733433509789462,-11.733433509789464,images/picture_2.png,1,"[11.733433509789464, 11.733433509789462]",11.733433509789464,11.733433509789462,images/picture_3.png,2,"[-11.733433509789466, -11.733433509789462]",-11.733433509789464,-11.733433509789462,0,1,1,1.1955301040240789,2.1955301040240793,0.8044698959759213,3.0,1,1.9455301040240789,0,4.0,3.0,1,2,4,0,4,0,0,4,4,1,,,,,,,367.688344999915,367.688344999915,368.6882855409058,369.6412104999181,369.8746859579114,369.8746859579114,369.8746859579114,370.6887365409639,370.6887365409639,370.6887365409639,370.6887365409639,371.68801479099784,200003,105,2023-03-24_13h28.15.864,DMS_et_12-36,2022.2.4,None,
39,PRED,12,1.1955301040240789,0,images/picture_1.png,images/picture_1.png,0,"[-11.733433509789462, 11.733433509789464]",-11.733433509789462,11.733433509789464,images/picture_2.png,1,"[11.733433509789462, -11.733433509789466]",11.733433509789462,-11.733433509789464,images/picture_3.png,2,"[-11.733433509789466, -11.733433509789462]",-11.733433509789464,-11.733433509789462,0,1,1,1.1955301040240789,2.1955301040240793,0.8044698959759213,3.0,1,1.9455301040240789,0,4.0,3.0,1,2,4,0,4,0,0,5,5,3,,,,,,,371.68801479099784,371.68801479099784,372.68852262501605,373.6411721659824,373.8751985830022,373.8751985830022,373.8751985830022,374.68882662500255,374.68882662500255,374.68882662500255,374.68882662500255,375.6881369159091,200003,105,2023-03-24_13h28.15.864,DMS_et_12-36,2022.2.4,None,
36,PRED,12,1.1955301040240789,0,images/picture_1.png,images/picture_1.png,0,"[-11.733433509789466, -11.733433509789462]",-11.733433509789464,-11.733433509789462,images/picture_2.png,1,"[-11.733433509789462, 11.733433509789464]",-11.733433509789462,11.733433509789464,images/picture_3.png,2,"[11.733433509789462, -11.733433509789466]",11.733433509789462,-11.733433509789464,0,1,1,1.1955301040240789,2.1955301040240793,0.8044698959759213,3.0,1,1.9455301040240789,0,4.0,3.0,1,2,4,0,4,0,0,6,6,0,,,,,,,375.6881369159091,375.6881369159091,376.68871066591237,377.64122691599187,377.8748229999328,377.8748229999328,377.8748229999328,378.68827762501314,378.68827762501314,378.68827762501314,378.68827762501314,379.68809120799415,200003,105,2023-03-24_13h28.15.864,DMS_et_12-36,2022.2.4,None,
42,PRED,12,1.1955301040240789,0,images/picture_1.png,images/picture_1.png,0,"[11.733433509789462, -11.733433509789466]",11.733433509789462,-11.733433509789464,images/picture_2.png,1,"[-11.733433509789462, 11.733433509789464]",-11.733433509789462,11.733433509789464,images/picture_3.png,2,"[11.733433509789464, 11.733433509789462]",11.733433509789464,11.733433509789462,0,1,1,1.1955301040240789,2.1955301040240793,0.8044698959759213,3.0,1,1.9455301040240789,0,4.0,3.0,1,2,4,0,4,0,0,7,7,6,,,,,,,379.68809120799415,379.68809120799415,380.6885772909736,381.6410707909381,381.8745088329306,381.8745088329306,381.8745088329306,382.68878462491557,382.68878462491557,382.68878462491557,382.68878462491557,383.688071582932,200003,105,2023-03-24_13h28.15.864,DMS_et_12-36,2022.2.4,None,
44,PRED,12,1.1955301040240789,0,images/picture_1.png,images/picture_1.png,0,"[11.733433509789462, -11.733433509789466]",11.733433509789462,-11.733433509789464,images/picture_2.png,1,"[11.733433509789464, 11.733433509789462]",11.733433509789464,11.733433509789462,images/picture_3.png,2,"[-11.733433509789466, -11.733433509789462]",-11.733433509789464,-11.733433509789462,0,1,1,1.1955301040240789,2.1955301040240793,0.8044698959759213,3.0,1,1.9455301040240789,0,4.0,3.0,1,2,4,0,4,0,0,8,8,8,,,,,,,383.688071582932,383.688071582932,384.68874066590797,385.64136008301284,385.8746496660169,385.8746496660169,385.8746496660169,386.68857562495396,386.68857562495396,386.68857562495396,386.68857562495396,387.79631262493785,200003,105,2023-03-24_13h28.15.864,DMS_et_12-36,2022.2.4,None,
,,,,,,,,,,,,,,,,,,,,,,,,,,,,,,,,,,,4,0,4,0,,,,,,,,,387.79631262493785,399.81058595795184,,,,,,,,,,,,,200003,105,2023-03-24_13h28.15.864,DMS_et_12-36,2022.2.4,None,
50,UNPRED,12,1.1955301040240789,0,images/picture_1.png,images/picture_1.png,0,"[11.733433509789462, -11.733433509789466]",11.733433509789462,-11.733433509789464,images/picture_2.png,1,"[-11.733433509789462, 11.733433509789464]",-11.733433509789462,11.733433509789464,images/picture_3.png,2,"[-11.733433509789466, -11.733433509789462]",-11.733433509789464,-11.733433509789462,0,1,1,1.1955301040240789,2.1955301040240793,0.8044698959759213,3.0,1,1.9455301040240789,0,4.0,3.0,1,2,5,0,5,0,0,0,0,5,,,,,,,399.81058595795184,399.81058595795184,400.82203187490813,401.7552509579109,402.0079173329286,402.0079173329286,402.0079173329286,402.82195795793086,402.82195795793086,402.82195795793086,402.8080598330125,403.8217505830107,200003,105,2023-03-24_13h28.15.864,DMS_et_12-36,2022.2.4,None,
52,UNPRED,12,1.1955301040240789,0,images/picture_1.png,images/picture_1.png,0,"[-11.733433509789462, 11.733433509789464]",-11.733433509789462,11.733433509789464,images/picture_2.png,1,"[11.733433509789462, -11.733433509789466]",11.733433509789462,-11.733433509789464,images/picture_3.png,2,"[-11.733433509789466, -11.733433509789462]",-11.733433509789464,-11.733433509789462,0,1,1,1.1955301040240789,2.1955301040240793,0.8044698959759213,3.0,1,1.9455301040240789,0,4.0,3.0,1,2,5,0,5,0,0,1,1,7,,,,,,,403.8217505830107,403.8217505830107,404.8220576659078,405.774680832983,406.0082060409477,406.0082060409477,406.0082060409477,406.82202758290805,406.82202758290805,406.82202758290805,406.82202758290805,407.8215982079273,200003,105,2023-03-24_13h28.15.864,DMS_et_12-36,2022.2.4,None,
47,UNPRED,12,1.1955301040240789,0,images/picture_1.png,images/picture_1.png,0,"[-11.733433509789466, -11.733433509789462]",-11.733433509789464,-11.733433509789462,images/picture_2.png,1,"[11.733433509789464, 11.733433509789462]",11.733433509789464,11.733433509789462,images/picture_3.png,2,"[-11.733433509789462, 11.733433509789464]",-11.733433509789462,11.733433509789464,0,1,1,1.1955301040240789,2.1955301040240793,0.8044698959759213,3.0,1,1.9455301040240789,0,4.0,3.0,1,2,5,0,5,0,0,2,2,2,,,,,,,407.8215982079273,407.8215982079273,408.82219462492503,409.77420404099394,410.0073528329376,410.0073528329376,410.0073528329376,410.82202033291105,410.82202033291105,410.82202033291105,410.82202033291105,411.8215675409883,200003,105,2023-03-24_13h28.15.864,DMS_et_12-36,2022.2.4,None,
46,UNPRED,12,1.1955301040240789,0,images/picture_1.png,images/picture_1.png,0,"[-11.733433509789466, -11.733433509789462]",-11.733433509789464,-11.733433509789462,images/picture_2.png,1,"[-11.733433509789462, 11.733433509789464]",-11.733433509789462,11.733433509789464,images/picture_3.png,2,"[11.733433509789464, 11.733433509789462]",11.733433509789464,11.733433509789462,0,1,1,1.1955301040240789,2.1955301040240793,0.8044698959759213,3.0,1,1.9455301040240789,0,4.0,3.0,1,2,5,0,5,0,0,3,3,1,,,,,,,411.8215675409883,411.8215675409883,412.822042124928,413.774573749979,414.00817012495827,414.00817012495827,414.00817012495827,414.82200383301824,414.82200383301824,414.82200383301824,414.82200383301824,415.8406782079255,200003,105,2023-03-24_13h28.15.864,DMS_et_12-36,2022.2.4,None,
51,UNPRED,12,1.1955301040240789,2,images/picture_3.png,images/picture_1.png,0,"[11.733433509789464, 11.733433509789462]",11.733433509789464,11.733433509789462,images/picture_2.png,1,"[11.733433509789462, -11.733433509789466]",11.733433509789462,-11.733433509789464,images/picture_3.png,2,"[-11.733433509789466, -11.733433509789462]",-11.733433509789464,-11.733433509789462,0,1,1,1.1955301040240789,2.1955301040240793,0.8044698959759213,3.0,1,1.9455301040240789,0,4.0,3.0,1,2,5,0,5,0,0,4,4,6,,,,,,,415.8406782079255,415.8406782079255,416.8554818329867,417.78880749992095,418.00787645799574,418.00787645799574,418.00787645799574,418.8220679159276,418.8220679159276,418.8220679159276,418.8220679159276,419.82166845793836,200003,105,2023-03-24_13h28.15.864,DMS_et_12-36,2022.2.4,None,
48,UNPRED,12,1.1955301040240789,1,images/picture_2.png,images/picture_1.png,0,"[-11.733433509789462, 11.733433509789464]",-11.733433509789462,11.733433509789464,images/picture_2.png,1,"[11.733433509789464, 11.733433509789462]",11.733433509789464,11.733433509789462,images/picture_3.png,2,"[11.733433509789462, -11.733433509789466]",11.733433509789462,-11.733433509789464,0,1,1,1.1955301040240789,2.1955301040240793,0.8044698959759213,3.0,1,1.9455301040240789,0,4.0,3.0,1,2,5,0,5,0,0,5,5,3,,,,,,,419.82166845793836,419.82166845793836,420.82186187501065,421.7744379999349,422.0081547909649,422.0081547909649,422.0081547909649,422.8219984580064,422.8219984580064,422.8219984580064,422.8219984580064,423.82129712495953,200003,105,2023-03-24_13h28.15.864,DMS_et_12-36,2022.2.4,None,
53,UNPRED,12,1.1955301040240789,1,images/picture_2.png,images/picture_1.png,0,"[-11.733433509789466, -11.733433509789462]",-11.733433509789464,-11.733433509789462,images/picture_2.png,1,"[11.733433509789462, -11.733433509789466]",11.733433509789462,-11.733433509789464,images/picture_3.png,2,"[11.733433509789464, 11.733433509789462]",11.733433509789464,11.733433509789462,0,1,1,1.1955301040240789,2.1955301040240793,0.8044698959759213,3.0,1,1.9455301040240789,0,4.0,3.0,1,2,5,0,5,0,0,6,6,8,,,,,,,423.82129712495953,423.82129712495953,424.8220462499885,425.77464470791165,426.00811716599856,426.00811716599856,426.00811716599856,426.82205708301626,426.82205708301626,426.82205708301626,426.82205708301626,427.82139324990567,200003,105,2023-03-24_13h28.15.864,DMS_et_12-36,2022.2.4,None,
49,UNPRED,12,1.1955301040240789,1,images/picture_2.png,images/picture_1.png,0,"[11.733433509789462, -11.733433509789466]",11.733433509789462,-11.733433509789464,images/picture_2.png,1,"[-11.733433509789466, -11.733433509789462]",-11.733433509789464,-11.733433509789462,images/picture_3.png,2,"[11.733433509789464, 11.733433509789462]",11.733433509789464,11.733433509789462,0,1,1,1.1955301040240789,2.1955301040240793,0.8044698959759213,3.0,1,1.9455301040240789,0,4.0,3.0,1,2,5,0,5,0,0,7,7,4,,,,,,,427.82139324990567,427.82139324990567,428.82204908295535,429.7737337909639,430.00734641600866,430.00734641600866,430.00734641600866,430.82202491594944,430.82202491594944,430.82202491594944,430.82202491594944,431.8217839580029,200003,105,2023-03-24_13h28.15.864,DMS_et_12-36,2022.2.4,None,
45,UNPRED,12,1.1955301040240789,0,images/picture_1.png,images/picture_1.png,0,"[11.733433509789464, 11.733433509789462]",11.733433509789464,11.733433509789462,images/picture_2.png,1,"[11.733433509789462, -11.733433509789466]",11.733433509789462,-11.733433509789464,images/picture_3.png,2,"[-11.733433509789466, -11.733433509789462]",-11.733433509789464,-11.733433509789462,0,1,1,1.1955301040240789,2.1955301040240793,0.8044698959759213,3.0,1,1.9455301040240789,0,4.0,3.0,1,2,5,0,5,0,0,8,8,0,,,,,,,431.8217839580029,431.8217839580029,432.8220443750033,433.7747546659084,434.0082381250104,434.0082381250104,434.0082381250104,434.8220652079908,434.8220652079908,434.8220652079908,434.8220652079908,435.89220170793124,200003,105,2023-03-24_13h28.15.864,DMS_et_12-36,2022.2.4,None,
,,,,,,,,,,,,,,,,,,,,,,,,,,,,,,,,,,,5,0,5,0,,,,,,,,,435.89220170793124,447.90809954097494,,,,,,,,,,,,,200003,105,2023-03-24_13h28.15.864,DMS_et_12-36,2022.2.4,None,
61,PRED,12,1.1955301040240789,0,images/picture_1.png,images/picture_1.png,0,"[-11.733433509789466, -11.733433509789462]",-11.733433509789464,-11.733433509789462,images/picture_2.png,1,"[11.733433509789464, 11.733433509789462]",11.733433509789464,11.733433509789462,images/picture_3.png,2,"[-11.733433509789462, 11.733433509789464]",-11.733433509789462,11.733433509789464,0,1,1,1.1955301040240789,2.1955301040240793,0.8044698959759213,3.0,1,1.9455301040240789,0,4.0,3.0,1,2,6,0,6,0,0,0,0,7,,,,,,,447.90809954097494,447.90809954097494,448.9220025410177,449.85547058295924,450.1073664999567,450.1073664999567,450.1073664999567,450.92173316597473,450.92173316597473,450.92173316597473,450.907306374982,451.92167658300605,200003,105,2023-03-24_13h28.15.864,DMS_et_12-36,2022.2.4,None,
59,PRED,12,1.1955301040240789,0,images/picture_1.png,images/picture_1.png,0,"[11.733433509789462, -11.733433509789466]",11.733433509789462,-11.733433509789464,images/picture_2.png,1,"[-11.733433509789462, 11.733433509789464]",-11.733433509789462,11.733433509789464,images/picture_3.png,2,"[11.733433509789464, 11.733433509789462]",11.733433509789464,11.733433509789462,0,1,1,1.1955301040240789,2.1955301040240793,0.8044698959759213,3.0,1,1.9455301040240789,0,4.0,3.0,1,2,6,0,6,0,0,1,1,5,,,,,,,451.92167658300605,451.92167658300605,452.921872625011,453.87452370801475,454.1081262079533,454.1081262079533,454.1081262079533,454.9220427079126,454.9220427079126,454.9220427079126,454.9220427079126,455.9214401249774,200003,105,2023-03-24_13h28.15.864,DMS_et_12-36,2022.2.4,None,
54,PRED,12,1.1955301040240789,0,images/picture_1.png,images/picture_1.png,0,"[-11.733433509789462, 11.733433509789464]",-11.733433509789462,11.733433509789464,images/picture_2.png,1,"[11.733433509789464, 11.733433509789462]",11.733433509789464,11.733433509789462,images/picture_3.png,2,"[11.733433509789462, -11.733433509789466]",11.733433509789462,-11.733433509789464,0,1,1,1.1955301040240789,2.1955301040240793,0.8044698959759213,3.0,1,1.9455301040240789,0,4.0,3.0,1,2,6,0,6,0,0,2,2,0,,,,,,,455.9214401249774,455.9214401249774,456.92219395795837,457.8747424579924,458.1220179159427,458.1220179159427,458.1220179159427,458.94166379095986,458.94166379095986,458.94166379095986,458.92183333297726,459.9214884999674,200003,105,2023-03-24_13h28.15.864,DMS_et_12-36,2022.2.4,None,
60,PRED,12,1.1955301040240789,0,images/picture_1.png,images/picture_1.png,0,"[11.733433509789464, 11.733433509789462]",11.733433509789464,11.733433509789462,images/picture_2.png,1,"[11.733433509789462, -11.733433509789466]",11.733433509789462,-11.733433509789464,images/picture_3.png,2,"[-11.733433509789462, 11.733433509789464]",-11.733433509789462,11.733433509789464,0,1,1,1.1955301040240789,2.1955301040240793,0.8044698959759213,3.0,1,1.9455301040240789,0,4.0,3.0,1,2,6,0,6,0,0,3,3,6,,,,,,,459.9214884999674,459.9214884999674,460.92181808291934,461.8748009999981,462.1080119999824,462.1080119999824,462.1080119999824,462.92203887493815,462.92203887493815,462.92203887493815,462.92203887493815,463.92147829092573,200003,105,2023-03-24_13h28.15.864,DMS_et_12-36,2022.2.4,None,
57,PRED,12,1.1955301040240789,0,images/picture_1.png,images/picture_1.png,0,"[-11.733433509789462, 11.733433509789464]",-11.733433509789462,11.733433509789464,images/picture_2.png,1,"[-11.733433509789466, -11.733433509789462]",-11.733433509789464,-11.733433509789462,images/picture_3.png,2,"[11.733433509789464, 11.733433509789462]",11.733433509789464,11.733433509789462,0,1,1,1.1955301040240789,2.1955301040240793,0.8044698959759213,3.0,1,1.9455301040240789,0,4.0,3.0,1,2,6,0,6,0,0,4,4,3,,,,,,,463.92147829092573,463.92147829092573,464.92187083291356,465.874726457987,466.1078254999593,466.1078254999593,466.1078254999593,466.9217572499765,466.9217572499765,466.9217572499765,466.9217572499765,467.9211318329908,200003,105,2023-03-24_13h28.15.864,DMS_et_12-36,2022.2.4,None,
56,PRED,12,1.1955301040240789,0,images/picture_1.png,images/picture_1.png,0,"[-11.733433509789462, 11.733433509789464]",-11.733433509789462,11.733433509789464,images/picture_2.png,1,"[-11.733433509789466, -11.733433509789462]",-11.733433509789464,-11.733433509789462,images/picture_3.png,2,"[11.733433509789464, 11.733433509789462]",11.733433509789464,11.733433509789462,0,1,1,1.1955301040240789,2.1955301040240793,0.8044698959759213,3.0,1,1.9455301040240789,0,4.0,3.0,1,2,6,0,6,0,0,5,5,2,,,,,,,467.9211318329908,467.9211318329908,468.92187874997035,469.8743303749943,470.1219421660062,470.1219421660062,470.1219421660062,470.940451500006,470.940451500006,470.940451500006,470.9213769159978,471.9212522499729,200003,105,2023-03-24_13h28.15.864,DMS_et_12-36,2022.2.4,None,
62,PRED,12,1.1955301040240789,0,images/picture_1.png,images/picture_1.png,0,"[11.733433509789462, -11.733433509789466]",11.733433509789462,-11.733433509789464,images/picture_2.png,1,"[11.733433509789464, 11.733433509789462]",11.733433509789464,11.733433509789462,images/picture_3.png,2,"[-11.733433509789466, -11.733433509789462]",-11.733433509789464,-11.733433509789462,0,1,1,1.1955301040240789,2.1955301040240793,0.8044698959759213,3.0,1,1.9455301040240789,0,4.0,3.0,1,2,6,0,6,0,0,6,6,8,,,,,,,471.9212522499729,471.9212522499729,472.921794957947,473.87427845795173,474.10795316600706,474.10795316600706,474.10795316600706,474.92192424996756,474.92192424996756,474.92192424996756,474.92192424996756,475.92126133292913,200003,105,2023-03-24_13h28.15.864,DMS_et_12-36,2022.2.4,None,
55,PRED,12,1.1955301040240789,0,images/picture_1.png,images/picture_1.png,0,"[-11.733433509789462, 11.733433509789464]",-11.733433509789462,11.733433509789464,images/picture_2.png,1,"[11.733433509789462, -11.733433509789466]",11.733433509789462,-11.733433509789464,images/picture_3.png,2,"[11.733433509789464, 11.733433509789462]",11.733433509789464,11.733433509789462,0,1,1,1.1955301040240789,2.1955301040240793,0.8044698959759213,3.0,1,1.9455301040240789,0,4.0,3.0,1,2,6,0,6,0,0,7,7,1,,,,,,,475.92126133292913,475.92126133292913,476.92164124990813,477.87401616596617,478.1082054999424,478.1082054999424,478.1082054999424,478.921805416001,478.921805416001,478.921805416001,478.921805416001,479.92107899999246,200003,105,2023-03-24_13h28.15.864,DMS_et_12-36,2022.2.4,None,
58,PRED,12,1.1955301040240789,0,images/picture_1.png,images/picture_1.png,0,"[11.733433509789462, -11.733433509789466]",11.733433509789462,-11.733433509789464,images/picture_2.png,1,"[-11.733433509789466, -11.733433509789462]",-11.733433509789464,-11.733433509789462,images/picture_3.png,2,"[-11.733433509789462, 11.733433509789464]",-11.733433509789462,11.733433509789464,0,1,1,1.1955301040240789,2.1955301040240793,0.8044698959759213,3.0,1,1.9455301040240789,0,4.0,3.0,1,2,6,0,6,0,0,8,8,4,,,,,,,479.92107899999246,479.92107899999246,480.9215177909937,481.87369737494737,482.1217777079437,482.1217777079437,482.1217777079437,482.94107633293606,482.94107633293606,482.94107633293606,482.9215674579609,483.9996225829236,200003,105,2023-03-24_13h28.15.864,DMS_et_12-36,2022.2.4,None,
,,,,,,,,,,,,,,,,,,,,,,,,,,,,,,,,,,,6,0,6,0,,,,,,,,,483.9996225829236,496.0241613750113,,,,,,,,,,,,,200003,105,2023-03-24_13h28.15.864,DMS_et_12-36,2022.2.4,None,
68,UNPRED,12,1.1955301040240789,1,images/picture_2.png,images/picture_1.png,0,"[-11.733433509789466, -11.733433509789462]",-11.733433509789464,-11.733433509789462,images/picture_2.png,1,"[11.733433509789462, -11.733433509789466]",11.733433509789462,-11.733433509789464,images/picture_3.png,2,"[-11.733433509789462, 11.733433509789464]",-11.733433509789462,11.733433509789464,0,1,1,1.1955301040240789,2.1955301040240793,0.8044698959759213,3.0,1,1.9455301040240789,0,4.0,3.0,1,2,7,0,7,0,0,0,0,5,,,,,,,496.0241613750113,496.0241613750113,497.0218049159739,497.97442533297,498.2217563330196,498.2217563330196,498.2217563330196,499.0411768750055,499.0411768750055,499.0411768750055,499.0218474579742,500.0214210000122,200003,105,2023-03-24_13h28.15.864,DMS_et_12-36,2022.2.4,None,
71,UNPRED,12,1.1955301040240789,0,images/picture_1.png,images/picture_1.png,0,"[-11.733433509789466, -11.733433509789462]",-11.733433509789464,-11.733433509789462,images/picture_2.png,1,"[-11.733433509789462, 11.733433509789464]",-11.733433509789462,11.733433509789464,images/picture_3.png,2,"[11.733433509789464, 11.733433509789462]",11.733433509789464,11.733433509789462,0,1,1,1.1955301040240789,2.1955301040240793,0.8044698959759213,3.0,1,1.9455301040240789,0,4.0,3.0,1,2,7,0,7,0,0,1,1,8,,,,,,,500.0214210000122,500.0214210000122,501.02181900001597,501.9736456659157,502.2070184579352,502.2070184579352,502.2070184579352,503.0218057499733,503.0218057499733,503.0218057499733,503.0218057499733,504.0216503329575,200003,105,2023-03-24_13h28.15.864,DMS_et_12-36,2022.2.4,None,
65,UNPRED,12,1.1955301040240789,0,images/picture_1.png,images/picture_1.png,0,"[11.733433509789464, 11.733433509789462]",11.733433509789464,11.733433509789462,images/picture_2.png,1,"[-11.733433509789466, -11.733433509789462]",-11.733433509789464,-11.733433509789462,images/picture_3.png,2,"[11.733433509789462, -11.733433509789466]",11.733433509789462,-11.733433509789464,0,1,1,1.1955301040240789,2.1955301040240793,0.8044698959759213,3.0,1,1.9455301040240789,0,4.0,3.0,1,2,7,0,7,0,0,2,2,2,,,,,,,504.0216503329575,504.0216503329575,505.02197254099883,505.97472658299375,506.2079087909078,506.2079087909078,506.2079087909078,507.02180887490977,507.02180887490977,507.02180887490977,507.02180887490977,508.0404011659557,200003,105,2023-03-24_13h28.15.864,DMS_et_12-36,2022.2.4,None,
70,UNPRED,12,1.1955301040240789,2,images/picture_3.png,images/picture_1.png,0,"[-11.733433509789462, 11.733433509789464]",-11.733433509789462,11.733433509789464,images/picture_2.png,1,"[-11.733433509789466, -11.733433509789462]",-11.733433509789464,-11.733433509789462,images/picture_3.png,2,"[11.733433509789462, -11.733433509789466]",11.733433509789462,-11.733433509789464,0,1,1,1.1955301040240789,2.1955301040240793,0.8044698959759213,3.0,1,1.9455301040240789,0,4.0,3.0,1,2,7,0,7,0,0,3,3,7,,,,,,,508.0404011659557,508.0404011659557,509.05524362495635,509.9886946249753,510.2076023329282,510.2076023329282,510.2076023329282,511.0217908329796,511.0217908329796,511.0217908329796,511.0217908329796,512.0214187079109,200003,105,2023-03-24_13h28.15.864,DMS_et_12-36,2022.2.4,None,
67,UNPRED,12,1.1955301040240789,1,images/picture_2.png,images/picture_1.png,0,"[11.733433509789462, -11.733433509789466]",11.733433509789462,-11.733433509789464,images/picture_2.png,1,"[-11.733433509789466, -11.733433509789462]",-11.733433509789464,-11.733433509789462,images/picture_3.png,2,"[11.733433509789464, 11.733433509789462]",11.733433509789464,11.733433509789462,0,1,1,1.1955301040240789,2.1955301040240793,0.8044698959759213,3.0,1,1.9455301040240789,0,4.0,3.0,1,2,7,0,7,0,0,4,4,4,,,,,,,512.0214187079109,512.0214187079109,513.0218004159397,513.9743828749051,514.2077678749338,514.2077678749338,514.2077678749338,515.0220297499327,515.0220297499327,515.0220297499327,515.0220297499327,516.0212437909795,200003,105,2023-03-24_13h28.15.864,DMS_et_12-36,2022.2.4,None,
64,UNPRED,12,1.1955301040240789,0,images/picture_1.png,images/picture_1.png,0,"[-11.733433509789462, 11.733433509789464]",-11.733433509789462,11.733433509789464,images/picture_2.png,1,"[11.733433509789464, 11.733433509789462]",11.733433509789464,11.733433509789462,images/picture_3.png,2,"[-11.733433509789466, -11.733433509789462]",-11.733433509789464,-11.733433509789462,0,1,1,1.1955301040240789,2.1955301040240793,0.8044698959759213,3.0,1,1.9455301040240789,0,4.0,3.0,1,2,7,0,7,0,0,5,5,1,,,,,,,516.0212437909795,516.0212437909795,517.0218362909509,517.974476250005,518.2078501249198,518.2078501249198,518.2078501249198,519.0218261659611,519.0218261659611,519.0218261659611,519.0218261659611,520.021249457961,200003,105,2023-03-24_13h28.15.864,DMS_et_12-36,2022.2.4,None,
66,UNPRED,12,1.1955301040240789,0,images/picture_1.png,images/picture_1.png,0,"[-11.733433509789462, 11.733433509789464]",-11.733433509789462,11.733433509789464,images/picture_2.png,1,"[-11.733433509789466, -11.733433509789462]",-11.733433509789464,-11.733433509789462,images/picture_3.png,2,"[11.733433509789464, 11.733433509789462]",11.733433509789464,11.733433509789462,0,1,1,1.1955301040240789,2.1955301040240793,0.8044698959759213,3.0,1,1.9455301040240789,0,4.0,3.0,1,2,7,0,7,0,0,6,6,3,,,,,,,520.021249457961,520.021249457961,521.0219875000184,521.9738768329844,522.2071558329044,522.2071558329044,522.2071558329044,523.021776041016,523.021776041016,523.021776041016,523.021776041016,524.0212405829225,200003,105,2023-03-24_13h28.15.864,DMS_et_12-36,2022.2.4,None,
63,UNPRED,12,1.1955301040240789,0,images/picture_1.png,images/picture_1.png,0,"[-11.733433509789466, -11.733433509789462]",-11.733433509789464,-11.733433509789462,images/picture_2.png,1,"[-11.733433509789462, 11.733433509789464]",-11.733433509789462,11.733433509789464,images/picture_3.png,2,"[11.733433509789464, 11.733433509789462]",11.733433509789464,11.733433509789462,0,1,1,1.1955301040240789,2.1955301040240793,0.8044698959759213,3.0,1,1.9455301040240789,0,4.0,3.0,1,2,7,0,7,0,0,7,7,0,,,,,,,524.0212405829225,524.0212405829225,525.0218000829918,525.9745132909156,526.2079222080065,526.2079222080065,526.2079222080065,527.0219915829366,527.0219915829366,527.0219915829366,527.0219915829366,528.0212620409438,200003,105,2023-03-24_13h28.15.864,DMS_et_12-36,2022.2.4,None,
69,UNPRED,12,1.1955301040240789,0,images/picture_1.png,images/picture_1.png,0,"[-11.733433509789462, 11.733433509789464]",-11.733433509789462,11.733433509789464,images/picture_2.png,1,"[11.733433509789464, 11.733433509789462]",11.733433509789464,11.733433509789462,images/picture_3.png,2,"[11.733433509789462, -11.733433509789466]",11.733433509789462,-11.733433509789464,0,1,1,1.1955301040240789,2.1955301040240793,0.8044698959759213,3.0,1,1.9455301040240789,0,4.0,3.0,1,2,7,0,7,0,0,8,8,6,,,,,,,528.0212620409438,528.0212620409438,529.0218167909188,529.9745585409692,530.2079250829993,530.2079250829993,530.2079250829993,531.0218851249665,531.0218851249665,531.0218851249665,531.0218851249665,532.0899193749065,200003,105,2023-03-24_13h28.15.864,DMS_et_12-36,2022.2.4,None,
,,,,,,,,,,,,,,,,,,,,,,,,,,,,,,,,,,,7,0,7,0,,,,,,,,,532.0899193749065,544.1122499159537,,,,,,,,,,,,,200003,105,2023-03-24_13h28.15.864,DMS_et_12-36,2022.2.4,None,
72,PRED,12,1.1955301040240789,1,images/picture_2.png,images/picture_1.png,0,"[11.733433509789462, -11.733433509789466]",11.733433509789462,-11.733433509789464,images/picture_2.png,1,"[11.733433509789464, 11.733433509789462]",11.733433509789464,11.733433509789462,images/picture_3.png,2,"[-11.733433509789466, -11.733433509789462]",-11.733433509789464,-11.733433509789462,0,1,1,1.1955301040240789,2.1955301040240793,0.8044698959759213,3.0,1,1.9455301040240789,0,4.0,3.0,1,2,8,0,8,0,0,0,0,0,,,,,,,544.1122499159537,544.1122499159537,545.1218817079207,546.0552474579308,546.3077677079709,546.3077677079709,546.3077677079709,547.1218011659803,547.1218011659803,547.1218011659803,547.1077138750115,548.1213230409194,200003,105,2023-03-24_13h28.15.864,DMS_et_12-36,2022.2.4,None,
79,PRED,12,1.1955301040240789,1,images/picture_2.png,images/picture_1.png,0,"[-11.733433509789466, -11.733433509789462]",-11.733433509789464,-11.733433509789462,images/picture_2.png,1,"[-11.733433509789462, 11.733433509789464]",-11.733433509789462,11.733433509789464,images/picture_3.png,2,"[11.733433509789462, -11.733433509789466]",11.733433509789462,-11.733433509789464,0,1,1,1.1955301040240789,2.1955301040240793,0.8044698959759213,3.0,1,1.9455301040240789,0,4.0,3.0,1,2,8,0,8,0,0,1,1,7,,,,,,,548.1213230409194,548.1213230409194,549.121828333009,550.0744473329978,550.3079140830087,550.3079140830087,550.3079140830087,551.1218241659226,551.1218241659226,551.1218241659226,551.1218241659226,552.1212818329223,200003,105,2023-03-24_13h28.15.864,DMS_et_12-36,2022.2.4,None,
80,PRED,12,1.1955301040240789,1,images/picture_2.png,images/picture_1.png,0,"[11.733433509789462, -11.733433509789466]",11.733433509789462,-11.733433509789464,images/picture_2.png,1,"[-11.733433509789466, -11.733433509789462]",-11.733433509789464,-11.733433509789462,images/picture_3.png,2,"[11.733433509789464, 11.733433509789462]",11.733433509789464,11.733433509789462,0,1,1,1.1955301040240789,2.1955301040240793,0.8044698959759213,3.0,1,1.9455301040240789,0,4.0,3.0,1,2,8,0,8,0,0,2,2,8,,,,,,,552.1212818329223,552.1212818329223,553.1216460409341,554.074710582965,554.3076212080196,554.3076212080196,554.3076212080196,555.1217715409584,555.1217715409584,555.1217715409584,555.1217715409584,556.1213326249272,200003,105,2023-03-24_13h28.15.864,DMS_et_12-36,2022.2.4,None,
73,PRED,12,1.1955301040240789,1,images/picture_2.png,images/picture_1.png,0,"[-11.733433509789466, -11.733433509789462]",-11.733433509789464,-11.733433509789462,images/picture_2.png,1,"[11.733433509789464, 11.733433509789462]",11.733433509789464,11.733433509789462,images/picture_3.png,2,"[-11.733433509789462, 11.733433509789464]",-11.733433509789462,11.733433509789464,0,1,1,1.1955301040240789,2.1955301040240793,0.8044698959759213,3.0,1,1.9455301040240789,0,4.0,3.0,1,2,8,0,8,0,0,3,3,1,,,,,,,556.1213326249272,556.1213326249272,557.121994499932,558.074294165941,558.3075733749429,558.3075733749429,558.3075733749429,559.1218339999905,559.1218339999905,559.1218339999905,559.1218339999905,560.1209954159567,200003,105,2023-03-24_13h28.15.864,DMS_et_12-36,2022.2.4,None,
74,PRED,12,1.1955301040240789,1,images/picture_2.png,images/picture_1.png,0,"[-11.733433509789466, -11.733433509789462]",-11.733433509789464,-11.733433509789462,images/picture_2.png,1,"[11.733433509789464, 11.733433509789462]",11.733433509789464,11.733433509789462,images/picture_3.png,2,"[11.733433509789462, -11.733433509789466]",11.733433509789462,-11.733433509789464,0,1,1,1.1955301040240789,2.1955301040240793,0.8044698959759213,3.0,1,1.9455301040240789,0,4.0,3.0,1,2,8,0,8,0,0,4,4,2,,,,,,,560.1209954159567,560.1209954159567,561.1218253750121,562.0742658330128,562.3077644580044,562.3077644580044,562.3077644580044,563.1215405409457,563.1215405409457,563.1215405409457,563.1215405409457,564.1213087079814,200003,105,2023-03-24_13h28.15.864,DMS_et_12-36,2022.2.4,None,
77,PRED,12,1.1955301040240789,1,images/picture_2.png,images/picture_1.png,0,"[11.733433509789462, -11.733433509789466]",11.733433509789462,-11.733433509789464,images/picture_2.png,1,"[11.733433509789464, 11.733433509789462]",11.733433509789464,11.733433509789462,images/picture_3.png,2,"[-11.733433509789462, 11.733433509789464]",-11.733433509789462,11.733433509789464,0,1,1,1.1955301040240789,2.1955301040240793,0.8044698959759213,3.0,1,1.9455301040240789,0,4.0,3.0,1,2,8,0,8,0,0,5,5,5,,,,,,,564.1213087079814,564.1213087079814,565.1217871250119,566.0740917909425,566.3080042079091,566.3080042079091,566.3080042079091,567.121743415948,567.121743415948,567.121743415948,567.121743415948,568.1213377499953,200003,105,2023-03-24_13h28.15.864,DMS_et_12-36,2022.2.4,None,
76,PRED,12,1.1955301040240789,1,images/picture_2.png,images/picture_1.png,0,"[-11.733433509789466, -11.733433509789462]",-11.733433509789464,-11.733433509789462,images/picture_2.png,1,"[11.733433509789464, 11.733433509789462]",11.733433509789464,11.733433509789462,images/picture_3.png,2,"[11.733433509789462, -11.733433509789466]",11.733433509789462,-11.733433509789464,0,1,1,1.1955301040240789,2.1955301040240793,0.8044698959759213,3.0,1,1.9455301040240789,0,4.0,3.0,1,2,8,0,8,0,0,6,6,4,,,,,,,568.1213377499953,568.1213377499953,569.121871707961,570.0743754159193,570.308186499984,570.308186499984,570.308186499984,571.1217976659536,571.1217976659536,571.1217976659536,571.1217976659536,572.1212841660017,200003,105,2023-03-24_13h28.15.864,DMS_et_12-36,2022.2.4,None,
75,PRED,12,1.1955301040240789,1,images/picture_2.png,images/picture_1.png,0,"[-11.733433509789462, 11.733433509789464]",-11.733433509789462,11.733433509789464,images/picture_2.png,1,"[11.733433509789464, 11.733433509789462]",11.733433509789464,11.733433509789462,images/picture_3.png,2,"[11.733433509789462, -11.733433509789466]",11.733433509789462,-11.733433509789464,0,1,1,1.1955301040240789,2.1955301040240793,0.8044698959759213,3.0,1,1.9455301040240789,0,4.0,3.0,1,2,8,0,8,0,0,7,7,3,,,,,,,572.1212841660017,572.1212841660017,573.1216288749129,574.073672749917,574.307492999942,574.307492999942,574.307492999942,575.1217868749518,575.1217868749518,575.1217868749518,575.1217868749518,576.1212373329327,200003,105,2023-03-24_13h28.15.864,DMS_et_12-36,2022.2.4,None,
78,PRED,12,1.1955301040240789,1,images/picture_2.png,images/picture_1.png,0,"[-11.733433509789462, 11.733433509789464]",-11.733433509789462,11.733433509789464,images/picture_2.png,1,"[11.733433509789464, 11.733433509789462]",11.733433509789464,11.733433509789462,images/picture_3.png,2,"[-11.733433509789466, -11.733433509789462]",-11.733433509789464,-11.733433509789462,0,1,1,1.1955301040240789,2.1955301040240793,0.8044698959759213,3.0,1,1.9455301040240789,0,4.0,3.0,1,2,8,0,8,0,0,8,8,6,,,,,,,576.1212373329327,576.1212373329327,577.1217888329411,578.0745467909146,578.3078927079914,578.3078927079914,578.3078927079914,579.1219911249354,579.1219911249354,579.1219911249354,579.1219911249354,580.2189965000143,200003,105,2023-03-24_13h28.15.864,DMS_et_12-36,2022.2.4,None,
,,,,,,,,,,,,,,,,,,,,,,,,,,,,,,,,,,,8,0,8,0,,,,,,,,,580.2189965000143,592.2452515409095,,,,,,,,,,,,,200003,105,2023-03-24_13h28.15.864,DMS_et_12-36,2022.2.4,None,
85,UNPRED,12,1.1955301040240789,0,images/picture_1.png,images/picture_1.png,0,"[-11.733433509789466, -11.733433509789462]",-11.733433509789464,-11.733433509789462,images/picture_2.png,1,"[-11.733433509789462, 11.733433509789464]",-11.733433509789462,11.733433509789464,images/picture_3.png,2,"[11.733433509789462, -11.733433509789466]",11.733433509789462,-11.733433509789464,0,1,1,1.1955301040240789,2.1955301040240793,0.8044698959759213,3.0,1,1.9455301040240789,0,4.0,3.0,1,2,9,0,9,0,0,0,0,4,,,,,,,592.2452515409095,592.2452515409095,593.2550448329421,594.1880622499157,594.4403862910112,594.4403862910112,594.4403862910112,595.2552628749982,595.2552628749982,595.2552628749982,595.2408862909069,596.2750103329308,200003,105,2023-03-24_13h28.15.864,DMS_et_12-36,2022.2.4,None,
88,UNPRED,12,1.1955301040240789,2,images/picture_3.png,images/picture_1.png,0,"[11.733433509789462, -11.733433509789466]",11.733433509789462,-11.733433509789464,images/picture_2.png,1,"[-11.733433509789466, -11.733433509789462]",-11.733433509789464,-11.733433509789462,images/picture_3.png,2,"[11.733433509789464, 11.733433509789462]",11.733433509789464,11.733433509789462,0,1,1,1.1955301040240789,2.1955301040240793,0.8044698959759213,3.0,1,1.9455301040240789,0,4.0,3.0,1,2,9,0,9,0,0,1,1,7,,,,,,,596.2750103329308,596.2750103329308,597.2885228749365,598.2217996659456,598.4412047499791,598.4412047499791,598.4412047499791,599.2553675409872,599.2553675409872,599.2553675409872,599.2553675409872,600.2553089159774,200003,105,2023-03-24_13h28.15.864,DMS_et_12-36,2022.2.4,None,
82,UNPRED,12,1.1955301040240789,1,images/picture_2.png,images/picture_1.png,0,"[-11.733433509789462, 11.733433509789464]",-11.733433509789462,11.733433509789464,images/picture_2.png,1,"[-11.733433509789466, -11.733433509789462]",-11.733433509789464,-11.733433509789462,images/picture_3.png,2,"[11.733433509789462, -11.733433509789466]",11.733433509789462,-11.733433509789464,0,1,1,1.1955301040240789,2.1955301040240793,0.8044698959759213,3.0,1,1.9455301040240789,0,4.0,3.0,1,2,9,0,9,0,0,2,2,1,,,,,,,600.2553089159774,600.2553089159774,601.2552668749122,602.2079582499573,602.4410662499722,602.4410662499722,602.4410662499722,603.2552962079644,603.2552962079644,603.2552962079644,603.2552962079644,604.2546922909096,200003,105,2023-03-24_13h28.15.864,DMS_et_12-36,2022.2.4,None,
84,UNPRED,12,1.1955301040240789,1,images/picture_2.png,images/picture_1.png,0,"[-11.733433509789466, -11.733433509789462]",-11.733433509789464,-11.733433509789462,images/picture_2.png,1,"[-11.733433509789462, 11.733433509789464]",-11.733433509789462,11.733433509789464,images/picture_3.png,2,"[11.733433509789464, 11.733433509789462]",11.733433509789464,11.733433509789462,0,1,1,1.1955301040240789,2.1955301040240793,0.8044698959759213,3.0,1,1.9455301040240789,0,4.0,3.0,1,2,9,0,9,0,0,3,3,3,,,,,,,604.2546922909096,604.2546922909096,605.2552718749503,606.2076678329613,606.441120540956,606.441120540956,606.441120540956,607.2552036659326,607.2552036659326,607.2552036659326,607.2552036659326,608.2742998329923,200003,105,2023-03-24_13h28.15.864,DMS_et_12-36,2022.2.4,None,
89,UNPRED,12,1.1955301040240789,2,images/picture_3.png,images/picture_1.png,0,"[11.733433509789464, 11.733433509789462]",11.733433509789464,11.733433509789462,images/picture_2.png,1,"[-11.733433509789462, 11.733433509789464]",-11.733433509789462,11.733433509789464,images/picture_3.png,2,"[-11.733433509789466, -11.733433509789462]",-11.733433509789464,-11.733433509789462,0,1,1,1.1955301040240789,2.1955301040240793,0.8044698959759213,3.0,1,1.9455301040240789,0,4.0,3.0,1,2,9,0,9,0,0,4,4,8,,,,,,,608.2742998329923,608.2742998329923,609.2884881249629,610.2217904999852,610.441089208005,610.441089208005,610.441089208005,611.2550721250009,611.2550721250009,611.2550721250009,611.2550721250009,612.2563160830177,200003,105,2023-03-24_13h28.15.864,DMS_et_12-36,2022.2.4,None,
81,UNPRED,12,1.1955301040240789,1,images/picture_2.png,images/picture_1.png,0,"[-11.733433509789462, 11.733433509789464]",-11.733433509789462,11.733433509789464,images/picture_2.png,1,"[11.733433509789462, -11.733433509789466]",11.733433509789462,-11.733433509789464,images/picture_3.png,2,"[-11.733433509789466, -11.733433509789462]",-11.733433509789464,-11.733433509789462,0,1,1,1.1955301040240789,2.1955301040240793,0.8044698959759213,3.0,1,1.9455301040240789,0,4.0,3.0,1,2,9,0,9,0,0,5,5,0,,,,,,,612.2563160830177,612.2563160830177,613.2551274580183,614.2069300409639,614.4404922910035,614.4404922910035,614.4404922910035,615.2549878329737,615.2549878329737,615.2549878329737,615.2549878329737,616.254601249937,200003,105,2023-03-24_13h28.15.864,DMS_et_12-36,2022.2.4,None,
86,UNPRED,12,1.1955301040240789,1,images/picture_2.png,images/picture_1.png,0,"[11.733433509789464, 11.733433509789462]",11.733433509789464,11.733433509789462,images/picture_2.png,1,"[-11.733433509789462, 11.733433509789464]",-11.733433509789462,11.733433509789464,images/picture_3.png,2,"[11.733433509789462, -11.733433509789466]",11.733433509789462,-11.733433509789464,0,1,1,1.1955301040240789,2.1955301040240793,0.8044698959759213,3.0,1,1.9455301040240789,0,4.0,3.0,1,2,9,0,9,0,0,6,6,5,,,,,,,616.254601249937,616.254601249937,617.2550861249911,618.2077597909374,618.4412350829225,618.4412350829225,618.4412350829225,619.2551317079924,619.2551317079924,619.2551317079924,619.2551317079924,620.2738634579582,200003,105,2023-03-24_13h28.15.864,DMS_et_12-36,2022.2.4,None,
83,UNPRED,12,1.1955301040240789,2,images/picture_3.png,images/picture_1.png,0,"[-11.733433509789466, -11.733433509789462]",-11.733433509789464,-11.733433509789462,images/picture_2.png,1,"[11.733433509789464, 11.733433509789462]",11.733433509789464,11.733433509789462,images/picture_3.png,2,"[11.733433509789462, -11.733433509789466]",11.733433509789462,-11.733433509789464,0,1,1,1.1955301040240789,2.1955301040240793,0.8044698959759213,3.0,1,1.9455301040240789,0,4.0,3.0,1,2,9,0,9,0,0,7,7,2,,,,,,,620.2738634579582,620.2738634579582,621.2884993749904,622.2219737499254,622.4410960410023,622.4410960410023,622.4410960410023,623.2551499159308,623.2551499159308,623.2551499159308,623.2551499159308,624.2738047079183,200003,105,2023-03-24_13h28.15.864,DMS_et_12-36,2022.2.4,None,
87,UNPRED,12,1.1955301040240789,2,images/picture_3.png,images/picture_1.png,0,"[-11.733433509789462, 11.733433509789464]",-11.733433509789462,11.733433509789464,images/picture_2.png,1,"[11.733433509789462, -11.733433509789466]",11.733433509789462,-11.733433509789464,images/picture_3.png,2,"[11.733433509789464, 11.733433509789462]",11.733433509789464,11.733433509789462,0,1,1,1.1955301040240789,2.1955301040240793,0.8044698959759213,3.0,1,1.9455301040240789,0,4.0,3.0,1,2,9,0,9,0,0,8,8,6,,,,,,,624.2738047079183,624.2738047079183,625.2881752909161,626.2217825829284,626.4419177499367,626.4419177499367,626.4419177499367,627.2550605409779,627.2550605409779,627.2550605409779,627.2550605409779,628.3572157499148,200003,105,2023-03-24_13h28.15.864,DMS_et_12-36,2022.2.4,None,
,,,,,,,,,,,,,,,,,,,,,,,,,,,,,,,,,,,9,0,9,0,,,,,,,,,628.3572157499148,640.3779232079396,,,,,,,,,,,,,200003,105,2023-03-24_13h28.15.864,DMS_et_12-36,2022.2.4,None,
96,PRED,12,1.1955301040240789,0,images/picture_1.png,images/picture_1.png,0,"[-11.733433509789466, -11.733433509789462]",-11.733433509789464,-11.733433509789462,images/picture_2.png,1,"[11.733433509789462, -11.733433509789466]",11.733433509789462,-11.733433509789464,images/picture_3.png,2,"[11.733433509789464, 11.733433509789462]",11.733433509789464,11.733433509789462,0,1,1,1.1955301040240789,2.1955301040240793,0.8044698959759213,3.0,1,1.9455301040240789,0,4.0,3.0,1,2,10,0,10,0,0,0,0,6,,,,,,,640.3779232079396,640.3779232079396,641.3885352909565,642.3218079999788,642.5745018749731,642.5745018749731,642.5745018749731,643.3886037080083,643.3886037080083,643.3886037080083,643.3745388749521,644.3880217910046,200003,105,2023-03-24_13h28.15.864,DMS_et_12-36,2022.2.4,None,
95,PRED,12,1.1955301040240789,0,images/picture_1.png,images/picture_1.png,0,"[-11.733433509789462, 11.733433509789464]",-11.733433509789462,11.733433509789464,images/picture_2.png,1,"[11.733433509789464, 11.733433509789462]",11.733433509789464,11.733433509789462,images/picture_3.png,2,"[11.733433509789462, -11.733433509789466]",11.733433509789462,-11.733433509789464,0,1,1,1.1955301040240789,2.1955301040240793,0.8044698959759213,3.0,1,1.9455301040240789,0,4.0,3.0,1,2,10,0,10,0,0,1,1,5,,,,,,,644.3880217910046,644.3880217910046,645.3883211249486,646.3410708749434,646.5742640829412,646.5742640829412,646.5742640829412,647.3885410409421,647.3885410409421,647.3885410409421,647.3885410409421,648.3880611249479,200003,105,2023-03-24_13h28.15.864,DMS_et_12-36,2022.2.4,None,
97,PRED,12,1.1955301040240789,0,images/picture_1.png,images/picture_1.png,0,"[-11.733433509789466, -11.733433509789462]",-11.733433509789464,-11.733433509789462,images/picture_2.png,1,"[11.733433509789462, -11.733433509789466]",11.733433509789462,-11.733433509789464,images/picture_3.png,2,"[-11.733433509789462, 11.733433509789464]",-11.733433509789462,11.733433509789464,0,1,1,1.1955301040240789,2.1955301040240793,0.8044698959759213,3.0,1,1.9455301040240789,0,4.0,3.0,1,2,10,0,10,0,0,2,2,7,,,,,,,648.3880611249479,648.3880611249479,649.3885241659591,650.3410167079419,650.5747282499215,650.5747282499215,650.5747282499215,651.3884880829137,651.3884880829137,651.3884880829137,651.3884880829137,652.3880887499545,200003,105,2023-03-24_13h28.15.864,DMS_et_12-36,2022.2.4,None,
90,PRED,12,1.1955301040240789,0,images/picture_1.png,images/picture_1.png,0,"[11.733433509789464, 11.733433509789462]",11.733433509789464,11.733433509789462,images/picture_2.png,1,"[-11.733433509789466, -11.733433509789462]",-11.733433509789464,-11.733433509789462,images/picture_3.png,2,"[-11.733433509789462, 11.733433509789464]",-11.733433509789462,11.733433509789464,0,1,1,1.1955301040240789,2.1955301040240793,0.8044698959759213,3.0,1,1.9455301040240789,0,4.0,3.0,1,2,10,0,10,0,0,3,3,0,,,,,,,652.3880887499545,652.3880887499545,653.3884804999689,654.3410287499428,654.574611207936,654.574611207936,654.574611207936,655.3883222909644,655.3883222909644,655.3883222909644,655.3883222909644,656.3880827499088,200003,105,2023-03-24_13h28.15.864,DMS_et_12-36,2022.2.4,None,
93,PRED,12,1.1955301040240789,0,images/picture_1.png,images/picture_1.png,0,"[11.733433509789464, 11.733433509789462]",11.733433509789464,11.733433509789462,images/picture_2.png,1,"[-11.733433509789462, 11.733433509789464]",-11.733433509789462,11.733433509789464,images/picture_3.png,2,"[-11.733433509789466, -11.733433509789462]",-11.733433509789464,-11.733433509789462,0,1,1,1.1955301040240789,2.1955301040240793,0.8044698959759213,3.0,1,1.9455301040240789,0,4.0,3.0,1,2,10,0,10,0,0,4,4,3,,,,,,,656.3880827499088,656.3880827499088,657.3884823329281,658.341002290952,658.5743872909807,658.5743872909807,658.5743872909807,659.3885267080041,659.3885267080041,659.3885267080041,659.3885267080041,660.3879685829161,200003,105,2023-03-24_13h28.15.864,DMS_et_12-36,2022.2.4,None,
92,PRED,12,1.1955301040240789,0,images/picture_1.png,images/picture_1.png,0,"[-11.733433509789466, -11.733433509789462]",-11.733433509789464,-11.733433509789462,images/picture_2.png,1,"[11.733433509789464, 11.733433509789462]",11.733433509789464,11.733433509789462,images/picture_3.png,2,"[11.733433509789462, -11.733433509789466]",11.733433509789462,-11.733433509789464,0,1,1,1.1955301040240789,2.1955301040240793,0.8044698959759213,3.0,1,1.9455301040240789,0,4.0,3.0,1,2,10,0,10,0,0,5,5,2,,,,,,,660.3879685829161,660.3879685829161,661.3885572080035,662.3410298749804,662.5745309999911,662.5745309999911,662.5745309999911,663.3884843749693,663.3884843749693,663.3884843749693,663.3884843749693,664.3881109160138,200003,105,2023-03-24_13h28.15.864,DMS_et_12-36,2022.2.4,None,
91,PRED,12,1.1955301040240789,0,images/picture_1.png,images/picture_1.png,0,"[11.733433509789464, 11.733433509789462]",11.733433509789464,11.733433509789462,images/picture_2.png,1,"[11.733433509789462, -11.733433509789466]",11.733433509789462,-11.733433509789464,images/picture_3.png,2,"[-11.733433509789462, 11.733433509789464]",-11.733433509789462,11.733433509789464,0,1,1,1.1955301040240789,2.1955301040240793,0.8044698959759213,3.0,1,1.9455301040240789,0,4.0,3.0,1,2,10,0,10,0,0,6,6,1,,,,,,,664.3881109160138,664.3881109160138,665.3882199579384,666.3402975829085,666.5738066659542,666.5738066659542,666.5738066659542,667.3885830409126,667.3885830409126,667.3885830409126,667.3885830409126,668.3879094580188,200003,105,2023-03-24_13h28.15.864,DMS_et_12-36,2022.2.4,None,
94,PRED,12,1.1955301040240789,0,images/picture_1.png,images/picture_1.png,0,"[-11.733433509789462, 11.733433509789464]",-11.733433509789462,11.733433509789464,images/picture_2.png,1,"[11.733433509789462, -11.733433509789466]",11.733433509789462,-11.733433509789464,images/picture_3.png,2,"[11.733433509789464, 11.733433509789462]",11.733433509789464,11.733433509789462,0,1,1,1.1955301040240789,2.1955301040240793,0.8044698959759213,3.0,1,1.9455301040240789,0,4.0,3.0,1,2,10,0,10,0,0,7,7,4,,,,,,,668.3879094580188,668.3879094580188,669.3884802079992,670.3410722499248,670.5744982080068,670.5744982080068,670.5744982080068,671.3886006659595,671.3886006659595,671.3886006659595,671.3886006659595,672.3879203329561,200003,105,2023-03-24_13h28.15.864,DMS_et_12-36,2022.2.4,None,
98,PRED,12,1.1955301040240789,0,images/picture_1.png,images/picture_1.png,0,"[11.733433509789464, 11.733433509789462]",11.733433509789464,11.733433509789462,images/picture_2.png,1,"[11.733433509789462, -11.733433509789466]",11.733433509789462,-11.733433509789464,images/picture_3.png,2,"[-11.733433509789462, 11.733433509789464]",-11.733433509789462,11.733433509789464,0,1,1,1.1955301040240789,2.1955301040240793,0.8044698959759213,3.0,1,1.9455301040240789,0,4.0,3.0,1,2,10,0,10,0,0,8,8,8,,,,,,,672.3879203329561,672.3879203329561,673.3885187079431,674.3410469999071,674.5745463749627,674.5745463749627,674.5745463749627,675.3885626249248,675.3885626249248,675.3885626249248,675.3885626249248,676.4859291249886,200003,105,2023-03-24_13h28.15.864,DMS_et_12-36,2022.2.4,None,
,,,,,,,,,,,,,,,,,,,,,,,,,,,,,,,,,,,10,0,10,0,,,,,,,,,676.4859291249886,688.5168047079351,,,,,,,,,,,,,200003,105,2023-03-24_13h28.15.864,DMS_et_12-36,2022.2.4,None,
105,UNPRED,12,1.1955301040240789,2,images/picture_3.png,images/picture_1.png,0,"[11.733433509789462, -11.733433509789466]",11.733433509789462,-11.733433509789464,images/picture_2.png,1,"[11.733433509789464, 11.733433509789462]",11.733433509789464,11.733433509789462,images/picture_3.png,2,"[-11.733433509789466, -11.733433509789462]",-11.733433509789464,-11.733433509789462,0,1,1,1.1955301040240789,2.1955301040240793,0.8044698959759213,3.0,1,1.9455301040240789,0,4.0,3.0,1,2,11,0,11,0,0,0,0,6,,,,,,,688.5168047079351,688.5168047079351,689.5218715409283,690.4745511249639,690.7077997910092,690.7077997910092,690.7077997910092,691.5218233329942,691.5218233329942,691.5218233329942,691.5080528749386,692.5405384579208,200003,105,2023-03-24_13h28.15.864,DMS_et_12-36,2022.2.4,None,
107,UNPRED,12,1.1955301040240789,2,images/picture_3.png,images/picture_1.png,0,"[-11.733433509789462, 11.733433509789464]",-11.733433509789462,11.733433509789464,images/picture_2.png,1,"[11.733433509789462, -11.733433509789466]",11.733433509789462,-11.733433509789464,images/picture_3.png,2,"[-11.733433509789466, -11.733433509789462]",-11.733433509789464,-11.733433509789462,0,1,1,1.1955301040240789,2.1955301040240793,0.8044698959759213,3.0,1,1.9455301040240789,0,4.0,3.0,1,2,11,0,11,0,0,1,1,8,,,,,,,692.5405384579208,692.5405384579208,693.5552265829174,694.4885572079802,694.7218575829174,694.7218575829174,694.7218575829174,695.5410102909664,695.5410102909664,695.5410102909664,695.5217454580124,696.5214080829173,200003,105,2023-03-24_13h28.15.864,DMS_et_12-36,2022.2.4,None,
106,UNPRED,12,1.1955301040240789,1,images/picture_2.png,images/picture_1.png,0,"[11.733433509789462, -11.733433509789466]",11.733433509789462,-11.733433509789464,images/picture_2.png,1,"[-11.733433509789466, -11.733433509789462]",-11.733433509789464,-11.733433509789462,images/picture_3.png,2,"[11.733433509789464, 11.733433509789462]",11.733433509789464,11.733433509789462,0,1,1,1.1955301040240789,2.1955301040240793,0.8044698959759213,3.0,1,1.9455301040240789,0,4.0,3.0,1,2,11,0,11,0,0,2,2,7,,,,,,,696.5214080829173,696.5214080829173,697.5218962909421,698.4746767079923,698.7077017079573,698.7077017079573,698.7077017079573,699.5218196659116,699.5218196659116,699.5218196659116,699.5218196659116,700.5211853749352,200003,105,2023-03-24_13h28.15.864,DMS_et_12-36,2022.2.4,None,
104,UNPRED,12,1.1955301040240789,1,images/picture_2.png,images/picture_1.png,0,"[11.733433509789464, 11.733433509789462]",11.733433509789464,11.733433509789462,images/picture_2.png,1,"[11.733433509789462, -11.733433509789466]",11.733433509789462,-11.733433509789464,images/picture_3.png,2,"[-11.733433509789462, 11.733433509789464]",-11.733433509789462,11.733433509789464,0,1,1,1.1955301040240789,2.1955301040240793,0.8044698959759213,3.0,1,1.9455301040240789,0,4.0,3.0,1,2,11,0,11,0,0,3,3,5,,,,,,,700.5211853749352,700.5211853749352,701.5218315409729,702.4746961659985,702.7079407499405,702.7079407499405,702.7079407499405,703.5218881249893,703.5218881249893,703.5218881249893,703.5218881249893,704.5208800409455,200003,105,2023-03-24_13h28.15.864,DMS_et_12-36,2022.2.4,None,
103,UNPRED,12,1.1955301040240789,0,images/picture_1.png,images/picture_1.png,0,"[-11.733433509789466, -11.733433509789462]",-11.733433509789464,-11.733433509789462,images/picture_2.png,1,"[-11.733433509789462, 11.733433509789464]",-11.733433509789462,11.733433509789464,images/picture_3.png,2,"[11.733433509789464, 11.733433509789462]",11.733433509789464,11.733433509789462,0,1,1,1.1955301040240789,2.1955301040240793,0.8044698959759213,3.0,1,1.9455301040240789,0,4.0,3.0,1,2,11,0,11,0,0,4,4,4,,,,,,,704.5208800409455,704.5208800409455,705.5218667079462,706.4739474579692,706.7074166659731,706.7074166659731,706.7074166659731,707.5216001659865,707.5216001659865,707.5216001659865,707.5216001659865,708.5214555409038,200003,105,2023-03-24_13h28.15.864,DMS_et_12-36,2022.2.4,None,
99,UNPRED,12,1.1955301040240789,1,images/picture_2.png,images/picture_1.png,0,"[-11.733433509789466, -11.733433509789462]",-11.733433509789464,-11.733433509789462,images/picture_2.png,1,"[11.733433509789462, -11.733433509789466]",11.733433509789462,-11.733433509789464,images/picture_3.png,2,"[11.733433509789464, 11.733433509789462]",11.733433509789464,11.733433509789462,0,1,1,1.1955301040240789,2.1955301040240793,0.8044698959759213,3.0,1,1.9455301040240789,0,4.0,3.0,1,2,11,0,11,0,0,5,5,0,,,,,,,708.5214555409038,708.5214555409038,709.5219890829176,710.4744906249689,710.7076716249576,710.7076716249576,710.7076716249576,711.5217384159332,711.5217384159332,711.5217384159332,711.5217384159332,712.5211735409684,200003,105,2023-03-24_13h28.15.864,DMS_et_12-36,2022.2.4,None,
102,UNPRED,12,1.1955301040240789,1,images/picture_2.png,images/picture_1.png,0,"[-11.733433509789462, 11.733433509789464]",-11.733433509789462,11.733433509789464,images/picture_2.png,1,"[11.733433509789464, 11.733433509789462]",11.733433509789464,11.733433509789462,images/picture_3.png,2,"[11.733433509789462, -11.733433509789466]",11.733433509789462,-11.733433509789464,0,1,1,1.1955301040240789,2.1955301040240793,0.8044698959759213,3.0,1,1.9455301040240789,0,4.0,3.0,1,2,11,0,11,0,0,6,6,3,,,,,,,712.5211735409684,712.5211735409684,713.5218121249927,714.4743444999913,714.7076984159648,714.7076984159648,714.7076984159648,715.5218639579834,715.5218639579834,715.5218639579834,715.5218639579834,716.5213684999617,200003,105,2023-03-24_13h28.15.864,DMS_et_12-36,2022.2.4,None,
101,UNPRED,12,1.1955301040240789,0,images/picture_1.png,images/picture_1.png,0,"[-11.733433509789462, 11.733433509789464]",-11.733433509789462,11.733433509789464,images/picture_2.png,1,"[-11.733433509789466, -11.733433509789462]",-11.733433509789464,-11.733433509789462,images/picture_3.png,2,"[11.733433509789464, 11.733433509789462]",11.733433509789464,11.733433509789462,0,1,1,1.1955301040240789,2.1955301040240793,0.8044698959759213,3.0,1,1.9455301040240789,0,4.0,3.0,1,2,11,0,11,0,0,7,7,2,,,,,,,716.5213684999617,716.5213684999617,717.5215855409624,718.4745112080127,718.7077267079148,718.7077267079148,718.7077267079148,719.5217767079594,719.5217767079594,719.5217767079594,719.5217767079594,720.521325291018,200003,105,2023-03-24_13h28.15.864,DMS_et_12-36,2022.2.4,None,
100,UNPRED,12,1.1955301040240789,0,images/picture_1.png,images/picture_1.png,0,"[11.733433509789464, 11.733433509789462]",11.733433509789464,11.733433509789462,images/picture_2.png,1,"[-11.733433509789466, -11.733433509789462]",-11.733433509789464,-11.733433509789462,images/picture_3.png,2,"[-11.733433509789462, 11.733433509789464]",-11.733433509789462,11.733433509789464,0,1,1,1.1955301040240789,2.1955301040240793,0.8044698959759213,3.0,1,1.9455301040240789,0,4.0,3.0,1,2,11,0,11,0,0,8,8,1,,,,,,,720.521325291018,720.521325291018,721.5218669580063,722.4742565829074,722.7076699580066,722.7076699580066,722.7076699580066,723.5217634160072,723.5217634160072,723.5217634160072,723.5217634160072,724.683896832983,200003,105,2023-03-24_13h28.15.864,DMS_et_12-36,2022.2.4,None,
,,,,,,,,,,,,,,,,,,,,,,,,,,,,,,,,,,,11,0,11,0,,,,,,,,,724.683896832983,736.8193584160181,,,,,,,,,,,,,200003,105,2023-03-24_13h28.15.864,DMS_et_12-36,2022.2.4,None,
,,,,,,,,,,,,,,,,,,,,,,,,,,,,,,,,,,,,,,,,,,,,,,,736.8193584160181,749.3527393329423,,,,,,,,,,,,,,,,,,,
