trial_count,blockType,blockNum,delay_time,stimImage_i,stimImage,responseImage1,responseImage1_i,responseImage1_pos,responseImage1_X,responseImage1_Y,responseImage2,responseImage2_i,responseImage2_pos,responseImage2_X,responseImage2_Y,responseImage3,responseImage3_i,responseImage3_pos,responseImage3_X,responseImage3_Y,cue_onset,cue_dur,delay_onset,delay_dur,resp_onset,resp_dur,rest_onset,rest_dur,circle_dur,circle_onset,total_dur,cross_onset,cross_dur,delay_resp_period,blocks.thisRepN,blocks.thisTrialN,blocks.thisN,blocks.thisIndex,trials.thisRepN,trials.thisTrialN,trials.thisN,trials.thisIndex,key_resp.started,text.started,key_resp.keys,key_resp.rt,text_2.started,text_2.stopped,sample.started,Delay.started,sample.stopped,Delay.stopped,Response_1.started,Response_2.started,Response_3.started,polygon.started,Response_1.stopped,Response_2.stopped,Response_3.stopped,polygon.stopped,participant,session,date,expName,psychopyVersion,frameRate,
,,,,,,,,,,,,,,,,,,,,,,,,,,,,,,,,,,,,,,,,,,,50.9395566250023,50.9395566250023,t,65.4478253749985,,,,,,,,,,,,,,,200003,304,2023-04-07_13h18.54.413,DMS_et_12-36,2022.2.4,None,
6,PRED,12,0.9677503360575584,1,images/picture_2.png,images/picture_1.png,0,"[-11.733433509789466, -11.733433509789462]",-11.733433509789464,-11.733433509789462,images/picture_2.png,1,"[-11.733433509789462, 11.733433509789464]",-11.733433509789462,11.733433509789464,images/picture_3.png,2,"[11.733433509789464, 11.733433509789462]",11.733433509789464,11.733433509789462,0,1,1,0.9677503360575584,1.9677503360575583,1.0322496639424417,3.0,1,1.7177503360575583,0,4.0,3.0,1,2,0,0,0,0,0,0,0,6,,,,,116.90540587500436,128.94001233299787,128.94001233299787,128.94001233299787,129.94947791700542,130.66888808300428,130.90240245799941,130.90240245799941,130.90240245799941,131.93577337500756,131.94947858300293,131.94947858300293,131.94947858300293,132.9487622500019,200003,304,2023-04-07_13h18.54.413,DMS_et_12-36,2022.2.4,None,
4,PRED,12,0.9677503360575584,1,images/picture_2.png,images/picture_1.png,0,"[11.733433509789464, 11.733433509789462]",11.733433509789464,11.733433509789462,images/picture_2.png,1,"[-11.733433509789462, 11.733433509789464]",-11.733433509789462,11.733433509789464,images/picture_3.png,2,"[-11.733433509789466, -11.733433509789462]",-11.733433509789464,-11.733433509789462,0,1,1,0.9677503360575584,1.9677503360575583,1.0322496639424417,3.0,1,1.7177503360575583,0,4.0,3.0,1,2,0,0,0,0,0,1,1,4,,,,,,,132.9487622500019,132.9487622500019,133.94964312500088,134.6681792080053,134.9158572919987,134.9158572919987,134.9158572919987,135.94944312500593,135.94944312500593,135.94944312500593,135.94944312500593,136.9484645830089,200003,304,2023-04-07_13h18.54.413,DMS_et_12-36,2022.2.4,None,
5,PRED,12,0.9677503360575584,1,images/picture_2.png,images/picture_1.png,0,"[-11.733433509789466, -11.733433509789462]",-11.733433509789464,-11.733433509789462,images/picture_2.png,1,"[11.733433509789464, 11.733433509789462]",11.733433509789464,11.733433509789462,images/picture_3.png,2,"[11.733433509789462, -11.733433509789466]",11.733433509789462,-11.733433509789464,0,1,1,0.9677503360575584,1.9677503360575583,1.0322496639424417,3.0,1,1.7177503360575583,0,4.0,3.0,1,2,0,0,0,0,0,2,2,5,,,,,,,136.9484645830089,136.9484645830089,137.94949670800997,138.66911291700671,138.9161617080099,138.9161617080099,138.9161617080099,139.94951091700932,139.94951091700932,139.94951091700932,139.94951091700932,140.94899375000386,200003,304,2023-04-07_13h18.54.413,DMS_et_12-36,2022.2.4,None,
8,PRED,12,0.9677503360575584,1,images/picture_2.png,images/picture_1.png,0,"[11.733433509789462, -11.733433509789466]",11.733433509789462,-11.733433509789464,images/picture_2.png,1,"[-11.733433509789462, 11.733433509789464]",-11.733433509789462,11.733433509789464,images/picture_3.png,2,"[-11.733433509789466, -11.733433509789462]",-11.733433509789464,-11.733433509789462,0,1,1,0.9677503360575584,1.9677503360575583,1.0322496639424417,3.0,1,1.7177503360575583,0,4.0,3.0,1,2,0,0,0,0,0,3,3,8,,,,,,,140.94899375000386,140.94899375000386,141.94962108301115,142.6687259580067,142.91616754200368,142.91616754200368,142.91616754200368,143.94944679200125,143.94944679200125,143.94944679200125,143.94944679200125,144.94910320801137,200003,304,2023-04-07_13h18.54.413,DMS_et_12-36,2022.2.4,None,
1,PRED,12,0.9677503360575584,1,images/picture_2.png,images/picture_1.png,0,"[-11.733433509789466, -11.733433509789462]",-11.733433509789464,-11.733433509789462,images/picture_2.png,1,"[11.733433509789464, 11.733433509789462]",11.733433509789464,11.733433509789462,images/picture_3.png,2,"[-11.733433509789462, 11.733433509789464]",-11.733433509789462,11.733433509789464,0,1,1,0.9677503360575584,1.9677503360575583,1.0322496639424417,3.0,1,1.7177503360575583,0,4.0,3.0,1,2,0,0,0,0,0,4,4,1,,,,,,,144.94910320801137,144.94910320801137,145.94944204200874,146.66915883299953,146.91621116700117,146.91621116700117,146.91621116700117,147.94965154200327,147.94965154200327,147.94965154200327,147.94965154200327,148.94849291699938,200003,304,2023-04-07_13h18.54.413,DMS_et_12-36,2022.2.4,None,
0,PRED,12,0.9677503360575584,1,images/picture_2.png,images/picture_1.png,0,"[11.733433509789462, -11.733433509789466]",11.733433509789462,-11.733433509789464,images/picture_2.png,1,"[-11.733433509789462, 11.733433509789464]",-11.733433509789462,11.733433509789464,images/picture_3.png,2,"[11.733433509789464, 11.733433509789462]",11.733433509789464,11.733433509789462,0,1,1,0.9677503360575584,1.9677503360575583,1.0322496639424417,3.0,1,1.7177503360575583,0,4.0,3.0,1,2,0,0,0,0,0,5,5,0,,,,,,,148.94849291699938,148.94849291699938,149.94968333300494,150.66881925000052,150.9162053750042,150.9162053750042,150.9162053750042,151.9494362920086,151.9494362920086,151.9494362920086,151.9494362920086,152.94952508300776,200003,304,2023-04-07_13h18.54.413,DMS_et_12-36,2022.2.4,None,
7,PRED,12,0.9677503360575584,1,images/picture_2.png,images/picture_1.png,0,"[-11.733433509789462, 11.733433509789464]",-11.733433509789462,11.733433509789464,images/picture_2.png,1,"[-11.733433509789466, -11.733433509789462]",-11.733433509789464,-11.733433509789462,images/picture_3.png,2,"[11.733433509789464, 11.733433509789462]",11.733433509789464,11.733433509789462,0,1,1,0.9677503360575584,1.9677503360575583,1.0322496639424417,3.0,1,1.7177503360575583,0,4.0,3.0,1,2,0,0,0,0,0,6,6,7,,,,,,,152.94952508300776,152.94952508300776,153.94943624999723,154.682550292011,154.91581375000533,154.91581375000533,154.91581375000533,155.94967037500464,155.94967037500464,155.94967037500464,155.94967037500464,156.94852133300446,200003,304,2023-04-07_13h18.54.413,DMS_et_12-36,2022.2.4,None,
2,PRED,12,0.9677503360575584,1,images/picture_2.png,images/picture_1.png,0,"[11.733433509789462, -11.733433509789466]",11.733433509789462,-11.733433509789464,images/picture_2.png,1,"[-11.733433509789462, 11.733433509789464]",-11.733433509789462,11.733433509789464,images/picture_3.png,2,"[-11.733433509789466, -11.733433509789462]",-11.733433509789464,-11.733433509789462,0,1,1,0.9677503360575584,1.9677503360575583,1.0322496639424417,3.0,1,1.7177503360575583,0,4.0,3.0,1,2,0,0,0,0,0,7,7,2,,,,,,,156.94852133300446,156.94852133300446,157.94946016700123,158.6692274579982,158.91619741699833,158.91619741699833,158.91619741699833,159.94966312500765,159.94966312500765,159.94966312500765,159.94966312500765,160.94902900001034,200003,304,2023-04-07_13h18.54.413,DMS_et_12-36,2022.2.4,None,
3,PRED,12,0.9677503360575584,1,images/picture_2.png,images/picture_1.png,0,"[11.733433509789464, 11.733433509789462]",11.733433509789464,11.733433509789462,images/picture_2.png,1,"[-11.733433509789462, 11.733433509789464]",-11.733433509789462,11.733433509789464,images/picture_3.png,2,"[11.733433509789462, -11.733433509789466]",11.733433509789462,-11.733433509789464,0,1,1,0.9677503360575584,1.9677503360575583,1.0322496639424417,3.0,1,1.7177503360575583,0,4.0,3.0,1,2,0,0,0,0,0,8,8,3,,,,,,,160.94902900001034,160.94902900001034,161.94964308300405,162.66915833301027,162.9162029170111,162.9162029170111,162.9162029170111,163.9494512079982,163.9494512079982,163.9494512079982,163.9494512079982,164.96807779200026,200003,304,2023-04-07_13h18.54.413,DMS_et_12-36,2022.2.4,None,
,,,,,,,,,,,,,,,,,,,,,,,,,,,,,,,,,,,0,0,0,0,,,,,,,,,164.96807779200026,177.00137183300103,,,,,,,,,,,,,200003,304,2023-04-07_13h18.54.413,DMS_et_12-36,2022.2.4,None,
16,UNPRED,12,0.9677503360575584,1,images/picture_2.png,images/picture_1.png,0,"[-11.733433509789466, -11.733433509789462]",-11.733433509789464,-11.733433509789462,images/picture_2.png,1,"[-11.733433509789462, 11.733433509789464]",-11.733433509789462,11.733433509789464,images/picture_3.png,2,"[11.733433509789464, 11.733433509789462]",11.733433509789464,11.733433509789462,0,1,1,0.9677503360575584,1.9677503360575583,1.0322496639424417,3.0,1,1.7177503360575583,0,4.0,3.0,1,2,1,0,1,0,0,0,0,7,,,,,,,177.00137183300103,177.00137183300103,178.01625508299912,178.71643058300833,178.96894512500148,178.96894512500148,178.96894512500148,180.0025256670051,180.01626266700623,180.01626266700623,180.01626266700623,181.0157048330002,200003,304,2023-04-07_13h18.54.413,DMS_et_12-36,2022.2.4,None,
12,UNPRED,12,0.9677503360575584,0,images/picture_1.png,images/picture_1.png,0,"[11.733433509789462, -11.733433509789466]",11.733433509789462,-11.733433509789464,images/picture_2.png,1,"[11.733433509789464, 11.733433509789462]",11.733433509789464,11.733433509789462,images/picture_3.png,2,"[-11.733433509789466, -11.733433509789462]",-11.733433509789464,-11.733433509789462,0,1,1,0.9677503360575584,1.9677503360575583,1.0322496639424417,3.0,1,1.7177503360575583,0,4.0,3.0,1,2,1,0,1,0,0,1,1,3,,,,,,,181.0157048330002,181.0157048330002,182.0162207500107,182.73583770800906,182.98295537500235,182.98295537500235,182.98295537500235,184.0162645829987,184.0162645829987,184.0162645829987,184.0162645829987,185.0159375420044,200003,304,2023-04-07_13h18.54.413,DMS_et_12-36,2022.2.4,None,
17,UNPRED,12,0.9677503360575584,0,images/picture_1.png,images/picture_1.png,0,"[-11.733433509789462, 11.733433509789464]",-11.733433509789462,11.733433509789464,images/picture_2.png,1,"[-11.733433509789466, -11.733433509789462]",-11.733433509789464,-11.733433509789462,images/picture_3.png,2,"[11.733433509789464, 11.733433509789462]",11.733433509789464,11.733433509789462,0,1,1,0.9677503360575584,1.9677503360575583,1.0322496639424417,3.0,1,1.7177503360575583,0,4.0,3.0,1,2,1,0,1,0,0,2,2,8,,,,,,,185.0159375420044,185.0159375420044,186.01591070801078,186.7356030420051,186.98290383300628,186.98290383300628,186.98290383300628,188.01631137500226,188.01631137500226,188.01631137500226,188.01631137500226,189.01622316701105,200003,304,2023-04-07_13h18.54.413,DMS_et_12-36,2022.2.4,None,
11,UNPRED,12,0.9677503360575584,1,images/picture_2.png,images/picture_1.png,0,"[-11.733433509789462, 11.733433509789464]",-11.733433509789462,11.733433509789464,images/picture_2.png,1,"[11.733433509789464, 11.733433509789462]",11.733433509789464,11.733433509789462,images/picture_3.png,2,"[-11.733433509789466, -11.733433509789462]",-11.733433509789464,-11.733433509789462,0,1,1,0.9677503360575584,1.9677503360575583,1.0322496639424417,3.0,1,1.7177503360575583,0,4.0,3.0,1,2,1,0,1,0,0,3,3,2,,,,,,,189.01622316701105,189.01622316701105,190.0162596250011,190.74951220799994,190.98292491699976,190.98292491699976,190.98292491699976,192.01624066699878,192.01624066699878,192.01624066699878,192.01624066699878,193.0349988329981,200003,304,2023-04-07_13h18.54.413,DMS_et_12-36,2022.2.4,None,
15,UNPRED,12,0.9677503360575584,2,images/picture_3.png,images/picture_1.png,0,"[11.733433509789462, -11.733433509789466]",11.733433509789462,-11.733433509789464,images/picture_2.png,1,"[11.733433509789464, 11.733433509789462]",11.733433509789464,11.733433509789462,images/picture_3.png,2,"[-11.733433509789462, 11.733433509789464]",-11.733433509789462,11.733433509789464,0,1,1,0.9677503360575584,1.9677503360575583,1.0322496639424417,3.0,1,1.7177503360575583,0,4.0,3.0,1,2,1,0,1,0,0,4,4,6,,,,,,,193.0349988329981,193.0349988329981,194.04941849999886,194.7496597499994,194.98288595800113,194.98288595800113,194.98288595800113,196.01594112500607,196.01594112500607,196.01594112500607,196.01594112500607,197.0174784999981,200003,304,2023-04-07_13h18.54.413,DMS_et_12-36,2022.2.4,None,
14,UNPRED,12,0.9677503360575584,1,images/picture_2.png,images/picture_1.png,0,"[-11.733433509789462, 11.733433509789464]",-11.733433509789462,11.733433509789464,images/picture_2.png,1,"[-11.733433509789466, -11.733433509789462]",-11.733433509789464,-11.733433509789462,images/picture_3.png,2,"[11.733433509789462, -11.733433509789466]",11.733433509789462,-11.733433509789464,0,1,1,0.9677503360575584,1.9677503360575583,1.0322496639424417,3.0,1,1.7177503360575583,0,4.0,3.0,1,2,1,0,1,0,0,5,5,5,,,,,,,197.0174784999981,197.0174784999981,198.0162098330038,198.74966650000715,198.9829197920044,198.9829197920044,198.9829197920044,200.01622495800257,200.01622495800257,200.01622495800257,200.01622495800257,201.03502879200096,200003,304,2023-04-07_13h18.54.413,DMS_et_12-36,2022.2.4,None,
13,UNPRED,12,0.9677503360575584,2,images/picture_3.png,images/picture_1.png,0,"[11.733433509789464, 11.733433509789462]",11.733433509789464,11.733433509789462,images/picture_2.png,1,"[-11.733433509789462, 11.733433509789464]",-11.733433509789462,11.733433509789464,images/picture_3.png,2,"[11.733433509789462, -11.733433509789466]",11.733433509789462,-11.733433509789464,0,1,1,0.9677503360575584,1.9677503360575583,1.0322496639424417,3.0,1,1.7177503360575583,0,4.0,3.0,1,2,1,0,1,0,0,6,6,4,,,,,,,201.03502879200096,201.03502879200096,202.04946400001063,202.74964799999725,202.98304162500426,202.98304162500426,202.98304162500426,204.01618845800112,204.01618845800112,204.01618845800112,204.01618845800112,205.01667987499968,200003,304,2023-04-07_13h18.54.413,DMS_et_12-36,2022.2.4,None,
9,UNPRED,12,0.9677503360575584,1,images/picture_2.png,images/picture_1.png,0,"[-11.733433509789466, -11.733433509789462]",-11.733433509789464,-11.733433509789462,images/picture_2.png,1,"[11.733433509789464, 11.733433509789462]",11.733433509789464,11.733433509789462,images/picture_3.png,2,"[11.733433509789462, -11.733433509789466]",11.733433509789462,-11.733433509789464,0,1,1,0.9677503360575584,1.9677503360575583,1.0322496639424417,3.0,1,1.7177503360575583,0,4.0,3.0,1,2,1,0,1,0,0,7,7,0,,,,,,,205.01667987499968,205.01667987499968,206.01591629200266,206.74925441700907,206.98298695799895,206.98298695799895,206.98298695799895,208.0161847499985,208.0161847499985,208.0161847499985,208.0161847499985,209.0352402920107,200003,304,2023-04-07_13h18.54.413,DMS_et_12-36,2022.2.4,None,
10,UNPRED,12,0.9677503360575584,2,images/picture_3.png,images/picture_1.png,0,"[-11.733433509789466, -11.733433509789462]",-11.733433509789464,-11.733433509789462,images/picture_2.png,1,"[11.733433509789464, 11.733433509789462]",11.733433509789464,11.733433509789462,images/picture_3.png,2,"[11.733433509789462, -11.733433509789466]",11.733433509789462,-11.733433509789464,0,1,1,0.9677503360575584,1.9677503360575583,1.0322496639424417,3.0,1,1.7177503360575583,0,4.0,3.0,1,2,1,0,1,0,0,8,8,1,,,,,,,209.0352402920107,209.0352402920107,210.04961616700166,210.74948450000375,210.98292741700425,210.98292741700425,210.98292741700425,212.01618674999918,212.01618674999918,212.01618674999918,212.01618674999918,213.0498128330073,200003,304,2023-04-07_13h18.54.413,DMS_et_12-36,2022.2.4,None,
,,,,,,,,,,,,,,,,,,,,,,,,,,,,,,,,,,,1,0,1,0,,,,,,,,,213.0498128330073,225.07110900001135,,,,,,,,,,,,,200003,304,2023-04-07_13h18.54.413,DMS_et_12-36,2022.2.4,None,
26,PRED,12,0.9677503360575584,0,images/picture_1.png,images/picture_1.png,0,"[-11.733433509789462, 11.733433509789464]",-11.733433509789462,11.733433509789464,images/picture_2.png,1,"[11.733433509789464, 11.733433509789462]",11.733433509789464,11.733433509789462,images/picture_3.png,2,"[11.733433509789462, -11.733433509789466]",11.733433509789462,-11.733433509789464,0,1,1,0.9677503360575584,1.9677503360575583,1.0322496639424417,3.0,1,1.7177503360575583,0,4.0,3.0,1,2,2,0,2,0,0,0,0,8,,,,,,,225.07110900001135,225.07110900001135,226.08305241700145,226.80174562500906,227.03514800000994,227.03514800000994,227.03514800000994,228.06902062500012,228.0830097500002,228.0830097500002,228.0830097500002,229.08274425000127,200003,304,2023-04-07_13h18.54.413,DMS_et_12-36,2022.2.4,None,
22,PRED,12,0.9677503360575584,0,images/picture_1.png,images/picture_1.png,0,"[-11.733433509789462, 11.733433509789464]",-11.733433509789462,11.733433509789464,images/picture_2.png,1,"[11.733433509789462, -11.733433509789466]",11.733433509789462,-11.733433509789464,images/picture_3.png,2,"[11.733433509789464, 11.733433509789462]",11.733433509789464,11.733433509789462,0,1,1,0.9677503360575584,1.9677503360575583,1.0322496639424417,3.0,1,1.7177503360575583,0,4.0,3.0,1,2,2,0,2,0,0,1,1,4,,,,,,,229.08274425000127,229.08274425000127,230.08292208300554,230.8025778750016,231.0496369169996,231.0496369169996,231.0496369169996,232.08304500000668,232.08304500000668,232.08304500000668,232.08304500000668,233.0824952920084,200003,304,2023-04-07_13h18.54.413,DMS_et_12-36,2022.2.4,None,
24,PRED,12,0.9677503360575584,0,images/picture_1.png,images/picture_1.png,0,"[-11.733433509789462, 11.733433509789464]",-11.733433509789462,11.733433509789464,images/picture_2.png,1,"[11.733433509789462, -11.733433509789466]",11.733433509789462,-11.733433509789464,images/picture_3.png,2,"[-11.733433509789466, -11.733433509789462]",-11.733433509789464,-11.733433509789462,0,1,1,0.9677503360575584,1.9677503360575583,1.0322496639424417,3.0,1,1.7177503360575583,0,4.0,3.0,1,2,2,0,2,0,0,2,2,6,,,,,,,233.0824952920084,233.0824952920084,234.0830138750025,234.80231866700342,235.04947725000966,235.04947725000966,235.04947725000966,236.08294779200514,236.08294779200514,236.08294779200514,236.08294779200514,237.08270716700645,200003,304,2023-04-07_13h18.54.413,DMS_et_12-36,2022.2.4,None,
23,PRED,12,0.9677503360575584,0,images/picture_1.png,images/picture_1.png,0,"[-11.733433509789462, 11.733433509789464]",-11.733433509789462,11.733433509789464,images/picture_2.png,1,"[-11.733433509789466, -11.733433509789462]",-11.733433509789464,-11.733433509789462,images/picture_3.png,2,"[11.733433509789462, -11.733433509789466]",11.733433509789462,-11.733433509789464,0,1,1,0.9677503360575584,1.9677503360575583,1.0322496639424417,3.0,1,1.7177503360575583,0,4.0,3.0,1,2,2,0,2,0,0,3,3,5,,,,,,,237.08270716700645,237.08270716700645,238.08296520799922,238.80216495800414,239.04964637500234,239.04964637500234,239.04964637500234,240.08298420799838,240.08298420799838,240.08298420799838,240.08298420799838,241.08237837500928,200003,304,2023-04-07_13h18.54.413,DMS_et_12-36,2022.2.4,None,
18,PRED,12,0.9677503360575584,0,images/picture_1.png,images/picture_1.png,0,"[11.733433509789464, 11.733433509789462]",11.733433509789464,11.733433509789462,images/picture_2.png,1,"[11.733433509789462, -11.733433509789466]",11.733433509789462,-11.733433509789464,images/picture_3.png,2,"[-11.733433509789462, 11.733433509789464]",-11.733433509789462,11.733433509789464,0,1,1,0.9677503360575584,1.9677503360575583,1.0322496639424417,3.0,1,1.7177503360575583,0,4.0,3.0,1,2,2,0,2,0,0,4,4,0,,,,,,,241.08237837500928,241.08237837500928,242.08298441700754,242.8021080000035,243.0496444169985,243.0496444169985,243.0496444169985,244.08315370800847,244.08315370800847,244.08315370800847,244.08315370800847,245.08244700000796,200003,304,2023-04-07_13h18.54.413,DMS_et_12-36,2022.2.4,None,
21,PRED,12,0.9677503360575584,0,images/picture_1.png,images/picture_1.png,0,"[11.733433509789464, 11.733433509789462]",11.733433509789464,11.733433509789462,images/picture_2.png,1,"[-11.733433509789462, 11.733433509789464]",-11.733433509789462,11.733433509789464,images/picture_3.png,2,"[11.733433509789462, -11.733433509789466]",11.733433509789462,-11.733433509789464,0,1,1,0.9677503360575584,1.9677503360575583,1.0322496639424417,3.0,1,1.7177503360575583,0,4.0,3.0,1,2,2,0,2,0,0,5,5,3,,,,,,,245.08244700000796,245.08244700000796,246.08313675000682,246.80151116701018,247.04934175001108,247.04934175001108,247.04934175001108,248.08301220800786,248.08301220800786,248.08301220800786,248.08301220800786,249.08269216700864,200003,304,2023-04-07_13h18.54.413,DMS_et_12-36,2022.2.4,None,
19,PRED,12,0.9677503360575584,0,images/picture_1.png,images/picture_1.png,0,"[11.733433509789464, 11.733433509789462]",11.733433509789464,11.733433509789462,images/picture_2.png,1,"[-11.733433509789462, 11.733433509789464]",-11.733433509789462,11.733433509789464,images/picture_3.png,2,"[11.733433509789462, -11.733433509789466]",11.733433509789462,-11.733433509789464,0,1,1,0.9677503360575584,1.9677503360575583,1.0322496639424417,3.0,1,1.7177503360575583,0,4.0,3.0,1,2,2,0,2,0,0,6,6,1,,,,,,,249.08269216700864,249.08269216700864,250.0829348749976,250.8022460830107,251.04962170800718,251.04962170800718,251.04962170800718,252.08297191699967,252.08297191699967,252.08297191699967,252.08297191699967,253.08262883299903,200003,304,2023-04-07_13h18.54.413,DMS_et_12-36,2022.2.4,None,
20,PRED,12,0.9677503360575584,0,images/picture_1.png,images/picture_1.png,0,"[11.733433509789462, -11.733433509789466]",11.733433509789462,-11.733433509789464,images/picture_2.png,1,"[-11.733433509789462, 11.733433509789464]",-11.733433509789462,11.733433509789464,images/picture_3.png,2,"[11.733433509789464, 11.733433509789462]",11.733433509789464,11.733433509789462,0,1,1,0.9677503360575584,1.9677503360575583,1.0322496639424417,3.0,1,1.7177503360575583,0,4.0,3.0,1,2,2,0,2,0,0,7,7,2,,,,,,,253.08262883299903,253.08262883299903,254.08293541699823,254.8020556249976,255.04960566700902,255.04960566700902,255.04960566700902,256.0829394169996,256.0829394169996,256.0829394169996,256.0829394169996,257.0826020829991,200003,304,2023-04-07_13h18.54.413,DMS_et_12-36,2022.2.4,None,
25,PRED,12,0.9677503360575584,0,images/picture_1.png,images/picture_1.png,0,"[-11.733433509789466, -11.733433509789462]",-11.733433509789464,-11.733433509789462,images/picture_2.png,1,"[11.733433509789462, -11.733433509789466]",11.733433509789462,-11.733433509789464,images/picture_3.png,2,"[11.733433509789464, 11.733433509789462]",11.733433509789464,11.733433509789462,0,1,1,0.9677503360575584,1.9677503360575583,1.0322496639424417,3.0,1,1.7177503360575583,0,4.0,3.0,1,2,2,0,2,0,0,8,8,7,,,,,,,257.0826020829991,257.0826020829991,258.08272200000647,258.80145125000854,259.04904587499914,259.04904587499914,259.04904587499914,260.08294812501117,260.08294812501117,260.08294812501117,260.08294812501117,261.1249292499997,200003,304,2023-04-07_13h18.54.413,DMS_et_12-36,2022.2.4,None,
,,,,,,,,,,,,,,,,,,,,,,,,,,,,,,,,,,,2,0,2,0,,,,,,,,,261.1249292499997,273.1477551249991,,,,,,,,,,,,,200003,304,2023-04-07_13h18.54.413,DMS_et_12-36,2022.2.4,None,
35,UNPRED,12,0.9677503360575584,0,images/picture_1.png,images/picture_1.png,0,"[-11.733433509789462, 11.733433509789464]",-11.733433509789462,11.733433509789464,images/picture_2.png,1,"[11.733433509789462, -11.733433509789466]",11.733433509789462,-11.733433509789464,images/picture_3.png,2,"[11.733433509789464, 11.733433509789462]",11.733433509789464,11.733433509789462,0,1,1,0.9677503360575584,1.9677503360575583,1.0322496639424417,3.0,1,1.7177503360575583,0,4.0,3.0,1,2,3,0,3,0,0,0,0,8,,,,,,,273.1477551249991,273.1477551249991,274.1498989170068,274.86915125000814,275.1162008329993,275.1162008329993,275.1162008329993,276.149690582999,276.149690582999,276.149690582999,276.149690582999,277.16862562501046,200003,304,2023-04-07_13h18.54.413,DMS_et_12-36,2022.2.4,None,
33,UNPRED,12,0.9677503360575584,2,images/picture_3.png,images/picture_1.png,0,"[11.733433509789462, -11.733433509789466]",11.733433509789462,-11.733433509789464,images/picture_2.png,1,"[11.733433509789464, 11.733433509789462]",11.733433509789464,11.733433509789462,images/picture_3.png,2,"[-11.733433509789466, -11.733433509789462]",-11.733433509789464,-11.733433509789462,0,1,1,0.9677503360575584,1.9677503360575583,1.0322496639424417,3.0,1,1.7177503360575583,0,4.0,3.0,1,2,3,0,3,0,0,1,1,6,,,,,,,277.16862562501046,277.16862562501046,278.1827260420105,278.9025375830097,279.11648841699935,279.11648841699935,279.11648841699935,280.1497247500083,280.1497247500083,280.1497247500083,280.1497247500083,281.1486826670007,200003,304,2023-04-07_13h18.54.413,DMS_et_12-36,2022.2.4,None,
30,UNPRED,12,0.9677503360575584,0,images/picture_1.png,images/picture_1.png,0,"[-11.733433509789466, -11.733433509789462]",-11.733433509789464,-11.733433509789462,images/picture_2.png,1,"[11.733433509789462, -11.733433509789466]",11.733433509789462,-11.733433509789464,images/picture_3.png,2,"[11.733433509789464, 11.733433509789462]",11.733433509789464,11.733433509789462,0,1,1,0.9677503360575584,1.9677503360575583,1.0322496639424417,3.0,1,1.7177503360575583,0,4.0,3.0,1,2,3,0,3,0,0,2,2,3,,,,,,,281.1486826670007,281.1486826670007,282.14966287500283,282.86873891700816,283.11619325001084,283.11619325001084,283.11619325001084,284.1497144580062,284.1497144580062,284.1497144580062,284.1497144580062,285.1496188750025,200003,304,2023-04-07_13h18.54.413,DMS_et_12-36,2022.2.4,None,
31,UNPRED,12,0.9677503360575584,1,images/picture_2.png,images/picture_1.png,0,"[11.733433509789462, -11.733433509789466]",11.733433509789462,-11.733433509789464,images/picture_2.png,1,"[-11.733433509789466, -11.733433509789462]",-11.733433509789464,-11.733433509789462,images/picture_3.png,2,"[-11.733433509789462, 11.733433509789464]",-11.733433509789462,11.733433509789464,0,1,1,0.9677503360575584,1.9677503360575583,1.0322496639424417,3.0,1,1.7177503360575583,0,4.0,3.0,1,2,3,0,3,0,0,3,3,4,,,,,,,285.1496188750025,285.1496188750025,286.14973708300386,286.8829871670023,287.1164257920027,287.1164257920027,287.1164257920027,288.1493894580053,288.1493894580053,288.1493894580053,288.1493894580053,289.16860916699807,200003,304,2023-04-07_13h18.54.413,DMS_et_12-36,2022.2.4,None,
27,UNPRED,12,0.9677503360575584,2,images/picture_3.png,images/picture_1.png,0,"[-11.733433509789462, 11.733433509789464]",-11.733433509789462,11.733433509789464,images/picture_2.png,1,"[11.733433509789464, 11.733433509789462]",11.733433509789464,11.733433509789462,images/picture_3.png,2,"[11.733433509789462, -11.733433509789466]",11.733433509789462,-11.733433509789464,0,1,1,0.9677503360575584,1.9677503360575583,1.0322496639424417,3.0,1,1.7177503360575583,0,4.0,3.0,1,2,3,0,3,0,0,4,4,0,,,,,,,289.16860916699807,289.16860916699807,290.18297616700875,290.8829512920056,291.11637150000024,291.11637150000024,291.11637150000024,292.14974895800697,292.14974895800697,292.14974895800697,292.14974895800697,293.15013958299824,200003,304,2023-04-07_13h18.54.413,DMS_et_12-36,2022.2.4,None,
29,UNPRED,12,0.9677503360575584,1,images/picture_2.png,images/picture_1.png,0,"[-11.733433509789462, 11.733433509789464]",-11.733433509789462,11.733433509789464,images/picture_2.png,1,"[-11.733433509789466, -11.733433509789462]",-11.733433509789464,-11.733433509789462,images/picture_3.png,2,"[11.733433509789464, 11.733433509789462]",11.733433509789464,11.733433509789462,0,1,1,0.9677503360575584,1.9677503360575583,1.0322496639424417,3.0,1,1.7177503360575583,0,4.0,3.0,1,2,3,0,3,0,0,5,5,2,,,,,,,293.15013958299824,293.15013958299824,294.1497920420079,294.8829845,295.1162571669993,295.1162571669993,295.1162571669993,296.14971325000806,296.14971325000806,296.14971325000806,296.14971325000806,297.1491704580112,200003,304,2023-04-07_13h18.54.413,DMS_et_12-36,2022.2.4,None,
34,UNPRED,12,0.9677503360575584,0,images/picture_1.png,images/picture_1.png,0,"[-11.733433509789462, 11.733433509789464]",-11.733433509789462,11.733433509789464,images/picture_2.png,1,"[11.733433509789464, 11.733433509789462]",11.733433509789464,11.733433509789462,images/picture_3.png,2,"[11.733433509789462, -11.733433509789466]",11.733433509789462,-11.733433509789464,0,1,1,0.9677503360575584,1.9677503360575583,1.0322496639424417,3.0,1,1.7177503360575583,0,4.0,3.0,1,2,3,0,3,0,0,6,6,7,,,,,,,297.1491704580112,297.1491704580112,298.1493609580066,298.86826237500645,299.1161526670039,299.1161526670039,299.1161526670039,300.14970641701075,300.14970641701075,300.14970641701075,300.14970641701075,301.1683897920011,200003,304,2023-04-07_13h18.54.413,DMS_et_12-36,2022.2.4,None,
28,UNPRED,12,0.9677503360575584,2,images/picture_3.png,images/picture_1.png,0,"[11.733433509789462, -11.733433509789466]",11.733433509789462,-11.733433509789464,images/picture_2.png,1,"[-11.733433509789462, 11.733433509789464]",-11.733433509789462,11.733433509789464,images/picture_3.png,2,"[-11.733433509789466, -11.733433509789462]",-11.733433509789464,-11.733433509789462,0,1,1,0.9677503360575584,1.9677503360575583,1.0322496639424417,3.0,1,1.7177503360575583,0,4.0,3.0,1,2,3,0,3,0,0,7,7,1,,,,,,,301.1683897920011,301.1683897920011,302.1832324999996,302.8829955830006,303.11638033299823,303.11638033299823,303.11638033299823,304.1497190000082,304.1497190000082,304.1497190000082,304.1497190000082,305.1494665420032,200003,304,2023-04-07_13h18.54.413,DMS_et_12-36,2022.2.4,None,
32,UNPRED,12,0.9677503360575584,0,images/picture_1.png,images/picture_1.png,0,"[11.733433509789462, -11.733433509789466]",11.733433509789462,-11.733433509789464,images/picture_2.png,1,"[11.733433509789464, 11.733433509789462]",11.733433509789464,11.733433509789462,images/picture_3.png,2,"[-11.733433509789462, 11.733433509789464]",-11.733433509789462,11.733433509789464,0,1,1,0.9677503360575584,1.9677503360575583,1.0322496639424417,3.0,1,1.7177503360575583,0,4.0,3.0,1,2,3,0,3,0,0,8,8,5,,,,,,,305.1494665420032,305.1494665420032,306.1497161669977,306.8689175830077,307.11642933300755,307.11642933300755,307.11642933300755,308.14971158299886,308.14971158299886,308.14971158299886,308.14971158299886,309.1844565000065,200003,304,2023-04-07_13h18.54.413,DMS_et_12-36,2022.2.4,None,
,,,,,,,,,,,,,,,,,,,,,,,,,,,,,,,,,,,3,0,3,0,,,,,,,,,309.1844565000065,321.20201583299786,,,,,,,,,,,,,200003,304,2023-04-07_13h18.54.413,DMS_et_12-36,2022.2.4,None,
42,PRED,12,0.9677503360575584,1,images/picture_2.png,images/picture_1.png,0,"[11.733433509789462, -11.733433509789466]",11.733433509789462,-11.733433509789464,images/picture_2.png,1,"[11.733433509789464, 11.733433509789462]",11.733433509789464,11.733433509789462,images/picture_3.png,2,"[-11.733433509789466, -11.733433509789462]",-11.733433509789464,-11.733433509789462,0,1,1,0.9677503360575584,1.9677503360575583,1.0322496639424417,3.0,1,1.7177503360575583,0,4.0,3.0,1,2,4,0,4,0,0,0,0,6,,,,,,,321.20201583299786,321.20201583299786,322.21640720800497,322.91623983300815,323.16884891700465,323.16884891700465,323.16884891700465,324.2022602500074,324.2161820830079,324.2161820830079,324.2161820830079,325.2155525420094,200003,304,2023-04-07_13h18.54.413,DMS_et_12-36,2022.2.4,None,
39,PRED,12,0.9677503360575584,1,images/picture_2.png,images/picture_1.png,0,"[11.733433509789464, 11.733433509789462]",11.733433509789464,11.733433509789462,images/picture_2.png,1,"[-11.733433509789462, 11.733433509789464]",-11.733433509789462,11.733433509789464,images/picture_3.png,2,"[11.733433509789462, -11.733433509789466]",11.733433509789462,-11.733433509789464,0,1,1,0.9677503360575584,1.9677503360575583,1.0322496639424417,3.0,1,1.7177503360575583,0,4.0,3.0,1,2,4,0,4,0,0,1,1,3,,,,,,,325.2155525420094,325.2155525420094,326.2161889170093,326.9355974580103,327.1828682080086,327.1828682080086,327.1828682080086,328.2162972500082,328.2162972500082,328.2162972500082,328.2162972500082,329.2158473330055,200003,304,2023-04-07_13h18.54.413,DMS_et_12-36,2022.2.4,None,
44,PRED,12,0.9677503360575584,1,images/picture_2.png,images/picture_1.png,0,"[-11.733433509789462, 11.733433509789464]",-11.733433509789462,11.733433509789464,images/picture_2.png,1,"[11.733433509789464, 11.733433509789462]",11.733433509789464,11.733433509789462,images/picture_3.png,2,"[11.733433509789462, -11.733433509789466]",11.733433509789462,-11.733433509789464,0,1,1,0.9677503360575584,1.9677503360575583,1.0322496639424417,3.0,1,1.7177503360575583,0,4.0,3.0,1,2,4,0,4,0,0,2,2,8,,,,,,,329.2158473330055,329.2158473330055,330.2161834580038,330.93557595800667,331.1827143749979,331.1827143749979,331.1827143749979,332.2161892919976,332.2161892919976,332.2161892919976,332.2161892919976,333.21563387500646,200003,304,2023-04-07_13h18.54.413,DMS_et_12-36,2022.2.4,None,
37,PRED,12,0.9677503360575584,1,images/picture_2.png,images/picture_1.png,0,"[-11.733433509789462, 11.733433509789464]",-11.733433509789462,11.733433509789464,images/picture_2.png,1,"[11.733433509789464, 11.733433509789462]",11.733433509789464,11.733433509789462,images/picture_3.png,2,"[-11.733433509789466, -11.733433509789462]",-11.733433509789464,-11.733433509789462,0,1,1,0.9677503360575584,1.9677503360575583,1.0322496639424417,3.0,1,1.7177503360575583,0,4.0,3.0,1,2,4,0,4,0,0,3,3,1,,,,,,,333.21563387500646,333.21563387500646,334.21620641701156,334.9353907080076,335.18270729199867,335.18270729199867,335.18270729199867,336.2162189579976,336.2162189579976,336.2162189579976,336.2162189579976,337.21588812500704,200003,304,2023-04-07_13h18.54.413,DMS_et_12-36,2022.2.4,None,
43,PRED,12,0.9677503360575584,1,images/picture_2.png,images/picture_1.png,0,"[-11.733433509789466, -11.733433509789462]",-11.733433509789464,-11.733433509789462,images/picture_2.png,1,"[-11.733433509789462, 11.733433509789464]",-11.733433509789462,11.733433509789464,images/picture_3.png,2,"[11.733433509789462, -11.733433509789466]",11.733433509789462,-11.733433509789464,0,1,1,0.9677503360575584,1.9677503360575583,1.0322496639424417,3.0,1,1.7177503360575583,0,4.0,3.0,1,2,4,0,4,0,0,4,4,7,,,,,,,337.21588812500704,337.21588812500704,338.21614995801065,338.9360611250013,339.1825163750036,339.1825163750036,339.1825163750036,340.2159396250063,340.2159396250063,340.2159396250063,340.2159396250063,341.21559083300235,200003,304,2023-04-07_13h18.54.413,DMS_et_12-36,2022.2.4,None,
40,PRED,12,0.9677503360575584,1,images/picture_2.png,images/picture_1.png,0,"[11.733433509789464, 11.733433509789462]",11.733433509789464,11.733433509789462,images/picture_2.png,1,"[-11.733433509789466, -11.733433509789462]",-11.733433509789464,-11.733433509789462,images/picture_3.png,2,"[11.733433509789462, -11.733433509789466]",11.733433509789462,-11.733433509789464,0,1,1,0.9677503360575584,1.9677503360575583,1.0322496639424417,3.0,1,1.7177503360575583,0,4.0,3.0,1,2,4,0,4,0,0,5,5,4,,,,,,,341.21559083300235,341.21559083300235,342.2162035420042,342.9355404579983,343.18273370800307,343.18273370800307,343.18273370800307,344.2161580000102,344.2161580000102,344.2161580000102,344.2161580000102,345.2155200420093,200003,304,2023-04-07_13h18.54.413,DMS_et_12-36,2022.2.4,None,
41,PRED,12,0.9677503360575584,1,images/picture_2.png,images/picture_1.png,0,"[11.733433509789464, 11.733433509789462]",11.733433509789464,11.733433509789462,images/picture_2.png,1,"[-11.733433509789462, 11.733433509789464]",-11.733433509789462,11.733433509789464,images/picture_3.png,2,"[-11.733433509789466, -11.733433509789462]",-11.733433509789464,-11.733433509789462,0,1,1,0.9677503360575584,1.9677503360575583,1.0322496639424417,3.0,1,1.7177503360575583,0,4.0,3.0,1,2,4,0,4,0,0,6,6,5,,,,,,,345.2155200420093,345.2155200420093,346.21615720800764,346.93563274999906,347.1829077919974,347.1829077919974,347.1829077919974,348.21617154200794,348.21617154200794,348.21617154200794,348.21617154200794,349.21546458300145,200003,304,2023-04-07_13h18.54.413,DMS_et_12-36,2022.2.4,None,
38,PRED,12,0.9677503360575584,1,images/picture_2.png,images/picture_1.png,0,"[11.733433509789464, 11.733433509789462]",11.733433509789464,11.733433509789462,images/picture_2.png,1,"[-11.733433509789466, -11.733433509789462]",-11.733433509789464,-11.733433509789462,images/picture_3.png,2,"[11.733433509789462, -11.733433509789466]",11.733433509789462,-11.733433509789464,0,1,1,0.9677503360575584,1.9677503360575583,1.0322496639424417,3.0,1,1.7177503360575583,0,4.0,3.0,1,2,4,0,4,0,0,7,7,2,,,,,,,349.21546458300145,349.21546458300145,350.21582512500754,350.9354180000082,351.182895542006,351.182895542006,351.182895542006,352.21618037500593,352.21618037500593,352.21618037500593,352.21618037500593,353.2155472919985,200003,304,2023-04-07_13h18.54.413,DMS_et_12-36,2022.2.4,None,
36,PRED,12,0.9677503360575584,1,images/picture_2.png,images/picture_1.png,0,"[-11.733433509789462, 11.733433509789464]",-11.733433509789462,11.733433509789464,images/picture_2.png,1,"[11.733433509789464, 11.733433509789462]",11.733433509789464,11.733433509789462,images/picture_3.png,2,"[-11.733433509789466, -11.733433509789462]",-11.733433509789464,-11.733433509789462,0,1,1,0.9677503360575584,1.9677503360575583,1.0322496639424417,3.0,1,1.7177503360575583,0,4.0,3.0,1,2,4,0,4,0,0,8,8,0,,,,,,,353.2155472919985,353.2155472919985,354.2162671670085,354.9354657080112,355.1829187080002,355.1829187080002,355.1829187080002,356.2161864170048,356.2161864170048,356.2161864170048,356.2161864170048,357.2764596670022,200003,304,2023-04-07_13h18.54.413,DMS_et_12-36,2022.2.4,None,
,,,,,,,,,,,,,,,,,,,,,,,,,,,,,,,,,,,4,0,4,0,,,,,,,,,357.2764596670022,369.31309599999804,,,,,,,,,,,,,200003,304,2023-04-07_13h18.54.413,DMS_et_12-36,2022.2.4,None,
45,UNPRED,12,0.9677503360575584,2,images/picture_3.png,images/picture_1.png,0,"[11.733433509789462, -11.733433509789466]",11.733433509789462,-11.733433509789464,images/picture_2.png,1,"[11.733433509789464, 11.733433509789462]",11.733433509789464,11.733433509789462,images/picture_3.png,2,"[-11.733433509789462, 11.733433509789464]",-11.733433509789462,11.733433509789464,0,1,1,0.9677503360575584,1.9677503360575583,1.0322496639424417,3.0,1,1.7177503360575583,0,4.0,3.0,1,2,5,0,5,0,0,0,0,0,,,,,,,369.31309599999804,369.31309599999804,370.3159797920089,371.0348721670016,371.2688084170077,371.2688084170077,371.2688084170077,372.30211225000676,372.3161968750064,372.3161968750064,372.3161968750064,373.33488862500235,200003,304,2023-04-07_13h18.54.413,DMS_et_12-36,2022.2.4,None,
50,UNPRED,12,0.9677503360575584,2,images/picture_3.png,images/picture_1.png,0,"[-11.733433509789462, 11.733433509789464]",-11.733433509789462,11.733433509789464,images/picture_2.png,1,"[-11.733433509789466, -11.733433509789462]",-11.733433509789464,-11.733433509789462,images/picture_3.png,2,"[11.733433509789462, -11.733433509789466]",11.733433509789462,-11.733433509789464,0,1,1,0.9677503360575584,1.9677503360575583,1.0322496639424417,3.0,1,1.7177503360575583,0,4.0,3.0,1,2,5,0,5,0,0,1,1,5,,,,,,,373.33488862500235,373.33488862500235,374.3494622920116,375.04941120800504,375.2827578330034,375.2827578330034,375.2827578330034,376.3162533750001,376.3162533750001,376.3162533750001,376.3162533750001,377.3151932500041,200003,304,2023-04-07_13h18.54.413,DMS_et_12-36,2022.2.4,None,
46,UNPRED,12,0.9677503360575584,0,images/picture_1.png,images/picture_1.png,0,"[11.733433509789462, -11.733433509789466]",11.733433509789462,-11.733433509789464,images/picture_2.png,1,"[-11.733433509789466, -11.733433509789462]",-11.733433509789464,-11.733433509789462,images/picture_3.png,2,"[11.733433509789464, 11.733433509789462]",11.733433509789464,11.733433509789462,0,1,1,0.9677503360575584,1.9677503360575583,1.0322496639424417,3.0,1,1.7177503360575583,0,4.0,3.0,1,2,5,0,5,0,0,2,2,1,,,,,,,377.3151932500041,377.3151932500041,378.31618762500875,379.03516687500814,379.28277087499737,379.28277087499737,379.28277087499737,380.3157802920032,380.3157802920032,380.3157802920032,380.3157802920032,381.3348627920059,200003,304,2023-04-07_13h18.54.413,DMS_et_12-36,2022.2.4,None,
49,UNPRED,12,0.9677503360575584,2,images/picture_3.png,images/picture_1.png,0,"[11.733433509789464, 11.733433509789462]",11.733433509789464,11.733433509789462,images/picture_2.png,1,"[-11.733433509789466, -11.733433509789462]",-11.733433509789464,-11.733433509789462,images/picture_3.png,2,"[11.733433509789462, -11.733433509789466]",11.733433509789462,-11.733433509789464,0,1,1,0.9677503360575584,1.9677503360575583,1.0322496639424417,3.0,1,1.7177503360575583,0,4.0,3.0,1,2,5,0,5,0,0,3,3,4,,,,,,,381.3348627920059,381.3348627920059,382.34947487500904,383.0494380000018,383.2827167080104,383.2827167080104,383.2827167080104,384.3161924580054,384.3161924580054,384.3161924580054,384.3161924580054,385.33493991701107,200003,304,2023-04-07_13h18.54.413,DMS_et_12-36,2022.2.4,None,
53,UNPRED,12,0.9677503360575584,2,images/picture_3.png,images/picture_1.png,0,"[-11.733433509789462, 11.733433509789464]",-11.733433509789462,11.733433509789464,images/picture_2.png,1,"[11.733433509789462, -11.733433509789466]",11.733433509789462,-11.733433509789464,images/picture_3.png,2,"[11.733433509789464, 11.733433509789462]",11.733433509789464,11.733433509789462,0,1,1,0.9677503360575584,1.9677503360575583,1.0322496639424417,3.0,1,1.7177503360575583,0,4.0,3.0,1,2,5,0,5,0,0,4,4,8,,,,,,,385.33493991701107,385.33493991701107,386.34945533300925,387.0494120000076,387.28268874999776,387.28268874999776,387.28268874999776,388.3159655000054,388.3159655000054,388.3159655000054,388.3159655000054,389.31565687499824,200003,304,2023-04-07_13h18.54.413,DMS_et_12-36,2022.2.4,None,
48,UNPRED,12,0.9677503360575584,0,images/picture_1.png,images/picture_1.png,0,"[-11.733433509789466, -11.733433509789462]",-11.733433509789464,-11.733433509789462,images/picture_2.png,1,"[11.733433509789464, 11.733433509789462]",11.733433509789464,11.733433509789462,images/picture_3.png,2,"[11.733433509789462, -11.733433509789466]",11.733433509789462,-11.733433509789464,0,1,1,0.9677503360575584,1.9677503360575583,1.0322496639424417,3.0,1,1.7177503360575583,0,4.0,3.0,1,2,5,0,5,0,0,5,5,3,,,,,,,389.31565687499824,389.31565687499824,390.3158617080044,391.035374708008,391.28263937500014,391.28263937500014,391.28263937500014,392.3161654170108,392.3161654170108,392.3161654170108,392.3161654170108,393.31551383300393,200003,304,2023-04-07_13h18.54.413,DMS_et_12-36,2022.2.4,None,
51,UNPRED,12,0.9677503360575584,0,images/picture_1.png,images/picture_1.png,0,"[11.733433509789462, -11.733433509789466]",11.733433509789462,-11.733433509789464,images/picture_2.png,1,"[-11.733433509789466, -11.733433509789462]",-11.733433509789464,-11.733433509789462,images/picture_3.png,2,"[11.733433509789464, 11.733433509789462]",11.733433509789464,11.733433509789462,0,1,1,0.9677503360575584,1.9677503360575583,1.0322496639424417,3.0,1,1.7177503360575583,0,4.0,3.0,1,2,5,0,5,0,0,6,6,6,,,,,,,393.31551383300393,393.31551383300393,394.31615354200767,395.0355577080045,395.2827387920115,395.2827387920115,395.2827387920115,396.31619650000357,396.31619650000357,396.31619650000357,396.31619650000357,397.3155631670088,200003,304,2023-04-07_13h18.54.413,DMS_et_12-36,2022.2.4,None,
52,UNPRED,12,0.9677503360575584,0,images/picture_1.png,images/picture_1.png,0,"[-11.733433509789462, 11.733433509789464]",-11.733433509789462,11.733433509789464,images/picture_2.png,1,"[11.733433509789464, 11.733433509789462]",11.733433509789464,11.733433509789462,images/picture_3.png,2,"[-11.733433509789466, -11.733433509789462]",-11.733433509789464,-11.733433509789462,0,1,1,0.9677503360575584,1.9677503360575583,1.0322496639424417,3.0,1,1.7177503360575583,0,4.0,3.0,1,2,5,0,5,0,0,7,7,7,,,,,,,397.3155631670088,397.3155631670088,398.3162277500087,399.0355027500045,399.28269654200994,399.28269654200994,399.28269654200994,400.3161568330106,400.3161568330106,400.3161568330106,400.3161568330106,401.31573333300184,200003,304,2023-04-07_13h18.54.413,DMS_et_12-36,2022.2.4,None,
47,UNPRED,12,0.9677503360575584,0,images/picture_1.png,images/picture_1.png,0,"[-11.733433509789462, 11.733433509789464]",-11.733433509789462,11.733433509789464,images/picture_2.png,1,"[11.733433509789462, -11.733433509789466]",11.733433509789462,-11.733433509789464,images/picture_3.png,2,"[11.733433509789464, 11.733433509789462]",11.733433509789464,11.733433509789462,0,1,1,0.9677503360575584,1.9677503360575583,1.0322496639424417,3.0,1,1.7177503360575583,0,4.0,3.0,1,2,5,0,5,0,0,8,8,2,,,,,,,401.31573333300184,401.31573333300184,402.3161340000079,403.0361100000009,403.2827105000033,403.2827105000033,403.2827105000033,404.31618762500875,404.31618762500875,404.31618762500875,404.31618762500875,405.3862518329988,200003,304,2023-04-07_13h18.54.413,DMS_et_12-36,2022.2.4,None,
,,,,,,,,,,,,,,,,,,,,,,,,,,,,,,,,,,,5,0,5,0,,,,,,,,,405.3862518329988,417.46642599999905,,,,,,,,,,,,,200003,304,2023-04-07_13h18.54.413,DMS_et_12-36,2022.2.4,None,
61,PRED,12,0.9677503360575584,1,images/picture_2.png,images/picture_1.png,0,"[11.733433509789462, -11.733433509789466]",11.733433509789462,-11.733433509789464,images/picture_2.png,1,"[11.733433509789464, 11.733433509789462]",11.733433509789464,11.733433509789462,images/picture_3.png,2,"[-11.733433509789466, -11.733433509789462]",-11.733433509789464,-11.733433509789462,0,1,1,0.9677503360575584,1.9677503360575583,1.0322496639424417,3.0,1,1.7177503360575583,0,4.0,3.0,1,2,6,0,6,0,0,0,0,7,,,,,,,417.46642599999905,417.46642599999905,418.4688295000087,419.1830117080099,419.43550716699974,419.43550716699974,419.43550716699974,420.46878608300176,420.4827179170097,420.4827179170097,420.4827179170097,421.4823555000039,200003,304,2023-04-07_13h18.54.413,DMS_et_12-36,2022.2.4,None,
62,PRED,12,0.9677503360575584,1,images/picture_2.png,images/picture_1.png,0,"[11.733433509789462, -11.733433509789466]",11.733433509789462,-11.733433509789464,images/picture_2.png,1,"[11.733433509789464, 11.733433509789462]",11.733433509789464,11.733433509789462,images/picture_3.png,2,"[-11.733433509789466, -11.733433509789462]",-11.733433509789464,-11.733433509789462,0,1,1,0.9677503360575584,1.9677503360575583,1.0322496639424417,3.0,1,1.7177503360575583,0,4.0,3.0,1,2,6,0,6,0,0,1,1,8,,,,,,,421.4823555000039,421.4823555000039,422.4827724170027,423.2018765420071,423.4494657500036,423.4494657500036,423.4494657500036,424.4829164170078,424.4829164170078,424.4829164170078,424.4829164170078,425.48230937500193,200003,304,2023-04-07_13h18.54.413,DMS_et_12-36,2022.2.4,None,
55,PRED,12,0.9677503360575584,1,images/picture_2.png,images/picture_1.png,0,"[11.733433509789464, 11.733433509789462]",11.733433509789464,11.733433509789462,images/picture_2.png,1,"[11.733433509789462, -11.733433509789466]",11.733433509789462,-11.733433509789464,images/picture_3.png,2,"[-11.733433509789466, -11.733433509789462]",-11.733433509789464,-11.733433509789462,0,1,1,0.9677503360575584,1.9677503360575583,1.0322496639424417,3.0,1,1.7177503360575583,0,4.0,3.0,1,2,6,0,6,0,0,2,2,1,,,,,,,425.48230937500193,425.48230937500193,426.48269058299775,427.20213341699855,427.4494259170024,427.4494259170024,427.4494259170024,428.48289900000964,428.48289900000964,428.48289900000964,428.48289900000964,429.48223704200063,200003,304,2023-04-07_13h18.54.413,DMS_et_12-36,2022.2.4,None,
59,PRED,12,0.9677503360575584,1,images/picture_2.png,images/picture_1.png,0,"[11.733433509789462, -11.733433509789466]",11.733433509789462,-11.733433509789464,images/picture_2.png,1,"[11.733433509789464, 11.733433509789462]",11.733433509789464,11.733433509789462,images/picture_3.png,2,"[-11.733433509789462, 11.733433509789464]",-11.733433509789462,11.733433509789464,0,1,1,0.9677503360575584,1.9677503360575583,1.0322496639424417,3.0,1,1.7177503360575583,0,4.0,3.0,1,2,6,0,6,0,0,3,3,5,,,,,,,429.48223704200063,429.48223704200063,430.4827173329977,431.20197991700843,431.4492845000059,431.4492845000059,431.4492845000059,432.4827390420105,432.4827390420105,432.4827390420105,432.4827390420105,433.4828513750108,200003,304,2023-04-07_13h18.54.413,DMS_et_12-36,2022.2.4,None,
57,PRED,12,0.9677503360575584,1,images/picture_2.png,images/picture_1.png,0,"[11.733433509789462, -11.733433509789466]",11.733433509789462,-11.733433509789464,images/picture_2.png,1,"[-11.733433509789462, 11.733433509789464]",-11.733433509789462,11.733433509789464,images/picture_3.png,2,"[11.733433509789464, 11.733433509789462]",11.733433509789464,11.733433509789462,0,1,1,0.9677503360575584,1.9677503360575583,1.0322496639424417,3.0,1,1.7177503360575583,0,4.0,3.0,1,2,6,0,6,0,0,4,4,3,,,,,,,433.4828513750108,433.4828513750108,434.4830339580076,435.21618379199936,435.44948250000016,435.44948250000016,435.44948250000016,436.4827569580084,436.4827569580084,436.4827569580084,436.4827569580084,437.48234216700075,200003,304,2023-04-07_13h18.54.413,DMS_et_12-36,2022.2.4,None,
56,PRED,12,0.9677503360575584,1,images/picture_2.png,images/picture_1.png,0,"[11.733433509789462, -11.733433509789466]",11.733433509789462,-11.733433509789464,images/picture_2.png,1,"[-11.733433509789466, -11.733433509789462]",-11.733433509789464,-11.733433509789462,images/picture_3.png,2,"[-11.733433509789462, 11.733433509789464]",-11.733433509789462,11.733433509789464,0,1,1,0.9677503360575584,1.9677503360575583,1.0322496639424417,3.0,1,1.7177503360575583,0,4.0,3.0,1,2,6,0,6,0,0,5,5,2,,,,,,,437.48234216700075,437.48234216700075,438.48281212500297,439.20216825000534,439.4494016670069,439.4494016670069,439.4494016670069,440.4828656250029,440.4828656250029,440.4828656250029,440.4828656250029,441.482276833005,200003,304,2023-04-07_13h18.54.413,DMS_et_12-36,2022.2.4,None,
58,PRED,12,0.9677503360575584,1,images/picture_2.png,images/picture_1.png,0,"[11.733433509789464, 11.733433509789462]",11.733433509789464,11.733433509789462,images/picture_2.png,1,"[11.733433509789462, -11.733433509789466]",11.733433509789462,-11.733433509789464,images/picture_3.png,2,"[-11.733433509789462, 11.733433509789464]",-11.733433509789462,11.733433509789464,0,1,1,0.9677503360575584,1.9677503360575583,1.0322496639424417,3.0,1,1.7177503360575583,0,4.0,3.0,1,2,6,0,6,0,0,6,6,4,,,,,,,441.482276833005,441.482276833005,442.48252345800574,443.2019891670061,443.44962708299863,443.44962708299863,443.44962708299863,444.482917833011,444.482917833011,444.482917833011,444.482917833011,445.48226854200766,200003,304,2023-04-07_13h18.54.413,DMS_et_12-36,2022.2.4,None,
54,PRED,12,0.9677503360575584,1,images/picture_2.png,images/picture_1.png,0,"[-11.733433509789462, 11.733433509789464]",-11.733433509789462,11.733433509789464,images/picture_2.png,1,"[-11.733433509789466, -11.733433509789462]",-11.733433509789464,-11.733433509789462,images/picture_3.png,2,"[11.733433509789462, -11.733433509789466]",11.733433509789462,-11.733433509789464,0,1,1,0.9677503360575584,1.9677503360575583,1.0322496639424417,3.0,1,1.7177503360575583,0,4.0,3.0,1,2,6,0,6,0,0,7,7,0,,,,,,,445.48226854200766,445.48226854200766,446.48283620800066,447.20191120800155,447.44940137500816,447.44940137500816,447.44940137500816,448.4830176670075,448.4830176670075,448.4830176670075,448.4830176670075,449.4822854170052,200003,304,2023-04-07_13h18.54.413,DMS_et_12-36,2022.2.4,None,
60,PRED,12,0.9677503360575584,1,images/picture_2.png,images/picture_1.png,0,"[-11.733433509789466, -11.733433509789462]",-11.733433509789464,-11.733433509789462,images/picture_2.png,1,"[11.733433509789462, -11.733433509789466]",11.733433509789462,-11.733433509789464,images/picture_3.png,2,"[-11.733433509789462, 11.733433509789464]",-11.733433509789462,11.733433509789464,0,1,1,0.9677503360575584,1.9677503360575583,1.0322496639424417,3.0,1,1.7177503360575583,0,4.0,3.0,1,2,6,0,6,0,0,8,8,6,,,,,,,449.4822854170052,449.4822854170052,450.4828982500039,451.20200874999864,451.44939675000205,451.44939675000205,451.44939675000205,452.4829113330052,452.4829113330052,452.4829113330052,452.4829113330052,453.5674662079982,200003,304,2023-04-07_13h18.54.413,DMS_et_12-36,2022.2.4,None,
,,,,,,,,,,,,,,,,,,,,,,,,,,,,,,,,,,,6,0,6,0,,,,,,,,,453.5674662079982,465.6119547920098,,,,,,,,,,,,,200003,304,2023-04-07_13h18.54.413,DMS_et_12-36,2022.2.4,None,
68,UNPRED,12,0.9677503360575584,2,images/picture_3.png,images/picture_1.png,0,"[-11.733433509789462, 11.733433509789464]",-11.733433509789462,11.733433509789464,images/picture_2.png,1,"[11.733433509789464, 11.733433509789462]",11.733433509789464,11.733433509789462,images/picture_3.png,2,"[11.733433509789462, -11.733433509789466]",11.733433509789462,-11.733433509789464,0,1,1,0.9677503360575584,1.9677503360575583,1.0322496639424417,3.0,1,1.7177503360575583,0,4.0,3.0,1,2,7,0,7,0,0,0,0,5,,,,,,,465.6119547920098,465.6119547920098,466.6162805000058,467.33546770800604,467.5688744170038,467.5688744170038,467.5688744170038,468.6021805420023,468.6161762920092,468.6161762920092,468.6161762920092,469.6168547920097,200003,304,2023-04-07_13h18.54.413,DMS_et_12-36,2022.2.4,None,
63,UNPRED,12,0.9677503360575584,0,images/picture_1.png,images/picture_1.png,0,"[-11.733433509789462, 11.733433509789464]",-11.733433509789462,11.733433509789464,images/picture_2.png,1,"[-11.733433509789466, -11.733433509789462]",-11.733433509789464,-11.733433509789462,images/picture_3.png,2,"[11.733433509789464, 11.733433509789462]",11.733433509789464,11.733433509789462,0,1,1,0.9677503360575584,1.9677503360575583,1.0322496639424417,3.0,1,1.7177503360575583,0,4.0,3.0,1,2,7,0,7,0,0,1,1,0,,,,,,,469.6168547920097,469.6168547920097,470.61620912500075,471.3494326670043,471.58292775000155,471.58292775000155,471.58292775000155,472.61578470800305,472.61578470800305,472.61578470800305,472.61578470800305,473.61562774999766,200003,304,2023-04-07_13h18.54.413,DMS_et_12-36,2022.2.4,None,
66,UNPRED,12,0.9677503360575584,0,images/picture_1.png,images/picture_1.png,0,"[-11.733433509789462, 11.733433509789464]",-11.733433509789462,11.733433509789464,images/picture_2.png,1,"[11.733433509789464, 11.733433509789462]",11.733433509789464,11.733433509789462,images/picture_3.png,2,"[11.733433509789462, -11.733433509789466]",11.733433509789462,-11.733433509789464,0,1,1,0.9677503360575584,1.9677503360575583,1.0322496639424417,3.0,1,1.7177503360575583,0,4.0,3.0,1,2,7,0,7,0,0,2,2,3,,,,,,,473.61562774999766,473.61562774999766,474.61626620800234,475.3353934170009,475.5826981670107,475.5826981670107,475.5826981670107,476.61618483300845,476.61618483300845,476.61618483300845,476.61618483300845,477.6356160830037,200003,304,2023-04-07_13h18.54.413,DMS_et_12-36,2022.2.4,None,
67,UNPRED,12,0.9677503360575584,1,images/picture_2.png,images/picture_1.png,0,"[-11.733433509789462, 11.733433509789464]",-11.733433509789462,11.733433509789464,images/picture_2.png,1,"[11.733433509789462, -11.733433509789466]",11.733433509789462,-11.733433509789464,images/picture_3.png,2,"[11.733433509789464, 11.733433509789462]",11.733433509789464,11.733433509789462,0,1,1,0.9677503360575584,1.9677503360575583,1.0322496639424417,3.0,1,1.7177503360575583,0,4.0,3.0,1,2,7,0,7,0,0,3,3,4,,,,,,,477.6356160830037,477.6356160830037,478.6494478750101,479.3688633330021,479.5828818750015,479.5828818750015,479.5828818750015,480.61618454199925,480.61618454199925,480.61618454199925,480.61618454199925,481.615080625008,200003,304,2023-04-07_13h18.54.413,DMS_et_12-36,2022.2.4,None,
65,UNPRED,12,0.9677503360575584,1,images/picture_2.png,images/picture_1.png,0,"[11.733433509789462, -11.733433509789466]",11.733433509789462,-11.733433509789464,images/picture_2.png,1,"[11.733433509789464, 11.733433509789462]",11.733433509789464,11.733433509789462,images/picture_3.png,2,"[-11.733433509789462, 11.733433509789464]",-11.733433509789462,11.733433509789464,0,1,1,0.9677503360575584,1.9677503360575583,1.0322496639424417,3.0,1,1.7177503360575583,0,4.0,3.0,1,2,7,0,7,0,0,4,4,2,,,,,,,481.615080625008,481.615080625008,482.6158569170075,483.33468183300283,483.58251904200006,483.58251904200006,483.58251904200006,484.6161948329973,484.6161948329973,484.6161948329973,484.6161948329973,485.6158284580015,200003,304,2023-04-07_13h18.54.413,DMS_et_12-36,2022.2.4,None,
71,UNPRED,12,0.9677503360575584,1,images/picture_2.png,images/picture_1.png,0,"[-11.733433509789466, -11.733433509789462]",-11.733433509789464,-11.733433509789462,images/picture_2.png,1,"[11.733433509789464, 11.733433509789462]",11.733433509789464,11.733433509789462,images/picture_3.png,2,"[11.733433509789462, -11.733433509789466]",11.733433509789462,-11.733433509789464,0,1,1,0.9677503360575584,1.9677503360575583,1.0322496639424417,3.0,1,1.7177503360575583,0,4.0,3.0,1,2,7,0,7,0,0,5,5,8,,,,,,,485.6158284580015,485.6158284580015,486.616213833011,487.33540312500554,487.5826874580089,487.5826874580089,487.5826874580089,488.61618166700646,488.61618166700646,488.61618166700646,488.61618166700646,489.61510687500413,200003,304,2023-04-07_13h18.54.413,DMS_et_12-36,2022.2.4,None,
69,UNPRED,12,0.9677503360575584,0,images/picture_1.png,images/picture_1.png,0,"[11.733433509789464, 11.733433509789462]",11.733433509789464,11.733433509789462,images/picture_2.png,1,"[-11.733433509789462, 11.733433509789464]",-11.733433509789462,11.733433509789464,images/picture_3.png,2,"[-11.733433509789466, -11.733433509789462]",-11.733433509789464,-11.733433509789462,0,1,1,0.9677503360575584,1.9677503360575583,1.0322496639424417,3.0,1,1.7177503360575583,0,4.0,3.0,1,2,7,0,7,0,0,6,6,6,,,,,,,489.61510687500413,489.61510687500413,490.6161653330055,491.3353133750061,491.58296645800874,491.58296645800874,491.58296645800874,492.6162097080087,492.6162097080087,492.6162097080087,492.6162097080087,493.61569441700703,200003,304,2023-04-07_13h18.54.413,DMS_et_12-36,2022.2.4,None,
64,UNPRED,12,0.9677503360575584,1,images/picture_2.png,images/picture_1.png,0,"[11.733433509789462, -11.733433509789466]",11.733433509789462,-11.733433509789464,images/picture_2.png,1,"[-11.733433509789462, 11.733433509789464]",-11.733433509789462,11.733433509789464,images/picture_3.png,2,"[11.733433509789464, 11.733433509789462]",11.733433509789464,11.733433509789462,0,1,1,0.9677503360575584,1.9677503360575583,1.0322496639424417,3.0,1,1.7177503360575583,0,4.0,3.0,1,2,7,0,7,0,0,7,7,1,,,,,,,493.61569441700703,493.61569441700703,494.61619983300625,495.3355152919976,495.5827485000045,495.5827485000045,495.5827485000045,496.61615225000423,496.61615225000423,496.61615225000423,496.61615225000423,497.6156276670081,200003,304,2023-04-07_13h18.54.413,DMS_et_12-36,2022.2.4,None,
70,UNPRED,12,0.9677503360575584,1,images/picture_2.png,images/picture_1.png,0,"[-11.733433509789466, -11.733433509789462]",-11.733433509789464,-11.733433509789462,images/picture_2.png,1,"[11.733433509789462, -11.733433509789466]",11.733433509789462,-11.733433509789464,images/picture_3.png,2,"[11.733433509789464, 11.733433509789462]",11.733433509789464,11.733433509789462,0,1,1,0.9677503360575584,1.9677503360575583,1.0322496639424417,3.0,1,1.7177503360575583,0,4.0,3.0,1,2,7,0,7,0,0,8,8,7,,,,,,,497.6156276670081,497.6156276670081,498.61624524999934,499.3349359170097,499.58271558300476,499.58271558300476,499.58271558300476,500.6161203329975,500.6161203329975,500.6161203329975,500.6161203329975,501.70764054200845,200003,304,2023-04-07_13h18.54.413,DMS_et_12-36,2022.2.4,None,
,,,,,,,,,,,,,,,,,,,,,,,,,,,,,,,,,,,7,0,7,0,,,,,,,,,501.70764054200845,513.7347647499992,,,,,,,,,,,,,200003,304,2023-04-07_13h18.54.413,DMS_et_12-36,2022.2.4,None,
77,PRED,12,0.9677503360575584,0,images/picture_1.png,images/picture_1.png,0,"[-11.733433509789462, 11.733433509789464]",-11.733433509789462,11.733433509789464,images/picture_2.png,1,"[-11.733433509789466, -11.733433509789462]",-11.733433509789464,-11.733433509789462,images/picture_3.png,2,"[11.733433509789464, 11.733433509789462]",11.733433509789464,11.733433509789462,0,1,1,0.9677503360575584,1.9677503360575583,1.0322496639424417,3.0,1,1.7177503360575583,0,4.0,3.0,1,2,8,0,8,0,0,0,0,5,,,,,,,513.7347647499992,513.7347647499992,514.7494757920067,515.4682173750043,515.6829333750065,515.6829333750065,515.6829333750065,516.716160750002,516.716160750002,516.716160750002,516.716160750002,517.7156717920006,200003,304,2023-04-07_13h18.54.413,DMS_et_12-36,2022.2.4,None,
78,PRED,12,0.9677503360575584,0,images/picture_1.png,images/picture_1.png,0,"[-11.733433509789466, -11.733433509789462]",-11.733433509789464,-11.733433509789462,images/picture_2.png,1,"[11.733433509789462, -11.733433509789466]",11.733433509789462,-11.733433509789464,images/picture_3.png,2,"[-11.733433509789462, 11.733433509789464]",-11.733433509789462,11.733433509789464,0,1,1,0.9677503360575584,1.9677503360575583,1.0322496639424417,3.0,1,1.7177503360575583,0,4.0,3.0,1,2,8,0,8,0,0,1,1,6,,,,,,,517.7156717920006,517.7156717920006,518.7161830420082,519.4354357920092,519.6827356249996,519.6827356249996,519.6827356249996,520.7161412080022,520.7161412080022,520.7161412080022,520.7161412080022,521.7158530419983,200003,304,2023-04-07_13h18.54.413,DMS_et_12-36,2022.2.4,None,
76,PRED,12,0.9677503360575584,0,images/picture_1.png,images/picture_1.png,0,"[-11.733433509789462, 11.733433509789464]",-11.733433509789462,11.733433509789464,images/picture_2.png,1,"[11.733433509789464, 11.733433509789462]",11.733433509789464,11.733433509789462,images/picture_3.png,2,"[-11.733433509789466, -11.733433509789462]",-11.733433509789464,-11.733433509789462,0,1,1,0.9677503360575584,1.9677503360575583,1.0322496639424417,3.0,1,1.7177503360575583,0,4.0,3.0,1,2,8,0,8,0,0,2,2,4,,,,,,,521.7158530419983,521.7158530419983,522.7162886669976,523.4351839169976,523.6826308750024,523.6826308750024,523.6826308750024,524.7159986670013,524.7159986670013,524.7159986670013,524.7159986670013,525.7155572500051,200003,304,2023-04-07_13h18.54.413,DMS_et_12-36,2022.2.4,None,
75,PRED,12,0.9677503360575584,0,images/picture_1.png,images/picture_1.png,0,"[-11.733433509789462, 11.733433509789464]",-11.733433509789462,11.733433509789464,images/picture_2.png,1,"[11.733433509789464, 11.733433509789462]",11.733433509789464,11.733433509789462,images/picture_3.png,2,"[-11.733433509789466, -11.733433509789462]",-11.733433509789464,-11.733433509789462,0,1,1,0.9677503360575584,1.9677503360575583,1.0322496639424417,3.0,1,1.7177503360575583,0,4.0,3.0,1,2,8,0,8,0,0,3,3,3,,,,,,,525.7155572500051,525.7155572500051,526.7162160000007,527.4354589580034,527.6828844580014,527.6828844580014,527.6828844580014,528.716169708001,528.716169708001,528.716169708001,528.716169708001,529.7156445420114,200003,304,2023-04-07_13h18.54.413,DMS_et_12-36,2022.2.4,None,
74,PRED,12,0.9677503360575584,0,images/picture_1.png,images/picture_1.png,0,"[-11.733433509789466, -11.733433509789462]",-11.733433509789464,-11.733433509789462,images/picture_2.png,1,"[11.733433509789464, 11.733433509789462]",11.733433509789464,11.733433509789462,images/picture_3.png,2,"[11.733433509789462, -11.733433509789466]",11.733433509789462,-11.733433509789464,0,1,1,0.9677503360575584,1.9677503360575583,1.0322496639424417,3.0,1,1.7177503360575583,0,4.0,3.0,1,2,8,0,8,0,0,4,4,2,,,,,,,529.7156445420114,529.7156445420114,530.7163147920073,531.4352845829999,531.6827673750086,531.6827673750086,531.6827673750086,532.7161537080101,532.7161537080101,532.7161537080101,532.7161537080101,533.7158429999981,200003,304,2023-04-07_13h18.54.413,DMS_et_12-36,2022.2.4,None,
80,PRED,12,0.9677503360575584,0,images/picture_1.png,images/picture_1.png,0,"[-11.733433509789462, 11.733433509789464]",-11.733433509789462,11.733433509789464,images/picture_2.png,1,"[11.733433509789464, 11.733433509789462]",11.733433509789464,11.733433509789462,images/picture_3.png,2,"[11.733433509789462, -11.733433509789466]",11.733433509789462,-11.733433509789464,0,1,1,0.9677503360575584,1.9677503360575583,1.0322496639424417,3.0,1,1.7177503360575583,0,4.0,3.0,1,2,8,0,8,0,0,5,5,8,,,,,,,533.7158429999981,533.7158429999981,534.7158353330015,535.4352245000046,535.6827160000103,535.6827160000103,535.6827160000103,536.7162009580061,536.7162009580061,536.7162009580061,536.7162009580061,537.7155719170114,200003,304,2023-04-07_13h18.54.413,DMS_et_12-36,2022.2.4,None,
73,PRED,12,0.9677503360575584,0,images/picture_1.png,images/picture_1.png,0,"[11.733433509789464, 11.733433509789462]",11.733433509789464,11.733433509789462,images/picture_2.png,1,"[11.733433509789462, -11.733433509789466]",11.733433509789462,-11.733433509789464,images/picture_3.png,2,"[-11.733433509789462, 11.733433509789464]",-11.733433509789462,11.733433509789464,0,1,1,0.9677503360575584,1.9677503360575583,1.0322496639424417,3.0,1,1.7177503360575583,0,4.0,3.0,1,2,8,0,8,0,0,6,6,1,,,,,,,537.7155719170114,537.7155719170114,538.7161395830044,539.4355301250034,539.6829864580068,539.6829864580068,539.6829864580068,540.7161688330089,540.7161688330089,540.7161688330089,540.7161688330089,541.7155742920004,200003,304,2023-04-07_13h18.54.413,DMS_et_12-36,2022.2.4,None,
79,PRED,12,0.9677503360575584,0,images/picture_1.png,images/picture_1.png,0,"[-11.733433509789466, -11.733433509789462]",-11.733433509789464,-11.733433509789462,images/picture_2.png,1,"[-11.733433509789462, 11.733433509789464]",-11.733433509789462,11.733433509789464,images/picture_3.png,2,"[11.733433509789462, -11.733433509789466]",11.733433509789462,-11.733433509789464,0,1,1,0.9677503360575584,1.9677503360575583,1.0322496639424417,3.0,1,1.7177503360575583,0,4.0,3.0,1,2,8,0,8,0,0,7,7,7,,,,,,,541.7155742920004,541.7155742920004,542.7162955420063,543.4353859170078,543.6827520000079,543.6827520000079,543.6827520000079,544.7158260830038,544.7158260830038,544.7158260830038,544.7158260830038,545.7155785000068,200003,304,2023-04-07_13h18.54.413,DMS_et_12-36,2022.2.4,None,
72,PRED,12,0.9677503360575584,0,images/picture_1.png,images/picture_1.png,0,"[-11.733433509789466, -11.733433509789462]",-11.733433509789464,-11.733433509789462,images/picture_2.png,1,"[11.733433509789462, -11.733433509789466]",11.733433509789462,-11.733433509789464,images/picture_3.png,2,"[-11.733433509789462, 11.733433509789464]",-11.733433509789462,11.733433509789464,0,1,1,0.9677503360575584,1.9677503360575583,1.0322496639424417,3.0,1,1.7177503360575583,0,4.0,3.0,1,2,8,0,8,0,0,8,8,0,,,,,,,545.7155785000068,545.7155785000068,546.716230792008,547.4354055830045,547.6829021669982,547.6829021669982,547.6829021669982,548.7161779169983,548.7161779169983,548.7161779169983,548.7161779169983,549.8140741250099,200003,304,2023-04-07_13h18.54.413,DMS_et_12-36,2022.2.4,None,
,,,,,,,,,,,,,,,,,,,,,,,,,,,,,,,,,,,8,0,8,0,,,,,,,,,549.8140741250099,561.8399991670012,,,,,,,,,,,,,200003,304,2023-04-07_13h18.54.413,DMS_et_12-36,2022.2.4,None,
89,UNPRED,12,0.9677503360575584,0,images/picture_1.png,images/picture_1.png,0,"[11.733433509789464, 11.733433509789462]",11.733433509789464,11.733433509789462,images/picture_2.png,1,"[-11.733433509789466, -11.733433509789462]",-11.733433509789464,-11.733433509789462,images/picture_3.png,2,"[-11.733433509789462, 11.733433509789464]",-11.733433509789462,11.733433509789464,0,1,1,0.9677503360575584,1.9677503360575583,1.0322496639424417,3.0,1,1.7177503360575583,0,4.0,3.0,1,2,9,0,9,0,0,0,0,8,,,,,,,561.8399991670012,561.8399991670012,562.8494362080091,563.5694203750027,563.8024574169976,563.8024574169976,563.8024574169976,564.834622667011,564.8494769579993,564.8494769579993,564.8494769579993,565.8681062920077,200003,304,2023-04-07_13h18.54.413,DMS_et_12-36,2022.2.4,None,
86,UNPRED,12,0.9677503360575584,2,images/picture_3.png,images/picture_1.png,0,"[11.733433509789462, -11.733433509789466]",11.733433509789462,-11.733433509789464,images/picture_2.png,1,"[-11.733433509789466, -11.733433509789462]",-11.733433509789464,-11.733433509789462,images/picture_3.png,2,"[11.733433509789464, 11.733433509789462]",11.733433509789464,11.733433509789462,0,1,1,0.9677503360575584,1.9677503360575583,1.0322496639424417,3.0,1,1.7177503360575583,0,4.0,3.0,1,2,9,0,9,0,0,1,1,5,,,,,,,565.8681062920077,565.8681062920077,566.882858500001,567.5827053750108,567.8161633749987,567.8161633749987,567.8161633749987,568.8495558330033,568.8495558330033,568.8495558330033,568.8495558330033,569.8679937080014,200003,304,2023-04-07_13h18.54.413,DMS_et_12-36,2022.2.4,None,
85,UNPRED,12,0.9677503360575584,2,images/picture_3.png,images/picture_1.png,0,"[11.733433509789464, 11.733433509789462]",11.733433509789464,11.733433509789462,images/picture_2.png,1,"[-11.733433509789462, 11.733433509789464]",-11.733433509789462,11.733433509789464,images/picture_3.png,2,"[-11.733433509789466, -11.733433509789462]",-11.733433509789464,-11.733433509789462,0,1,1,0.9677503360575584,1.9677503360575583,1.0322496639424417,3.0,1,1.7177503360575583,0,4.0,3.0,1,2,9,0,9,0,0,2,2,4,,,,,,,569.8679937080014,569.8679937080014,570.8827026670042,571.5828938330087,571.8161328330025,571.8161328330025,571.8161328330025,572.8494676249975,572.8494676249975,572.8494676249975,572.8494676249975,573.8681780000043,200003,304,2023-04-07_13h18.54.413,DMS_et_12-36,2022.2.4,None,
83,UNPRED,12,0.9677503360575584,2,images/picture_3.png,images/picture_1.png,0,"[11.733433509789462, -11.733433509789466]",11.733433509789462,-11.733433509789464,images/picture_2.png,1,"[11.733433509789464, 11.733433509789462]",11.733433509789464,11.733433509789462,images/picture_3.png,2,"[-11.733433509789466, -11.733433509789462]",-11.733433509789464,-11.733433509789462,0,1,1,0.9677503360575584,1.9677503360575583,1.0322496639424417,3.0,1,1.7177503360575583,0,4.0,3.0,1,2,9,0,9,0,0,3,3,2,,,,,,,573.8681780000043,573.8681780000043,574.8828138750105,575.6013311670104,575.8159218750079,575.8159218750079,575.8159218750079,576.849424333006,576.849424333006,576.849424333006,576.849424333006,577.8684740000026,200003,304,2023-04-07_13h18.54.413,DMS_et_12-36,2022.2.4,None,
81,UNPRED,12,0.9677503360575584,0,images/picture_1.png,images/picture_1.png,0,"[-11.733433509789466, -11.733433509789462]",-11.733433509789464,-11.733433509789462,images/picture_2.png,1,"[11.733433509789464, 11.733433509789462]",11.733433509789464,11.733433509789462,images/picture_3.png,2,"[11.733433509789462, -11.733433509789466]",11.733433509789462,-11.733433509789464,0,1,1,0.9677503360575584,1.9677503360575583,1.0322496639424417,3.0,1,1.7177503360575583,0,4.0,3.0,1,2,9,0,9,0,0,4,4,0,,,,,,,577.8684740000026,577.8684740000026,578.8827221670072,579.6021330829972,579.8161899170082,579.8161899170082,579.8161899170082,580.8494946249994,580.8494946249994,580.8494946249994,580.8494946249994,581.8506455419993,200003,304,2023-04-07_13h18.54.413,DMS_et_12-36,2022.2.4,None,
87,UNPRED,12,0.9677503360575584,1,images/picture_2.png,images/picture_1.png,0,"[-11.733433509789466, -11.733433509789462]",-11.733433509789464,-11.733433509789462,images/picture_2.png,1,"[11.733433509789462, -11.733433509789466]",11.733433509789462,-11.733433509789464,images/picture_3.png,2,"[-11.733433509789462, 11.733433509789464]",-11.733433509789462,11.733433509789464,0,1,1,0.9677503360575584,1.9677503360575583,1.0322496639424417,3.0,1,1.7177503360575583,0,4.0,3.0,1,2,9,0,9,0,0,5,5,6,,,,,,,581.8506455419993,581.8506455419993,582.849534042005,583.5830146250082,583.8161410830071,583.8161410830071,583.8161410830071,584.8494951250032,584.8494951250032,584.8494951250032,584.8494951250032,585.8491423750093,200003,304,2023-04-07_13h18.54.413,DMS_et_12-36,2022.2.4,None,
82,UNPRED,12,0.9677503360575584,1,images/picture_2.png,images/picture_1.png,0,"[11.733433509789464, 11.733433509789462]",11.733433509789464,11.733433509789462,images/picture_2.png,1,"[-11.733433509789462, 11.733433509789464]",-11.733433509789462,11.733433509789464,images/picture_3.png,2,"[-11.733433509789466, -11.733433509789462]",-11.733433509789464,-11.733433509789462,0,1,1,0.9677503360575584,1.9677503360575583,1.0322496639424417,3.0,1,1.7177503360575583,0,4.0,3.0,1,2,9,0,9,0,0,6,6,1,,,,,,,585.8491423750093,585.8491423750093,586.849496750001,587.5688990000053,587.8161567920033,587.8161567920033,587.8161567920033,588.8494978329982,588.8494978329982,588.8494978329982,588.8494978329982,589.8489282500086,200003,304,2023-04-07_13h18.54.413,DMS_et_12-36,2022.2.4,None,
88,UNPRED,12,0.9677503360575584,1,images/picture_2.png,images/picture_1.png,0,"[11.733433509789462, -11.733433509789466]",11.733433509789462,-11.733433509789464,images/picture_2.png,1,"[-11.733433509789466, -11.733433509789462]",-11.733433509789464,-11.733433509789462,images/picture_3.png,2,"[11.733433509789464, 11.733433509789462]",11.733433509789464,11.733433509789462,0,1,1,0.9677503360575584,1.9677503360575583,1.0322496639424417,3.0,1,1.7177503360575583,0,4.0,3.0,1,2,9,0,9,0,0,7,7,7,,,,,,,589.8489282500086,589.8489282500086,590.8494245000038,591.5687233750068,591.8161437920062,591.8161437920062,591.8161437920062,592.8494638330012,592.8494638330012,592.8494638330012,592.8494638330012,593.8500239170098,200003,304,2023-04-07_13h18.54.413,DMS_et_12-36,2022.2.4,None,
84,UNPRED,12,0.9677503360575584,1,images/picture_2.png,images/picture_1.png,0,"[-11.733433509789466, -11.733433509789462]",-11.733433509789464,-11.733433509789462,images/picture_2.png,1,"[-11.733433509789462, 11.733433509789464]",-11.733433509789462,11.733433509789464,images/picture_3.png,2,"[11.733433509789464, 11.733433509789462]",11.733433509789464,11.733433509789462,0,1,1,0.9677503360575584,1.9677503360575583,1.0322496639424417,3.0,1,1.7177503360575583,0,4.0,3.0,1,2,9,0,9,0,0,8,8,3,,,,,,,593.8500239170098,593.8500239170098,594.8492985830089,595.5827192080033,595.8157588330068,595.8157588330068,595.8157588330068,596.8494990830077,596.8494990830077,596.8494990830077,596.8494990830077,597.9524780000065,200003,304,2023-04-07_13h18.54.413,DMS_et_12-36,2022.2.4,None,
,,,,,,,,,,,,,,,,,,,,,,,,,,,,,,,,,,,9,0,9,0,,,,,,,,,597.9524780000065,610.0260732919996,,,,,,,,,,,,,200003,304,2023-04-07_13h18.54.413,DMS_et_12-36,2022.2.4,None,
97,PRED,12,0.9677503360575584,1,images/picture_2.png,images/picture_1.png,0,"[11.733433509789464, 11.733433509789462]",11.733433509789464,11.733433509789462,images/picture_2.png,1,"[-11.733433509789466, -11.733433509789462]",-11.733433509789464,-11.733433509789462,images/picture_3.png,2,"[-11.733433509789462, 11.733433509789464]",-11.733433509789462,11.733433509789464,0,1,1,0.9677503360575584,1.9677503360575583,1.0322496639424417,3.0,1,1.7177503360575583,0,4.0,3.0,1,2,10,0,10,0,0,0,0,7,,,,,,,610.0260732919996,610.0260732919996,611.0350136250054,611.7494180420035,611.9825649999984,611.9825649999984,611.9825649999984,613.0163246250013,613.0163246250013,613.0163246250013,613.0163246250013,614.015589542003,200003,304,2023-04-07_13h18.54.413,DMS_et_12-36,2022.2.4,None,
90,PRED,12,0.9677503360575584,1,images/picture_2.png,images/picture_1.png,0,"[11.733433509789464, 11.733433509789462]",11.733433509789464,11.733433509789462,images/picture_2.png,1,"[-11.733433509789462, 11.733433509789464]",-11.733433509789462,11.733433509789464,images/picture_3.png,2,"[-11.733433509789466, -11.733433509789462]",-11.733433509789464,-11.733433509789462,0,1,1,0.9677503360575584,1.9677503360575583,1.0322496639424417,3.0,1,1.7177503360575583,0,4.0,3.0,1,2,10,0,10,0,0,1,1,0,,,,,,,614.015589542003,614.015589542003,615.0161706670042,615.7352372919995,615.9829040830082,615.9829040830082,615.9829040830082,617.0158735419973,617.0158735419973,617.0158735419973,617.0158735419973,618.0156368330063,200003,304,2023-04-07_13h18.54.413,DMS_et_12-36,2022.2.4,None,
94,PRED,12,0.9677503360575584,1,images/picture_2.png,images/picture_1.png,0,"[-11.733433509789466, -11.733433509789462]",-11.733433509789464,-11.733433509789462,images/picture_2.png,1,"[-11.733433509789462, 11.733433509789464]",-11.733433509789462,11.733433509789464,images/picture_3.png,2,"[11.733433509789462, -11.733433509789466]",11.733433509789462,-11.733433509789464,0,1,1,0.9677503360575584,1.9677503360575583,1.0322496639424417,3.0,1,1.7177503360575583,0,4.0,3.0,1,2,10,0,10,0,0,2,2,4,,,,,,,618.0156368330063,618.0156368330063,619.0161715830036,619.735393875002,619.9829966670077,619.9829966670077,619.9829966670077,621.0162284580001,621.0162284580001,621.0162284580001,621.0162284580001,622.01590579201,200003,304,2023-04-07_13h18.54.413,DMS_et_12-36,2022.2.4,None,
92,PRED,12,0.9677503360575584,1,images/picture_2.png,images/picture_1.png,0,"[-11.733433509789466, -11.733433509789462]",-11.733433509789464,-11.733433509789462,images/picture_2.png,1,"[11.733433509789462, -11.733433509789466]",11.733433509789462,-11.733433509789464,images/picture_3.png,2,"[11.733433509789464, 11.733433509789462]",11.733433509789464,11.733433509789462,0,1,1,0.9677503360575584,1.9677503360575583,1.0322496639424417,3.0,1,1.7177503360575583,0,4.0,3.0,1,2,10,0,10,0,0,3,3,2,,,,,,,622.01590579201,622.01590579201,623.0161797500041,623.7346135420084,623.9828544580087,623.9828544580087,623.9828544580087,625.016205500011,625.016205500011,625.016205500011,625.016205500011,626.0157537500054,200003,304,2023-04-07_13h18.54.413,DMS_et_12-36,2022.2.4,None,
93,PRED,12,0.9677503360575584,1,images/picture_2.png,images/picture_1.png,0,"[-11.733433509789462, 11.733433509789464]",-11.733433509789462,11.733433509789464,images/picture_2.png,1,"[11.733433509789462, -11.733433509789466]",11.733433509789462,-11.733433509789464,images/picture_3.png,2,"[-11.733433509789466, -11.733433509789462]",-11.733433509789464,-11.733433509789462,0,1,1,0.9677503360575584,1.9677503360575583,1.0322496639424417,3.0,1,1.7177503360575583,0,4.0,3.0,1,2,10,0,10,0,0,4,4,3,,,,,,,626.0157537500054,626.0157537500054,627.016106125011,627.735474208006,627.9827230420051,627.9827230420051,627.9827230420051,629.0161795000022,629.0161795000022,629.0161795000022,629.0161795000022,630.0161433750036,200003,304,2023-04-07_13h18.54.413,DMS_et_12-36,2022.2.4,None,
95,PRED,12,0.9677503360575584,1,images/picture_2.png,images/picture_1.png,0,"[-11.733433509789462, 11.733433509789464]",-11.733433509789462,11.733433509789464,images/picture_2.png,1,"[-11.733433509789466, -11.733433509789462]",-11.733433509789464,-11.733433509789462,images/picture_3.png,2,"[11.733433509789464, 11.733433509789462]",11.733433509789464,11.733433509789462,0,1,1,0.9677503360575584,1.9677503360575583,1.0322496639424417,3.0,1,1.7177503360575583,0,4.0,3.0,1,2,10,0,10,0,0,5,5,5,,,,,,,630.0161433750036,630.0161433750036,631.0159877920087,631.7494245420094,631.982884625002,631.982884625002,631.982884625002,633.0162091670063,633.0162091670063,633.0162091670063,633.0162091670063,634.0153931250097,200003,304,2023-04-07_13h18.54.413,DMS_et_12-36,2022.2.4,None,
98,PRED,12,0.9677503360575584,1,images/picture_2.png,images/picture_1.png,0,"[11.733433509789464, 11.733433509789462]",11.733433509789464,11.733433509789462,images/picture_2.png,1,"[-11.733433509789466, -11.733433509789462]",-11.733433509789464,-11.733433509789462,images/picture_3.png,2,"[11.733433509789462, -11.733433509789466]",11.733433509789462,-11.733433509789464,0,1,1,0.9677503360575584,1.9677503360575583,1.0322496639424417,3.0,1,1.7177503360575583,0,4.0,3.0,1,2,10,0,10,0,0,6,6,8,,,,,,,634.0153931250097,634.0153931250097,635.0162096249987,635.7355148750066,635.9827632079978,635.9827632079978,635.9827632079978,637.0157748750062,637.0157748750062,637.0157748750062,637.0157748750062,638.0157049580012,200003,304,2023-04-07_13h18.54.413,DMS_et_12-36,2022.2.4,None,
96,PRED,12,0.9677503360575584,1,images/picture_2.png,images/picture_1.png,0,"[-11.733433509789462, 11.733433509789464]",-11.733433509789462,11.733433509789464,images/picture_2.png,1,"[-11.733433509789466, -11.733433509789462]",-11.733433509789464,-11.733433509789462,images/picture_3.png,2,"[11.733433509789464, 11.733433509789462]",11.733433509789464,11.733433509789462,0,1,1,0.9677503360575584,1.9677503360575583,1.0322496639424417,3.0,1,1.7177503360575583,0,4.0,3.0,1,2,10,0,10,0,0,7,7,6,,,,,,,638.0157049580012,638.0157049580012,639.0162715000042,639.7354875419987,639.9827697080036,639.9827697080036,639.9827697080036,641.016180999999,641.016180999999,641.016180999999,641.016180999999,642.0158831669978,200003,304,2023-04-07_13h18.54.413,DMS_et_12-36,2022.2.4,None,
91,PRED,12,0.9677503360575584,1,images/picture_2.png,images/picture_1.png,0,"[-11.733433509789466, -11.733433509789462]",-11.733433509789464,-11.733433509789462,images/picture_2.png,1,"[-11.733433509789462, 11.733433509789464]",-11.733433509789462,11.733433509789464,images/picture_3.png,2,"[11.733433509789462, -11.733433509789466]",11.733433509789462,-11.733433509789464,0,1,1,0.9677503360575584,1.9677503360575583,1.0322496639424417,3.0,1,1.7177503360575583,0,4.0,3.0,1,2,10,0,10,0,0,8,8,1,,,,,,,642.0158831669978,642.0158831669978,643.0162448750052,643.7355067919998,643.9826485829981,643.9826485829981,643.9826485829981,645.0162238330086,645.0162238330086,645.0162238330086,645.0162238330086,646.1291244169988,200003,304,2023-04-07_13h18.54.413,DMS_et_12-36,2022.2.4,None,
,,,,,,,,,,,,,,,,,,,,,,,,,,,,,,,,,,,10,0,10,0,,,,,,,,,646.1291244169988,658.1413380830054,,,,,,,,,,,,,200003,304,2023-04-07_13h18.54.413,DMS_et_12-36,2022.2.4,None,
101,UNPRED,12,0.9677503360575584,1,images/picture_2.png,images/picture_1.png,0,"[-11.733433509789462, 11.733433509789464]",-11.733433509789462,11.733433509789464,images/picture_2.png,1,"[-11.733433509789466, -11.733433509789462]",-11.733433509789464,-11.733433509789462,images/picture_3.png,2,"[11.733433509789464, 11.733433509789462]",11.733433509789464,11.733433509789462,0,1,1,0.9677503360575584,1.9677503360575583,1.0322496639424417,3.0,1,1.7177503360575583,0,4.0,3.0,1,2,11,0,11,0,0,0,0,2,,,,,,,658.1413380830054,658.1413380830054,659.1492303749983,659.8688781670062,660.116186291998,660.116186291998,660.116186291998,661.1358046250098,661.1495591249986,661.1495591249986,661.1495591249986,662.1486839999998,200003,304,2023-04-07_13h18.54.413,DMS_et_12-36,2022.2.4,None,
102,UNPRED,12,0.9677503360575584,0,images/picture_1.png,images/picture_1.png,0,"[11.733433509789464, 11.733433509789462]",11.733433509789464,11.733433509789462,images/picture_2.png,1,"[-11.733433509789466, -11.733433509789462]",-11.733433509789464,-11.733433509789462,images/picture_3.png,2,"[11.733433509789462, -11.733433509789466]",11.733433509789462,-11.733433509789464,0,1,1,0.9677503360575584,1.9677503360575583,1.0322496639424417,3.0,1,1.7177503360575583,0,4.0,3.0,1,2,11,0,11,0,0,1,1,3,,,,,,,662.1486839999998,662.1486839999998,663.1494452500046,663.8687556670047,664.1161862080044,664.1161862080044,664.1161862080044,665.1497570420033,665.1497570420033,665.1497570420033,665.1497570420033,666.1681340420037,200003,304,2023-04-07_13h18.54.413,DMS_et_12-36,2022.2.4,None,
107,UNPRED,12,0.9677503360575584,2,images/picture_3.png,images/picture_1.png,0,"[11.733433509789462, -11.733433509789466]",11.733433509789462,-11.733433509789464,images/picture_2.png,1,"[-11.733433509789462, 11.733433509789464]",-11.733433509789462,11.733433509789464,images/picture_3.png,2,"[-11.733433509789466, -11.733433509789462]",-11.733433509789464,-11.733433509789462,0,1,1,0.9677503360575584,1.9677503360575583,1.0322496639424417,3.0,1,1.7177503360575583,0,4.0,3.0,1,2,11,0,11,0,0,2,2,8,,,,,,,666.1681340420037,666.1681340420037,667.1829101250041,667.9015856250044,668.1158718750085,668.1158718750085,668.1158718750085,669.1494348749984,669.1494348749984,669.1494348749984,669.1494348749984,670.1681773750024,200003,304,2023-04-07_13h18.54.413,DMS_et_12-36,2022.2.4,None,
106,UNPRED,12,0.9677503360575584,2,images/picture_3.png,images/picture_1.png,0,"[-11.733433509789466, -11.733433509789462]",-11.733433509789464,-11.733433509789462,images/picture_2.png,1,"[11.733433509789464, 11.733433509789462]",11.733433509789464,11.733433509789462,images/picture_3.png,2,"[11.733433509789462, -11.733433509789466]",11.733433509789462,-11.733433509789464,0,1,1,0.9677503360575584,1.9677503360575583,1.0322496639424417,3.0,1,1.7177503360575583,0,4.0,3.0,1,2,11,0,11,0,0,3,3,7,,,,,,,670.1681773750024,670.1681773750024,671.1828944580047,671.8827876249998,672.1161756670044,672.1161756670044,672.1161756670044,673.1494483330025,673.1494483330025,673.1494483330025,673.1494483330025,674.1494624580082,200003,304,2023-04-07_13h18.54.413,DMS_et_12-36,2022.2.4,None,
100,UNPRED,12,0.9677503360575584,1,images/picture_2.png,images/picture_1.png,0,"[-11.733433509789462, 11.733433509789464]",-11.733433509789462,11.733433509789464,images/picture_2.png,1,"[11.733433509789462, -11.733433509789466]",11.733433509789462,-11.733433509789464,images/picture_3.png,2,"[11.733433509789464, 11.733433509789462]",11.733433509789464,11.733433509789462,0,1,1,0.9677503360575584,1.9677503360575583,1.0322496639424417,3.0,1,1.7177503360575583,0,4.0,3.0,1,2,11,0,11,0,0,4,4,1,,,,,,,674.1494624580082,674.1494624580082,675.1496488330013,675.8829063750018,676.1161523330084,676.1161523330084,676.1161523330084,677.1494611250091,677.1494611250091,677.1494611250091,677.1494611250091,678.1491453750059,200003,304,2023-04-07_13h18.54.413,DMS_et_12-36,2022.2.4,None,
105,UNPRED,12,0.9677503360575584,1,images/picture_2.png,images/picture_1.png,0,"[11.733433509789462, -11.733433509789466]",11.733433509789462,-11.733433509789464,images/picture_2.png,1,"[-11.733433509789462, 11.733433509789464]",-11.733433509789462,11.733433509789464,images/picture_3.png,2,"[11.733433509789464, 11.733433509789462]",11.733433509789464,11.733433509789462,0,1,1,0.9677503360575584,1.9677503360575583,1.0322496639424417,3.0,1,1.7177503360575583,0,4.0,3.0,1,2,11,0,11,0,0,5,5,6,,,,,,,678.1491453750059,678.1491453750059,679.1494225830102,679.8688771250017,680.1161782080017,680.1161782080017,680.1161782080017,681.149423750001,681.149423750001,681.149423750001,681.149423750001,682.1488908750034,200003,304,2023-04-07_13h18.54.413,DMS_et_12-36,2022.2.4,None,
104,UNPRED,12,0.9677503360575584,0,images/picture_1.png,images/picture_1.png,0,"[11.733433509789462, -11.733433509789466]",11.733433509789462,-11.733433509789464,images/picture_2.png,1,"[-11.733433509789466, -11.733433509789462]",-11.733433509789464,-11.733433509789462,images/picture_3.png,2,"[-11.733433509789462, 11.733433509789464]",-11.733433509789462,11.733433509789464,0,1,1,0.9677503360575584,1.9677503360575583,1.0322496639424417,3.0,1,1.7177503360575583,0,4.0,3.0,1,2,11,0,11,0,0,6,6,5,,,,,,,682.1488908750034,682.1488908750034,683.1494510420016,683.8685145830095,684.1163418750075,684.1163418750075,684.1163418750075,685.1494788330019,685.1494788330019,685.1494788330019,685.1494788330019,686.1485637500009,200003,304,2023-04-07_13h18.54.413,DMS_et_12-36,2022.2.4,None,
99,UNPRED,12,0.9677503360575584,1,images/picture_2.png,images/picture_1.png,0,"[11.733433509789462, -11.733433509789466]",11.733433509789462,-11.733433509789464,images/picture_2.png,1,"[11.733433509789464, 11.733433509789462]",11.733433509789464,11.733433509789462,images/picture_3.png,2,"[-11.733433509789462, 11.733433509789464]",-11.733433509789462,11.733433509789464,0,1,1,0.9677503360575584,1.9677503360575583,1.0322496639424417,3.0,1,1.7177503360575583,0,4.0,3.0,1,2,11,0,11,0,0,7,7,0,,,,,,,686.1485637500009,686.1485637500009,687.1494125830068,687.8678734580026,688.1158465830085,688.1158465830085,688.1158465830085,689.149462625006,689.149462625006,689.149462625006,689.149462625006,690.1484025420068,200003,304,2023-04-07_13h18.54.413,DMS_et_12-36,2022.2.4,None,
103,UNPRED,12,0.9677503360575584,0,images/picture_1.png,images/picture_1.png,0,"[-11.733433509789462, 11.733433509789464]",-11.733433509789462,11.733433509789464,images/picture_2.png,1,"[-11.733433509789466, -11.733433509789462]",-11.733433509789464,-11.733433509789462,images/picture_3.png,2,"[11.733433509789464, 11.733433509789462]",11.733433509789464,11.733433509789462,0,1,1,0.9677503360575584,1.9677503360575583,1.0322496639424417,3.0,1,1.7177503360575583,0,4.0,3.0,1,2,11,0,11,0,0,8,8,4,,,,,,,690.1484025420068,690.1484025420068,691.1494397500064,691.8685835420038,692.1160835830087,692.1160835830087,692.1160835830087,693.1494105830061,693.1494105830061,693.1494105830061,693.1494105830061,694.3235307920113,200003,304,2023-04-07_13h18.54.413,DMS_et_12-36,2022.2.4,None,
,,,,,,,,,,,,,,,,,,,,,,,,,,,,,,,,,,,11,0,11,0,,,,,,,,,694.3235307920113,706.4651016249991,,,,,,,,,,,,,200003,304,2023-04-07_13h18.54.413,DMS_et_12-36,2022.2.4,None,
,,,,,,,,,,,,,,,,,,,,,,,,,,,,,,,,,,,,,,,,,,,,,,,706.4651016249991,718.9722220420081,,,,,,,,,,,,,,,,,,,
