trial_count,blockType,blockNum,delay_time,stimImage_i,stimImage,responseImage1,responseImage1_i,responseImage1_pos,responseImage1_X,responseImage1_Y,responseImage2,responseImage2_i,responseImage2_pos,responseImage2_X,responseImage2_Y,responseImage3,responseImage3_i,responseImage3_pos,responseImage3_X,responseImage3_Y,cue_onset,cue_dur,delay_onset,delay_dur,resp_onset,resp_dur,rest_onset,rest_dur,circle_dur,circle_onset,blocks.thisRepN,blocks.thisTrialN,blocks.thisN,blocks.thisIndex,trials.thisRepN,trials.thisTrialN,trials.thisN,trials.thisIndex,key_resp.started,text.started,key_resp.keys,key_resp.rt,text_2.started,text_2.stopped,etRecord.started,sample.started,Delay.started,sample.stopped,Response_1.started,Response_2.started,Response_3.started,Delay.stopped,polygon.started,Response_1.stopped,Response_2.stopped,Response_3.stopped,polygon.stopped,etRecord.stopped,participant,session,date,expName,psychopyVersion,frameRate,
,,,,,,,,,,,,,,,,,,,,,,,,,,,,,,,,,,,,,,,60.93081625003833,60.93081625003833,t,53.780337832984515,,,,,,,,,,,,,,,,,200002,203,2023-03-21_15h52.47.103,DMS_BEST_eyetracking_DAN_base_12-36_looped_10minWORKING,2022.2.4,None,
2,PRED,12,0.9764277870836762,0,images/picture_1.png,images/picture_1.png,0,"[-11.733433509789462, 11.733433509789464]",-11.733433509789462,11.733433509789464,images/picture_2.png,1,"[-11.733433509789466, -11.733433509789462]",-11.733433509789464,-11.733433509789462,images/picture_3.png,2,"[11.733433509789462, -11.733433509789466]",11.733433509789462,-11.733433509789464,0,1,1,0.9764277870836762,1.976427787083676,1.0235722129163238,3,1,1.7264277870836762,0,0,0,0,0,0,0,0,2,,,,,114.72051141702104,127.26907995797228,,,,,,,,,,,,,,,200002,203,2023-03-21_15h52.47.103,DMS_BEST_eyetracking_DAN_base_12-36_looped_10minWORKING,2022.2.4,None,
2,PRED,12,0.9764277870836762,0,images/picture_1.png,images/picture_1.png,0,"[-11.733433509789462, 11.733433509789464]",-11.733433509789462,11.733433509789464,images/picture_2.png,1,"[-11.733433509789466, -11.733433509789462]",-11.733433509789464,-11.733433509789462,images/picture_3.png,2,"[11.733433509789462, -11.733433509789466]",11.733433509789462,-11.733433509789464,0,1,1,0.9764277870836762,1.976427787083676,1.0235722129163238,3,1,1.7264277870836762,0,0,0,0,0,0,0,0,2,,,,,,,0.006790541927330196,127.26907995797228,127.26907995797228,128.2681947919773,128.73521483293734,128.73521483293734,128.73521483293734,129.00199462496676,129.75428774999455,129.76819520804565,129.76819520804565,129.76819520804565,130.76873870799318,4.507961957948282,200002,203,2023-03-21_15h52.47.103,DMS_BEST_eyetracking_DAN_base_12-36_looped_10minWORKING,2022.2.4,None,
7,PRED,12,1.1674064400268367,0,images/picture_1.png,images/picture_1.png,0,"[-11.733433509789466, -11.733433509789462]",-11.733433509789464,-11.733433509789462,images/picture_2.png,1,"[-11.733433509789462, 11.733433509789464]",-11.733433509789462,11.733433509789464,images/picture_3.png,2,"[11.733433509789462, -11.733433509789466]",11.733433509789462,-11.733433509789464,0,1,1,1.1674064400268367,2.167406440026837,0.8325935599731633,3,1,1.917406440026837,0,0,0,0,0,0,1,1,7,,,,,,,,,,,,,,,,,,,,,200002,203,2023-03-21_15h52.47.103,DMS_BEST_eyetracking_DAN_base_12-36_looped_10minWORKING,2022.2.4,None,
7,PRED,12,1.1674064400268367,0,images/picture_1.png,images/picture_1.png,0,"[-11.733433509789466, -11.733433509789462]",-11.733433509789464,-11.733433509789462,images/picture_2.png,1,"[-11.733433509789462, 11.733433509789464]",-11.733433509789462,11.733433509789464,images/picture_3.png,2,"[11.733433509789462, -11.733433509789466]",11.733433509789462,-11.733433509789464,0,1,1,1.1674064400268367,2.167406440026837,0.8325935599731633,3,1,1.917406440026837,0,0,0,0,0,0,1,1,7,,,,,,,0.0035151250194758177,132.2759313749848,132.2759313749848,133.28795200004242,133.93526824994478,133.93526824994478,133.93526824994478,134.20195554196835,134.76873641693965,134.76873641693965,134.76873641693965,134.76873641693965,135.76831141696312,4.509125957963988,200002,203,2023-03-21_15h52.47.103,DMS_BEST_eyetracking_DAN_base_12-36_looped_10minWORKING,2022.2.4,None,
5,PRED,12,0.6542705440758458,0,images/picture_1.png,images/picture_1.png,0,"[11.733433509789462, -11.733433509789466]",11.733433509789462,-11.733433509789464,images/picture_2.png,1,"[-11.733433509789462, 11.733433509789464]",-11.733433509789462,11.733433509789464,images/picture_3.png,2,"[11.733433509789464, 11.733433509789462]",11.733433509789464,11.733433509789462,0,1,1,0.6542705440758458,1.6542705440758458,1.3457294559241542,3,1,1.4042705440758458,0,0,0,0,0,0,2,2,5,,,,,,,,,,,,,,,,,,,,,200002,203,2023-03-21_15h52.47.103,DMS_BEST_eyetracking_DAN_base_12-36_looped_10minWORKING,2022.2.4,None,
5,PRED,12,0.6542705440758458,0,images/picture_1.png,images/picture_1.png,0,"[11.733433509789462, -11.733433509789466]",11.733433509789462,-11.733433509789464,images/picture_2.png,1,"[-11.733433509789462, 11.733433509789464]",-11.733433509789462,11.733433509789464,images/picture_3.png,2,"[11.733433509789464, 11.733433509789462]",11.733433509789464,11.733433509789462,0,1,1,0.6542705440758458,1.6542705440758458,1.3457294559241542,3,1,1.4042705440758458,0,0,0,0,0,0,2,2,5,,,,,,,0.005005875020287931,137.29877283296082,137.29877283296082,138.30192454194184,138.43528508301824,138.43528508301824,138.43528508301824,138.7020502500236,139.78862899995875,139.78862899995875,139.78862899995875,139.78862899995875,140.80200095800683,4.511801040964201,200002,203,2023-03-21_15h52.47.103,DMS_BEST_eyetracking_DAN_base_12-36_looped_10minWORKING,2022.2.4,None,
3,PRED,12,0.5745060794714917,0,images/picture_1.png,images/picture_1.png,0,"[11.733433509789462, -11.733433509789466]",11.733433509789462,-11.733433509789464,images/picture_2.png,1,"[-11.733433509789462, 11.733433509789464]",-11.733433509789462,11.733433509789464,images/picture_3.png,2,"[11.733433509789464, 11.733433509789462]",11.733433509789464,11.733433509789462,0,1,1,0.5745060794714917,1.5745060794714916,1.4254939205285084,3,1,1.3245060794714916,0,0,0,0,0,0,3,3,3,,,,,,,,,,,,,,,,,,,,,200002,203,2023-03-21_15h52.47.103,DMS_BEST_eyetracking_DAN_base_12-36_looped_10minWORKING,2022.2.4,None,
3,PRED,12,0.5745060794714917,0,images/picture_1.png,images/picture_1.png,0,"[11.733433509789462, -11.733433509789466]",11.733433509789462,-11.733433509789464,images/picture_2.png,1,"[-11.733433509789462, 11.733433509789464]",-11.733433509789462,11.733433509789464,images/picture_3.png,2,"[11.733433509789464, 11.733433509789462]",11.733433509789464,11.733433509789462,0,1,1,0.5745060794714917,1.5745060794714916,1.4254939205285084,3,1,1.3245060794714916,0,0,0,0,0,0,3,3,3,,,,,,,0.002113125054165721,142.31481116695795,142.31481116695795,143.32051600003615,143.36847224994563,143.36847224994563,143.36847224994563,143.6542987920111,144.80160408304073,144.80160408304073,144.80160408304073,144.80160408304073,145.80207833298482,4.50453033298254,200002,203,2023-03-21_15h52.47.103,DMS_BEST_eyetracking_DAN_base_12-36_looped_10minWORKING,2022.2.4,None,
4,PRED,12,0.6613107401700862,0,images/picture_1.png,images/picture_1.png,0,"[11.733433509789462, -11.733433509789466]",11.733433509789462,-11.733433509789464,images/picture_2.png,1,"[11.733433509789464, 11.733433509789462]",11.733433509789464,11.733433509789462,images/picture_3.png,2,"[-11.733433509789462, 11.733433509789464]",-11.733433509789462,11.733433509789464,0,1,1,0.6613107401700862,1.6613107401700862,1.3386892598299138,3,1,1.4113107401700862,0,0,0,0,0,0,4,4,4,,,,,,,,,,,,,,,,,,,,,200002,203,2023-03-21_15h52.47.103,DMS_BEST_eyetracking_DAN_base_12-36_looped_10minWORKING,2022.2.4,None,
4,PRED,12,0.6613107401700862,0,images/picture_1.png,images/picture_1.png,0,"[11.733433509789462, -11.733433509789466]",11.733433509789462,-11.733433509789464,images/picture_2.png,1,"[11.733433509789464, 11.733433509789462]",11.733433509789464,11.733433509789462,images/picture_3.png,2,"[-11.733433509789462, 11.733433509789464]",-11.733433509789462,11.733433509789464,0,1,1,0.6613107401700862,1.6613107401700862,1.3386892598299138,3,1,1.4113107401700862,0,0,0,0,0,0,4,4,4,,,,,,,0.004590249969623983,147.3254096249584,147.3254096249584,148.3352453749394,148.46871487493627,148.46871487493627,148.46871487493627,148.73542508296669,149.82130495796446,149.82130495796446,149.82130495796446,149.82130495796446,150.83507662499323,4.512739291996695,200002,203,2023-03-21_15h52.47.103,DMS_BEST_eyetracking_DAN_base_12-36_looped_10minWORKING,2022.2.4,None,
6,PRED,12,1.0124507372294294,0,images/picture_1.png,images/picture_1.png,0,"[11.733433509789464, 11.733433509789462]",11.733433509789464,11.733433509789462,images/picture_2.png,1,"[-11.733433509789466, -11.733433509789462]",-11.733433509789464,-11.733433509789462,images/picture_3.png,2,"[-11.733433509789462, 11.733433509789464]",-11.733433509789462,11.733433509789464,0,1,1,1.0124507372294294,2.0124507372294294,0.9875492627705706,3,1,1.7624507372294294,0,0,0,0,0,0,5,5,6,,,,,,,,,,,,,,,,,,,,,200002,203,2023-03-21_15h52.47.103,DMS_BEST_eyetracking_DAN_base_12-36_looped_10minWORKING,2022.2.4,None,
6,PRED,12,1.0124507372294294,0,images/picture_1.png,images/picture_1.png,0,"[11.733433509789464, 11.733433509789462]",11.733433509789464,11.733433509789462,images/picture_2.png,1,"[-11.733433509789466, -11.733433509789462]",-11.733433509789464,-11.733433509789462,images/picture_3.png,2,"[-11.733433509789462, 11.733433509789464]",-11.733433509789462,11.733433509789464,0,1,1,1.0124507372294294,2.0124507372294294,0.9875492627705706,3,1,1.7624507372294294,0,0,0,0,0,0,5,5,6,,,,,,,0.004180124960839748,152.34317208302673,152.34317208302673,153.35463208297733,153.8350392919965,153.8350392919965,153.8350392919965,154.1019484170247,154.83545341703575,154.83545341703575,154.83545341703575,154.83545341703575,155.83545083296485,4.510719666955993,200002,203,2023-03-21_15h52.47.103,DMS_BEST_eyetracking_DAN_base_12-36_looped_10minWORKING,2022.2.4,None,
8,PRED,12,1.1227326805427509,0,images/picture_1.png,images/picture_1.png,0,"[-11.733433509789462, 11.733433509789464]",-11.733433509789462,11.733433509789464,images/picture_2.png,1,"[-11.733433509789466, -11.733433509789462]",-11.733433509789464,-11.733433509789462,images/picture_3.png,2,"[11.733433509789462, -11.733433509789466]",11.733433509789462,-11.733433509789464,0,1,1,1.1227326805427509,2.1227326805427507,0.8772673194572493,3,1,1.8727326805427509,0,0,0,0,0,0,6,6,8,,,,,,,,,,,,,,,,,,,,,200002,203,2023-03-21_15h52.47.103,DMS_BEST_eyetracking_DAN_base_12-36_looped_10minWORKING,2022.2.4,None,
8,PRED,12,1.1227326805427509,0,images/picture_1.png,images/picture_1.png,0,"[-11.733433509789462, 11.733433509789464]",-11.733433509789462,11.733433509789464,images/picture_2.png,1,"[-11.733433509789466, -11.733433509789462]",-11.733433509789464,-11.733433509789462,images/picture_3.png,2,"[11.733433509789462, -11.733433509789466]",11.733433509789462,-11.733433509789464,0,1,1,1.1227326805427509,2.1227326805427507,0.8772673194572493,3,1,1.8727326805427509,0,0,0,0,0,0,6,6,8,,,,,,,0.0034803750459104776,157.36864474997856,157.36864474997856,158.36858362494968,158.96844945801422,158.96844945801422,158.96844945801422,159.25360720802564,159.8536745000165,159.8536745000165,159.8536745000165,159.8536745000165,160.8688279580092,4.506331542041153,200002,203,2023-03-21_15h52.47.103,DMS_BEST_eyetracking_DAN_base_12-36_looped_10minWORKING,2022.2.4,None,
0,PRED,12,0.7309846975709885,0,images/picture_1.png,images/picture_1.png,0,"[-11.733433509789466, -11.733433509789462]",-11.733433509789464,-11.733433509789462,images/picture_2.png,1,"[11.733433509789464, 11.733433509789462]",11.733433509789464,11.733433509789462,images/picture_3.png,2,"[11.733433509789462, -11.733433509789466]",11.733433509789462,-11.733433509789464,0,1,1,0.7309846975709885,1.7309846975709884,1.2690153024290116,3,1,1.4809846975709884,0,0,0,0,0,0,7,7,0,,,,,,,,,,,,,,,,,,,,,200002,203,2023-03-21_15h52.47.103,DMS_BEST_eyetracking_DAN_base_12-36_looped_10minWORKING,2022.2.4,None,
0,PRED,12,0.7309846975709885,0,images/picture_1.png,images/picture_1.png,0,"[-11.733433509789466, -11.733433509789462]",-11.733433509789464,-11.733433509789462,images/picture_2.png,1,"[11.733433509789464, 11.733433509789462]",11.733433509789464,11.733433509789462,images/picture_3.png,2,"[11.733433509789462, -11.733433509789466]",11.733433509789462,-11.733433509789464,0,1,1,0.7309846975709885,1.7309846975709884,1.2690153024290116,3,1,1.4809846975709884,0,0,0,0,0,0,7,7,0,,,,,,,0.004116749973036349,162.3733680419391,162.3733680419391,163.3881352499593,163.60200637497474,163.60200637497474,163.60200637497474,163.86875820800196,164.86879666696768,164.86879666696768,164.86879666696768,164.86879666696768,165.86878891696688,4.509901375044137,200002,203,2023-03-21_15h52.47.103,DMS_BEST_eyetracking_DAN_base_12-36_looped_10minWORKING,2022.2.4,None,
1,PRED,12,0.7714554647785501,0,images/picture_1.png,images/picture_1.png,0,"[11.733433509789464, 11.733433509789462]",11.733433509789464,11.733433509789462,images/picture_2.png,1,"[-11.733433509789462, 11.733433509789464]",-11.733433509789462,11.733433509789464,images/picture_3.png,2,"[11.733433509789462, -11.733433509789466]",11.733433509789462,-11.733433509789464,0,1,1,0.7714554647785501,1.7714554647785499,1.22854453522145,3,1,1.5214554647785499,0,0,0,0,0,0,8,8,1,,,,,,,,,,,,,,,,,,,,,200002,203,2023-03-21_15h52.47.103,DMS_BEST_eyetracking_DAN_base_12-36_looped_10minWORKING,2022.2.4,None,
1,PRED,12,0.7714554647785501,0,images/picture_1.png,images/picture_1.png,0,"[11.733433509789464, 11.733433509789462]",11.733433509789464,11.733433509789462,images/picture_2.png,1,"[-11.733433509789462, 11.733433509789464]",-11.733433509789462,11.733433509789464,images/picture_3.png,2,"[11.733433509789462, -11.733433509789466]",11.733433509789462,-11.733433509789464,0,1,1,0.7714554647785501,1.7714554647785499,1.22854453522145,3,1,1.5214554647785499,0,0,0,0,0,0,8,8,1,,,,,,,0.004847291042096913,167.39939008303918,167.39939008303918,168.402103542001,168.65448479203042,168.65448479203042,168.65448479203042,168.93525408301502,169.88787987502292,169.88787987502292,169.88787987502292,169.88787987502292,170.90201670804527,4.512187374988571,200002,203,2023-03-21_15h52.47.103,DMS_BEST_eyetracking_DAN_base_12-36_looped_10minWORKING,2022.2.4,None,
,,,,,,,,,,,,,,,,,,,,,,,,,,,,,,,0,0,0,0,,,,,,,,,171.91841820802074,184.44190479198005,,,,,,,,,,,,,,,200002,203,2023-03-21_15h52.47.103,DMS_BEST_eyetracking_DAN_base_12-36_looped_10minWORKING,2022.2.4,None,
11,UNPRED,12,0.5215534306030598,0,images/picture_1.png,images/picture_1.png,0,"[11.733433509789462, -11.733433509789466]",11.733433509789462,-11.733433509789464,images/picture_2.png,1,"[-11.733433509789466, -11.733433509789462]",-11.733433509789464,-11.733433509789462,images/picture_3.png,2,"[-11.733433509789462, 11.733433509789464]",-11.733433509789462,11.733433509789464,0,1,1,0.5215534306030598,1.5215534306030598,1.4784465693969402,3,1,1.2715534306030598,0,1,0,1,0,0,0,0,2,,,,,,,,,,,,,,,,,,,,,200002,203,2023-03-21_15h52.47.103,DMS_BEST_eyetracking_DAN_base_12-36_looped_10minWORKING,2022.2.4,None,
11,UNPRED,12,0.5215534306030598,0,images/picture_1.png,images/picture_1.png,0,"[11.733433509789462, -11.733433509789466]",11.733433509789462,-11.733433509789464,images/picture_2.png,1,"[-11.733433509789466, -11.733433509789462]",-11.733433509789464,-11.733433509789462,images/picture_3.png,2,"[-11.733433509789462, 11.733433509789464]",-11.733433509789462,11.733433509789464,0,1,1,0.5215534306030598,1.5215534306030598,1.4784465693969402,3,1,1.2715534306030598,0,1,0,1,0,0,0,0,2,,,,,,,0.0027997499564662576,184.44190479198005,184.44190479198005,185.45393745799083,185.45393745799083,185.45393745799083,185.45393745799083,185.72137191693764,186.93550512497313,186.93550512497313,186.93550512497313,186.93550512497313,187.93547562498134,4.5097760000498965,200002,203,2023-03-21_15h52.47.103,DMS_BEST_eyetracking_DAN_base_12-36_looped_10minWORKING,2022.2.4,None,
9,UNPRED,12,0.7546038703626129,2,images/picture_3.png,images/picture_1.png,0,"[-11.733433509789462, 11.733433509789464]",-11.733433509789462,11.733433509789464,images/picture_2.png,1,"[11.733433509789462, -11.733433509789466]",11.733433509789462,-11.733433509789464,images/picture_3.png,2,"[-11.733433509789466, -11.733433509789462]",-11.733433509789464,-11.733433509789462,0,1,1,0.7546038703626129,1.754603870362613,1.245396129637387,3,1,1.504603870362613,0,1,0,1,0,0,1,1,0,,,,,,,,,,,,,,,,,,,,,200002,203,2023-03-21_15h52.47.103,DMS_BEST_eyetracking_DAN_base_12-36_looped_10minWORKING,2022.2.4,None,
9,UNPRED,12,0.7546038703626129,2,images/picture_3.png,images/picture_1.png,0,"[-11.733433509789462, 11.733433509789464]",-11.733433509789462,11.733433509789464,images/picture_2.png,1,"[11.733433509789462, -11.733433509789466]",11.733433509789462,-11.733433509789464,images/picture_3.png,2,"[-11.733433509789466, -11.733433509789462]",-11.733433509789464,-11.733433509789462,0,1,1,0.7546038703626129,1.754603870362613,1.245396129637387,3,1,1.504603870362613,0,1,0,1,0,0,1,1,0,,,,,,,0.006356374942697585,189.4599242080003,189.4599242080003,190.46870945801493,190.7020447079558,190.7020447079558,190.7020447079558,190.96871191693936,191.95412300003227,191.95412300003227,191.95412300003227,191.95412300003227,192.96862420800608,4.512565999990329,200002,203,2023-03-21_15h52.47.103,DMS_BEST_eyetracking_DAN_base_12-36_looped_10minWORKING,2022.2.4,None,
16,UNPRED,12,1.0345133067797572,0,images/picture_1.png,images/picture_1.png,0,"[-11.733433509789462, 11.733433509789464]",-11.733433509789462,11.733433509789464,images/picture_2.png,1,"[11.733433509789462, -11.733433509789466]",11.733433509789462,-11.733433509789464,images/picture_3.png,2,"[11.733433509789464, 11.733433509789462]",11.733433509789464,11.733433509789462,0,1,1,1.0345133067797572,2.0345133067797567,0.9654866932202428,3,1,1.7845133067797572,0,1,0,1,0,0,2,2,7,,,,,,,,,,,,,,,,,,,,,200002,203,2023-03-21_15h52.47.103,DMS_BEST_eyetracking_DAN_base_12-36_looped_10minWORKING,2022.2.4,None,
16,UNPRED,12,1.0345133067797572,0,images/picture_1.png,images/picture_1.png,0,"[-11.733433509789462, 11.733433509789464]",-11.733433509789462,11.733433509789464,images/picture_2.png,1,"[11.733433509789462, -11.733433509789466]",11.733433509789462,-11.733433509789464,images/picture_3.png,2,"[11.733433509789464, 11.733433509789462]",11.733433509789464,11.733433509789462,0,1,1,1.0345133067797572,2.0345133067797567,0.9654866932202428,3,1,1.7845133067797572,0,1,0,1,0,0,2,2,7,,,,,,,0.0065981249790638685,194.48828045802657,194.48828045802657,195.50196458294522,196.00204308296088,196.00204308296088,196.00204308296088,196.26870466698892,196.968763791956,196.968763791956,196.968763791956,196.968763791956,197.96887083293404,4.525545082986355,200002,203,2023-03-21_15h52.47.103,DMS_BEST_eyetracking_DAN_base_12-36_looped_10minWORKING,2022.2.4,None,
12,UNPRED,12,0.5692540730015948,2,images/picture_3.png,images/picture_1.png,0,"[-11.733433509789466, -11.733433509789462]",-11.733433509789464,-11.733433509789462,images/picture_2.png,1,"[-11.733433509789462, 11.733433509789464]",-11.733433509789462,11.733433509789464,images/picture_3.png,2,"[11.733433509789464, 11.733433509789462]",11.733433509789464,11.733433509789462,0,1,1,0.5692540730015948,1.569254073001595,1.430745926998405,3,1,1.319254073001595,0,1,0,1,0,0,3,3,3,,,,,,,,,,,,,,,,,,,,,200002,203,2023-03-21_15h52.47.103,DMS_BEST_eyetracking_DAN_base_12-36_looped_10minWORKING,2022.2.4,None,
12,UNPRED,12,0.5692540730015948,2,images/picture_3.png,images/picture_1.png,0,"[-11.733433509789466, -11.733433509789462]",-11.733433509789464,-11.733433509789462,images/picture_2.png,1,"[-11.733433509789462, 11.733433509789464]",-11.733433509789462,11.733433509789464,images/picture_3.png,2,"[11.733433509789464, 11.733433509789462]",11.733433509789464,11.733433509789462,0,1,1,0.5692540730015948,1.569254073001595,1.430745926998405,3,1,1.319254073001595,0,1,0,1,0,0,3,3,3,,,,,,,0.004517124965786934,199.5236945420038,199.5236945420038,200.53551650000736,200.56875362503342,200.56875362503342,200.56875362503342,200.85465633298736,202.00218549999408,202.00218549999408,202.00218549999408,202.00218549999408,203.00190920801833,4.519424207974225,200002,203,2023-03-21_15h52.47.103,DMS_BEST_eyetracking_DAN_base_12-36_looped_10minWORKING,2022.2.4,None,
13,UNPRED,12,1.0644455635204275,0,images/picture_1.png,images/picture_1.png,0,"[-11.733433509789466, -11.733433509789462]",-11.733433509789464,-11.733433509789462,images/picture_2.png,1,"[11.733433509789462, -11.733433509789466]",11.733433509789462,-11.733433509789464,images/picture_3.png,2,"[-11.733433509789462, 11.733433509789464]",-11.733433509789462,11.733433509789464,0,1,1,1.0644455635204275,2.064445563520428,0.9355544364795724,3,1,1.814445563520428,0,1,0,1,0,0,4,4,4,,,,,,,,,,,,,,,,,,,,,200002,203,2023-03-21_15h52.47.103,DMS_BEST_eyetracking_DAN_base_12-36_looped_10minWORKING,2022.2.4,None,
13,UNPRED,12,1.0644455635204275,0,images/picture_1.png,images/picture_1.png,0,"[-11.733433509789466, -11.733433509789462]",-11.733433509789464,-11.733433509789462,images/picture_2.png,1,"[11.733433509789462, -11.733433509789466]",11.733433509789462,-11.733433509789464,images/picture_3.png,2,"[-11.733433509789462, 11.733433509789464]",-11.733433509789462,11.733433509789464,0,1,1,1.0644455635204275,2.064445563520428,0.9355544364795724,3,1,1.814445563520428,0,1,0,1,0,0,4,4,4,,,,,,,0.0060919999377802014,204.54828741704114,204.54828741704114,205.55493337498046,206.10206995799672,206.10206995799672,206.10206995799672,206.3686223749537,207.03546237503178,207.03546237503178,207.03546237503178,207.03546237503178,208.03546254197136,4.50672066595871,200002,203,2023-03-21_15h52.47.103,DMS_BEST_eyetracking_DAN_base_12-36_looped_10minWORKING,2022.2.4,None,
15,UNPRED,12,0.8287168513705819,1,images/picture_2.png,images/picture_1.png,0,"[11.733433509789464, 11.733433509789462]",11.733433509789464,11.733433509789462,images/picture_2.png,1,"[11.733433509789462, -11.733433509789466]",11.733433509789462,-11.733433509789464,images/picture_3.png,2,"[-11.733433509789466, -11.733433509789462]",-11.733433509789464,-11.733433509789462,0,1,1,0.8287168513705819,1.8287168513705816,1.171283148629418,3,1,1.5787168513705816,0,1,0,1,0,0,5,5,6,,,,,,,,,,,,,,,,,,,,,200002,203,2023-03-21_15h52.47.103,DMS_BEST_eyetracking_DAN_base_12-36_looped_10minWORKING,2022.2.4,None,
15,UNPRED,12,0.8287168513705819,1,images/picture_2.png,images/picture_1.png,0,"[11.733433509789464, 11.733433509789462]",11.733433509789464,11.733433509789462,images/picture_2.png,1,"[11.733433509789462, -11.733433509789466]",11.733433509789462,-11.733433509789464,images/picture_3.png,2,"[-11.733433509789466, -11.733433509789462]",-11.733433509789464,-11.733433509789462,0,1,1,0.8287168513705819,1.8287168513705816,1.171283148629418,3,1,1.5787168513705816,0,1,0,1,0,0,5,5,6,,,,,,,0.008571040933020413,209.56998883304186,209.56998883304186,210.5688391670119,210.8883451250149,210.8883451250149,210.8883451250149,211.1554775829427,212.0545595419826,212.06877095799427,212.06877095799427,212.06877095799427,213.06860591704026,4.510719040990807,200002,203,2023-03-21_15h52.47.103,DMS_BEST_eyetracking_DAN_base_12-36_looped_10minWORKING,2022.2.4,None,
17,UNPRED,12,0.580867124569585,0,images/picture_1.png,images/picture_1.png,0,"[11.733433509789462, -11.733433509789466]",11.733433509789462,-11.733433509789464,images/picture_2.png,1,"[11.733433509789464, 11.733433509789462]",11.733433509789464,11.733433509789462,images/picture_3.png,2,"[-11.733433509789462, 11.733433509789464]",-11.733433509789462,11.733433509789464,0,1,1,0.580867124569585,1.5808671245695851,1.4191328754304149,3,1,1.3308671245695851,0,1,0,1,0,0,6,6,8,,,,,,,,,,,,,,,,,,,,,200002,203,2023-03-21_15h52.47.103,DMS_BEST_eyetracking_DAN_base_12-36_looped_10minWORKING,2022.2.4,None,
17,UNPRED,12,0.580867124569585,0,images/picture_1.png,images/picture_1.png,0,"[11.733433509789462, -11.733433509789466]",11.733433509789462,-11.733433509789464,images/picture_2.png,1,"[11.733433509789464, 11.733433509789462]",11.733433509789464,11.733433509789462,images/picture_3.png,2,"[-11.733433509789462, 11.733433509789464]",-11.733433509789462,11.733433509789464,0,1,1,0.580867124569585,1.5808671245695851,1.4191328754304149,3,1,1.3308671245695851,0,1,0,1,0,0,6,6,8,,,,,,,0.004849667078815401,214.58965262502898,214.58965262502898,215.6021393330302,215.65475870796945,215.65475870796945,215.65475870796945,215.93549454200547,217.06878416694235,217.08816233300604,217.08816233300604,217.08816233300604,218.0687693329528,4.5205967500805855,200002,203,2023-03-21_15h52.47.103,DMS_BEST_eyetracking_DAN_base_12-36_looped_10minWORKING,2022.2.4,None,
14,UNPRED,12,0.9629352773780672,2,images/picture_3.png,images/picture_1.png,0,"[11.733433509789464, 11.733433509789462]",11.733433509789464,11.733433509789462,images/picture_2.png,1,"[11.733433509789462, -11.733433509789466]",11.733433509789462,-11.733433509789464,images/picture_3.png,2,"[-11.733433509789466, -11.733433509789462]",-11.733433509789464,-11.733433509789462,0,1,1,0.9629352773780672,1.9629352773780668,1.037064722621933,3,1,1.7129352773780668,0,1,0,1,0,0,7,7,5,,,,,,,,,,,,,,,,,,,,,200002,203,2023-03-21_15h52.47.103,DMS_BEST_eyetracking_DAN_base_12-36_looped_10minWORKING,2022.2.4,None,
14,UNPRED,12,0.9629352773780672,2,images/picture_3.png,images/picture_1.png,0,"[11.733433509789464, 11.733433509789462]",11.733433509789464,11.733433509789462,images/picture_2.png,1,"[11.733433509789462, -11.733433509789466]",11.733433509789462,-11.733433509789464,images/picture_3.png,2,"[-11.733433509789466, -11.733433509789462]",-11.733433509789464,-11.733433509789462,0,1,1,0.9629352773780672,1.9629352773780668,1.037064722621933,3,1,1.7129352773780668,0,1,0,1,0,0,7,7,5,,,,,,,0.0057580830762162805,219.61409133300185,219.61409133300185,220.62167433300056,221.0687587079592,221.0687587079592,221.0687587079592,221.33539437502623,222.10225920798257,222.12163075001445,222.12163075001445,222.12163075001445,223.10198441694956,4.507240083068609,200002,203,2023-03-21_15h52.47.103,DMS_BEST_eyetracking_DAN_base_12-36_looped_10minWORKING,2022.2.4,None,
10,UNPRED,12,0.5392516793619069,1,images/picture_2.png,images/picture_1.png,0,"[11.733433509789464, 11.733433509789462]",11.733433509789464,11.733433509789462,images/picture_2.png,1,"[11.733433509789462, -11.733433509789466]",11.733433509789462,-11.733433509789464,images/picture_3.png,2,"[-11.733433509789466, -11.733433509789462]",-11.733433509789464,-11.733433509789462,0,1,1,0.5392516793619069,1.5392516793619069,1.4607483206380931,3,1,1.2892516793619069,0,1,0,1,0,0,8,8,1,,,,,,,,,,,,,,,,,,,,,200002,203,2023-03-21_15h52.47.103,DMS_BEST_eyetracking_DAN_base_12-36_looped_10minWORKING,2022.2.4,None,
10,UNPRED,12,0.5392516793619069,1,images/picture_2.png,images/picture_1.png,0,"[11.733433509789464, 11.733433509789462]",11.733433509789464,11.733433509789462,images/picture_2.png,1,"[11.733433509789462, -11.733433509789466]",11.733433509789462,-11.733433509789464,images/picture_3.png,2,"[-11.733433509789466, -11.733433509789462]",-11.733433509789464,-11.733433509789462,0,1,1,0.5392516793619069,1.5392516793619069,1.4607483206380931,3,1,1.2892516793619069,0,1,0,1,0,0,8,8,1,,,,,,,0.006942583015188575,224.63493958301842,224.63493958301842,225.63556087494362,225.65467954194173,225.65467954194173,225.65467954194173,225.93552020797506,227.12175866693724,227.12175866693724,227.12175866693724,227.12175866693724,228.13559191697277,4.511814041994512,200002,203,2023-03-21_15h52.47.103,DMS_BEST_eyetracking_DAN_base_12-36_looped_10minWORKING,2022.2.4,None,
,,,,,,,,,,,,,,,,,,,,,,,,,,,,,,,1,0,1,0,,,,,,,,,229.1908442080021,241.7280457080342,,,,,,,,,,,,,,,200002,203,2023-03-21_15h52.47.103,DMS_BEST_eyetracking_DAN_base_12-36_looped_10minWORKING,2022.2.4,None,
23,PRED,12,1.064957613615034,1,images/picture_2.png,images/picture_1.png,0,"[11.733433509789462, -11.733433509789466]",11.733433509789462,-11.733433509789464,images/picture_2.png,1,"[-11.733433509789462, 11.733433509789464]",-11.733433509789462,11.733433509789464,images/picture_3.png,2,"[-11.733433509789466, -11.733433509789462]",-11.733433509789464,-11.733433509789462,0,1,1,1.064957613615034,2.064957613615034,0.935042386384966,3,1,1.8149576136150343,0,2,0,2,0,0,0,0,5,,,,,,,,,,,,,,,,,,,,,200002,203,2023-03-21_15h52.47.103,DMS_BEST_eyetracking_DAN_base_12-36_looped_10minWORKING,2022.2.4,None,
23,PRED,12,1.064957613615034,1,images/picture_2.png,images/picture_1.png,0,"[11.733433509789462, -11.733433509789466]",11.733433509789462,-11.733433509789464,images/picture_2.png,1,"[-11.733433509789462, 11.733433509789464]",-11.733433509789462,11.733433509789464,images/picture_3.png,2,"[-11.733433509789466, -11.733433509789462]",-11.733433509789464,-11.733433509789462,0,1,1,1.064957613615034,2.064957613615034,0.935042386384966,3,1,1.8149576136150343,0,2,0,2,0,0,0,0,5,,,,,,,0.004318083054386079,241.7280457080342,241.7280457080342,242.7354693330126,243.2881205829326,243.2881205829326,243.2881205829326,243.5544142499566,244.22062216699123,244.23529700003564,244.23529700003564,244.23529700003564,245.23544208297972,4.510282083065249,200002,203,2023-03-21_15h52.47.103,DMS_BEST_eyetracking_DAN_base_12-36_looped_10minWORKING,2022.2.4,None,
26,PRED,12,0.60439249251783,1,images/picture_2.png,images/picture_1.png,0,"[11.733433509789462, -11.733433509789466]",11.733433509789462,-11.733433509789464,images/picture_2.png,1,"[11.733433509789464, 11.733433509789462]",11.733433509789464,11.733433509789462,images/picture_3.png,2,"[-11.733433509789462, 11.733433509789464]",-11.733433509789462,11.733433509789464,0,1,1,0.60439249251783,1.6043924925178301,1.3956075074821699,3,1,1.3543924925178301,0,2,0,2,0,0,1,1,8,,,,,,,,,,,,,,,,,,,,,200002,203,2023-03-21_15h52.47.103,DMS_BEST_eyetracking_DAN_base_12-36_looped_10minWORKING,2022.2.4,None,
26,PRED,12,0.60439249251783,1,images/picture_2.png,images/picture_1.png,0,"[11.733433509789462, -11.733433509789466]",11.733433509789462,-11.733433509789464,images/picture_2.png,1,"[11.733433509789464, 11.733433509789462]",11.733433509789464,11.733433509789462,images/picture_3.png,2,"[-11.733433509789462, 11.733433509789464]",-11.733433509789462,11.733433509789464,0,1,1,0.60439249251783,1.6043924925178301,1.3956075074821699,3,1,1.3543924925178301,0,2,0,2,0,0,1,1,8,,,,,,,0.006274749990552664,246.75300929194782,246.75300929194782,247.7689487079624,247.8356692920206,247.8356692920206,247.8356692920206,248.12141625001095,249.2356853330275,249.2356853330275,249.2356853330275,249.2356853330275,250.23552679200657,4.50593966699671,200002,203,2023-03-21_15h52.47.103,DMS_BEST_eyetracking_DAN_base_12-36_looped_10minWORKING,2022.2.4,None,
18,PRED,12,0.8292143497624521,1,images/picture_2.png,images/picture_1.png,0,"[-11.733433509789462, 11.733433509789464]",-11.733433509789462,11.733433509789464,images/picture_2.png,1,"[-11.733433509789466, -11.733433509789462]",-11.733433509789464,-11.733433509789462,images/picture_3.png,2,"[11.733433509789464, 11.733433509789462]",11.733433509789464,11.733433509789462,0,1,1,0.8292143497624521,1.829214349762452,1.1707856502375478,3,1,1.5792143497624522,0,2,0,2,0,0,2,2,0,,,,,,,,,,,,,,,,,,,,,200002,203,2023-03-21_15h52.47.103,DMS_BEST_eyetracking_DAN_base_12-36_looped_10minWORKING,2022.2.4,None,
18,PRED,12,0.8292143497624521,1,images/picture_2.png,images/picture_1.png,0,"[-11.733433509789462, 11.733433509789464]",-11.733433509789462,11.733433509789464,images/picture_2.png,1,"[-11.733433509789466, -11.733433509789462]",-11.733433509789464,-11.733433509789462,images/picture_3.png,2,"[11.733433509789464, 11.733433509789462]",11.733433509789464,11.733433509789462,0,1,1,0.8292143497624521,1.829214349762452,1.1707856502375478,3,1,1.5792143497624522,0,2,0,2,0,0,2,2,0,,,,,,,0.005058542010374367,251.77070891694166,251.77070891694166,252.768835416995,253.0883592920145,253.0883592920145,253.0883592920145,253.3551790829515,254.25419091701042,254.2684941670159,254.2684941670159,254.2684941670159,255.26864187500905,4.505648042075336,200002,203,2023-03-21_15h52.47.103,DMS_BEST_eyetracking_DAN_base_12-36_looped_10minWORKING,2022.2.4,None,
24,PRED,12,0.922415604057951,1,images/picture_2.png,images/picture_1.png,0,"[11.733433509789462, -11.733433509789466]",11.733433509789462,-11.733433509789464,images/picture_2.png,1,"[-11.733433509789466, -11.733433509789462]",-11.733433509789464,-11.733433509789462,images/picture_3.png,2,"[-11.733433509789462, 11.733433509789464]",-11.733433509789462,11.733433509789464,0,1,1,0.922415604057951,1.922415604057951,1.077584395942049,3,1,1.672415604057951,0,2,0,2,0,0,3,3,6,,,,,,,,,,,,,,,,,,,,,200002,203,2023-03-21_15h52.47.103,DMS_BEST_eyetracking_DAN_base_12-36_looped_10minWORKING,2022.2.4,None,
24,PRED,12,0.922415604057951,1,images/picture_2.png,images/picture_1.png,0,"[11.733433509789462, -11.733433509789466]",11.733433509789462,-11.733433509789464,images/picture_2.png,1,"[-11.733433509789466, -11.733433509789462]",-11.733433509789464,-11.733433509789462,images/picture_3.png,2,"[-11.733433509789462, 11.733433509789464]",-11.733433509789462,11.733433509789464,0,1,1,0.922415604057951,1.922415604057951,1.077584395942049,3,1,1.672415604057951,0,2,0,2,0,0,3,3,6,,,,,,,0.006648999988101423,256.7809316669591,256.7809316669591,257.7884934999747,258.1882173329359,258.1882173329359,258.1882173329359,258.4690080829896,259.2689314580057,259.2689314580057,259.2689314580057,259.2689314580057,260.2684985829983,4.506735165952705,200002,203,2023-03-21_15h52.47.103,DMS_BEST_eyetracking_DAN_base_12-36_looped_10minWORKING,2022.2.4,None,
19,PRED,12,1.0983450941758512,1,images/picture_2.png,images/picture_1.png,0,"[11.733433509789462, -11.733433509789466]",11.733433509789462,-11.733433509789464,images/picture_2.png,1,"[-11.733433509789462, 11.733433509789464]",-11.733433509789462,11.733433509789464,images/picture_3.png,2,"[-11.733433509789466, -11.733433509789462]",-11.733433509789464,-11.733433509789462,0,1,1,1.0983450941758512,2.0983450941758512,0.9016549058241488,3,1,1.8483450941758512,0,2,0,2,0,0,4,4,1,,,,,,,,,,,,,,,,,,,,,200002,203,2023-03-21_15h52.47.103,DMS_BEST_eyetracking_DAN_base_12-36_looped_10minWORKING,2022.2.4,None,
19,PRED,12,1.0983450941758512,1,images/picture_2.png,images/picture_1.png,0,"[11.733433509789462, -11.733433509789466]",11.733433509789462,-11.733433509789464,images/picture_2.png,1,"[-11.733433509789462, 11.733433509789464]",-11.733433509789462,11.733433509789464,images/picture_3.png,2,"[-11.733433509789466, -11.733433509789462]",-11.733433509789464,-11.733433509789462,0,1,1,1.0983450941758512,2.0983450941758512,0.9016549058241488,3,1,1.8483450941758512,0,2,0,2,0,0,4,4,1,,,,,,,0.005910166073590517,261.79938616696745,261.79938616696745,262.80220775003545,263.38861899997573,263.38861899997573,263.38861899997573,263.6551183749689,264.2873855419457,264.3020639580209,264.3020639580209,264.3020639580209,265.3022527919384,4.511591874994338,200002,203,2023-03-21_15h52.47.103,DMS_BEST_eyetracking_DAN_base_12-36_looped_10minWORKING,2022.2.4,None,
21,PRED,12,1.0733751858986311,1,images/picture_2.png,images/picture_1.png,0,"[11.733433509789464, 11.733433509789462]",11.733433509789464,11.733433509789462,images/picture_2.png,1,"[11.733433509789462, -11.733433509789466]",11.733433509789462,-11.733433509789464,images/picture_3.png,2,"[-11.733433509789466, -11.733433509789462]",-11.733433509789464,-11.733433509789462,0,1,1,1.0733751858986311,2.073375185898631,0.9266248141013688,3,1,1.8233751858986311,0,2,0,2,0,0,5,5,3,,,,,,,,,,,,,,,,,,,,,200002,203,2023-03-21_15h52.47.103,DMS_BEST_eyetracking_DAN_base_12-36_looped_10minWORKING,2022.2.4,None,
21,PRED,12,1.0733751858986311,1,images/picture_2.png,images/picture_1.png,0,"[11.733433509789464, 11.733433509789462]",11.733433509789464,11.733433509789462,images/picture_2.png,1,"[11.733433509789462, -11.733433509789466]",11.733433509789462,-11.733433509789464,images/picture_3.png,2,"[-11.733433509789466, -11.733433509789462]",-11.733433509789464,-11.733433509789462,0,1,1,1.0733751858986311,2.073375185898631,0.9266248141013688,3,1,1.8233751858986311,0,2,0,2,0,0,5,5,3,,,,,,,0.0050645830342546105,266.820215582964,266.820215582964,267.8354798749788,268.38848866696935,268.38848866696935,268.38848866696935,268.6549740419723,269.3019892500015,269.32136216701474,269.32136216701474,269.32136216701474,270.3019705830375,4.521026667091064,200002,203,2023-03-21_15h52.47.103,DMS_BEST_eyetracking_DAN_base_12-36_looped_10minWORKING,2022.2.4,None,
25,PRED,12,0.540668608183596,1,images/picture_2.png,images/picture_1.png,0,"[11.733433509789464, 11.733433509789462]",11.733433509789464,11.733433509789462,images/picture_2.png,1,"[-11.733433509789462, 11.733433509789464]",-11.733433509789462,11.733433509789464,images/picture_3.png,2,"[11.733433509789462, -11.733433509789466]",11.733433509789462,-11.733433509789464,0,1,1,0.540668608183596,1.5406686081835959,1.4593313918164041,3,1,1.290668608183596,0,2,0,2,0,0,6,6,7,,,,,,,,,,,,,,,,,,,,,200002,203,2023-03-21_15h52.47.103,DMS_BEST_eyetracking_DAN_base_12-36_looped_10minWORKING,2022.2.4,None,
25,PRED,12,0.540668608183596,1,images/picture_2.png,images/picture_1.png,0,"[11.733433509789464, 11.733433509789462]",11.733433509789464,11.733433509789462,images/picture_2.png,1,"[-11.733433509789462, 11.733433509789464]",-11.733433509789462,11.733433509789464,images/picture_3.png,2,"[11.733433509789462, -11.733433509789466]",11.733433509789462,-11.733433509789464,0,1,1,0.540668608183596,1.5406686081835959,1.4593313918164041,3,1,1.290668608183596,0,2,0,2,0,0,6,6,7,,,,,,,0.0062040830962359905,271.8478236249648,271.8478236249648,272.85521591699217,272.86896008299664,272.86896008299664,272.86896008299664,273.1356894579949,274.3353662500158,274.3353662500158,274.3353662500158,274.3353662500158,275.33530662499834,4.506857208092697,200002,203,2023-03-21_15h52.47.103,DMS_BEST_eyetracking_DAN_base_12-36_looped_10minWORKING,2022.2.4,None,
22,PRED,12,0.8912401664100631,1,images/picture_2.png,images/picture_1.png,0,"[-11.733433509789462, 11.733433509789464]",-11.733433509789462,11.733433509789464,images/picture_2.png,1,"[11.733433509789464, 11.733433509789462]",11.733433509789464,11.733433509789462,images/picture_3.png,2,"[-11.733433509789466, -11.733433509789462]",-11.733433509789464,-11.733433509789462,0,1,1,0.8912401664100631,1.8912401664100633,1.108759833589937,3,1,1.6412401664100633,0,2,0,2,0,0,7,7,4,,,,,,,,,,,,,,,,,,,,,200002,203,2023-03-21_15h52.47.103,DMS_BEST_eyetracking_DAN_base_12-36_looped_10minWORKING,2022.2.4,None,
22,PRED,12,0.8912401664100631,1,images/picture_2.png,images/picture_1.png,0,"[-11.733433509789462, 11.733433509789464]",-11.733433509789462,11.733433509789464,images/picture_2.png,1,"[11.733433509789464, 11.733433509789462]",11.733433509789464,11.733433509789462,images/picture_3.png,2,"[-11.733433509789466, -11.733433509789462]",-11.733433509789464,-11.733433509789462,0,1,1,0.8912401664100631,1.8912401664100633,1.108759833589937,3,1,1.6412401664100633,0,2,0,2,0,0,7,7,4,,,,,,,0.006913415971212089,276.86888970795553,276.86888970795553,277.8689338749973,278.23528737493325,278.23528737493325,278.23528737493325,278.5214353329502,279.35471362504177,279.35471362504177,279.35471362504177,279.35471362504177,280.36880383302923,4.511575583019294,200002,203,2023-03-21_15h52.47.103,DMS_BEST_eyetracking_DAN_base_12-36_looped_10minWORKING,2022.2.4,None,
20,PRED,12,0.7859862796653942,1,images/picture_2.png,images/picture_1.png,0,"[-11.733433509789462, 11.733433509789464]",-11.733433509789462,11.733433509789464,images/picture_2.png,1,"[11.733433509789464, 11.733433509789462]",11.733433509789464,11.733433509789462,images/picture_3.png,2,"[11.733433509789462, -11.733433509789466]",11.733433509789462,-11.733433509789464,0,1,1,0.7859862796653942,1.7859862796653942,1.2140137203346058,3,1,1.5359862796653942,0,2,0,2,0,0,8,8,2,,,,,,,,,,,,,,,,,,,,,200002,203,2023-03-21_15h52.47.103,DMS_BEST_eyetracking_DAN_base_12-36_looped_10minWORKING,2022.2.4,None,
20,PRED,12,0.7859862796653942,1,images/picture_2.png,images/picture_1.png,0,"[-11.733433509789462, 11.733433509789464]",-11.733433509789462,11.733433509789464,images/picture_2.png,1,"[11.733433509789464, 11.733433509789462]",11.733433509789464,11.733433509789462,images/picture_3.png,2,"[11.733433509789462, -11.733433509789466]",11.733433509789462,-11.733433509789464,0,1,1,0.7859862796653942,1.7859862796653942,1.2140137203346058,3,1,1.5359862796653942,0,2,0,2,0,0,8,8,2,,,,,,,0.004946542088873684,281.89052454195917,281.89052454195917,282.90222199994605,283.16921262501273,283.16921262501273,283.16921262501273,283.4356861249544,284.3687716249842,284.38750529196113,284.38750529196113,284.38750529196113,285.3687594169751,4.520437834085897,200002,203,2023-03-21_15h52.47.103,DMS_BEST_eyetracking_DAN_base_12-36_looped_10minWORKING,2022.2.4,None,
,,,,,,,,,,,,,,,,,,,,,,,,,,,,,,,2,0,2,0,,,,,,,,,286.52934387500864,299.0610883749323,,,,,,,,,,,,,,,200002,203,2023-03-21_15h52.47.103,DMS_BEST_eyetracking_DAN_base_12-36_looped_10minWORKING,2022.2.4,None,
32,UNPRED,12,0.5207550770284519,0,images/picture_1.png,images/picture_1.png,0,"[11.733433509789464, 11.733433509789462]",11.733433509789464,11.733433509789462,images/picture_2.png,1,"[-11.733433509789462, 11.733433509789464]",-11.733433509789462,11.733433509789464,images/picture_3.png,2,"[11.733433509789462, -11.733433509789466]",11.733433509789462,-11.733433509789464,0,1,1,0.5207550770284519,1.520755077028452,1.479244922971548,3,1,1.2707550770284521,0,3,0,3,0,0,0,0,5,,,,,,,,,,,,,,,,,,,,,200002,203,2023-03-21_15h52.47.103,DMS_BEST_eyetracking_DAN_base_12-36_looped_10minWORKING,2022.2.4,None,
32,UNPRED,12,0.5207550770284519,0,images/picture_1.png,images/picture_1.png,0,"[11.733433509789464, 11.733433509789462]",11.733433509789464,11.733433509789462,images/picture_2.png,1,"[-11.733433509789462, 11.733433509789464]",-11.733433509789462,11.733433509789464,images/picture_3.png,2,"[11.733433509789462, -11.733433509789466]",11.733433509789462,-11.733433509789464,0,1,1,0.5207550770284519,1.520755077028452,1.479244922971548,3,1,1.2707550770284521,0,3,0,3,0,0,0,0,5,,,,,,,0.004164332989603281,299.0610883749323,299.0610883749323,300.06877549993806,300.06877549993806,300.06877549993806,300.06877549993806,300.33576754201204,301.55521649995353,301.55521649995353,301.55521649995353,301.55521649995353,302.56876529194415,4.511635249946266,200002,203,2023-03-21_15h52.47.103,DMS_BEST_eyetracking_DAN_base_12-36_looped_10minWORKING,2022.2.4,None,
27,UNPRED,12,0.5411553472003799,1,images/picture_2.png,images/picture_1.png,0,"[11.733433509789464, 11.733433509789462]",11.733433509789464,11.733433509789462,images/picture_2.png,1,"[-11.733433509789466, -11.733433509789462]",-11.733433509789464,-11.733433509789462,images/picture_3.png,2,"[11.733433509789462, -11.733433509789466]",11.733433509789462,-11.733433509789464,0,1,1,0.5411553472003799,1.5411553472003798,1.4588446527996202,3,1,1.2911553472003798,0,3,0,3,0,0,1,1,0,,,,,,,,,,,,,,,,,,,,,200002,203,2023-03-21_15h52.47.103,DMS_BEST_eyetracking_DAN_base_12-36_looped_10minWORKING,2022.2.4,None,
27,UNPRED,12,0.5411553472003799,1,images/picture_2.png,images/picture_1.png,0,"[11.733433509789464, 11.733433509789462]",11.733433509789464,11.733433509789462,images/picture_2.png,1,"[-11.733433509789466, -11.733433509789462]",-11.733433509789464,-11.733433509789462,images/picture_3.png,2,"[11.733433509789462, -11.733433509789466]",11.733433509789462,-11.733433509789464,0,1,1,0.5411553472003799,1.5411553472003798,1.4588446527996202,3,1,1.2911553472003798,0,3,0,3,0,0,1,1,0,,,,,,,0.007523832959122956,304.08526845800225,304.08526845800225,305.08762133296113,305.1019532920327,305.1019532920327,305.1019532920327,305.3876377500128,306.56880250002723,306.56880250002723,306.56880250002723,306.56880250002723,307.56900599994697,4.5090279169380665,200002,203,2023-03-21_15h52.47.103,DMS_BEST_eyetracking_DAN_base_12-36_looped_10minWORKING,2022.2.4,None,
33,UNPRED,12,1.1973613625885813,2,images/picture_3.png,images/picture_1.png,0,"[-11.733433509789466, -11.733433509789462]",-11.733433509789464,-11.733433509789462,images/picture_2.png,1,"[11.733433509789464, 11.733433509789462]",11.733433509789464,11.733433509789462,images/picture_3.png,2,"[11.733433509789462, -11.733433509789466]",11.733433509789462,-11.733433509789464,0,1,1,1.1973613625885813,2.1973613625885813,0.8026386374114187,3,1,1.9473613625885813,0,3,0,3,0,0,2,2,6,,,,,,,,,,,,,,,,,,,,,200002,203,2023-03-21_15h52.47.103,DMS_BEST_eyetracking_DAN_base_12-36_looped_10minWORKING,2022.2.4,None,
33,UNPRED,12,1.1973613625885813,2,images/picture_3.png,images/picture_1.png,0,"[-11.733433509789466, -11.733433509789462]",-11.733433509789464,-11.733433509789462,images/picture_2.png,1,"[11.733433509789464, 11.733433509789462]",11.733433509789464,11.733433509789462,images/picture_3.png,2,"[11.733433509789462, -11.733433509789466]",11.733433509789462,-11.733433509789464,0,1,1,1.1973613625885813,2.1973613625885813,0.8026386374114187,3,1,1.9473613625885813,0,3,0,3,0,0,2,2,6,,,,,,,0.004402542021125555,309.1046167919412,309.1046167919412,310.10245283297263,310.78837429196574,310.78837429196574,310.78837429196574,311.0549622499384,311.5883914580336,311.6022943749558,311.6022943749558,311.6022943749558,312.6025001249509,4.506158957956359,200002,203,2023-03-21_15h52.47.103,DMS_BEST_eyetracking_DAN_base_12-36_looped_10minWORKING,2022.2.4,None,
34,UNPRED,12,0.5534593100566036,1,images/picture_2.png,images/picture_1.png,0,"[-11.733433509789466, -11.733433509789462]",-11.733433509789464,-11.733433509789462,images/picture_2.png,1,"[-11.733433509789462, 11.733433509789464]",-11.733433509789462,11.733433509789464,images/picture_3.png,2,"[11.733433509789462, -11.733433509789466]",11.733433509789462,-11.733433509789464,0,1,1,0.5534593100566036,1.5534593100566036,1.4465406899433964,3,1,1.3034593100566036,0,3,0,3,0,0,3,3,7,,,,,,,,,,,,,,,,,,,,,200002,203,2023-03-21_15h52.47.103,DMS_BEST_eyetracking_DAN_base_12-36_looped_10minWORKING,2022.2.4,None,
34,UNPRED,12,0.5534593100566036,1,images/picture_2.png,images/picture_1.png,0,"[-11.733433509789466, -11.733433509789462]",-11.733433509789464,-11.733433509789462,images/picture_2.png,1,"[-11.733433509789462, 11.733433509789464]",-11.733433509789462,11.733433509789464,images/picture_3.png,2,"[11.733433509789462, -11.733433509789466]",11.733433509789462,-11.733433509789464,0,1,1,0.5534593100566036,1.5534593100566036,1.4465406899433964,3,1,1.3034593100566036,0,3,0,3,0,0,3,3,7,,,,,,,0.006224833079613745,314.113702832954,314.113702832954,315.12103091704194,315.1544509580126,315.1544509580126,315.1544509580126,315.42073895793874,316.6024601670215,316.6024601670215,316.6024601670215,316.6024601670215,317.6025003329851,4.5074195000343025,200002,203,2023-03-21_15h52.47.103,DMS_BEST_eyetracking_DAN_base_12-36_looped_10minWORKING,2022.2.4,None,
31,UNPRED,12,1.1145042234069966,1,images/picture_2.png,images/picture_1.png,0,"[-11.733433509789462, 11.733433509789464]",-11.733433509789462,11.733433509789464,images/picture_2.png,1,"[11.733433509789462, -11.733433509789466]",11.733433509789462,-11.733433509789464,images/picture_3.png,2,"[-11.733433509789466, -11.733433509789462]",-11.733433509789464,-11.733433509789462,0,1,1,1.1145042234069966,2.1145042234069966,0.8854957765930034,3,1,1.8645042234069968,0,3,0,3,0,0,4,4,4,,,,,,,,,,,,,,,,,,,,,200002,203,2023-03-21_15h52.47.103,DMS_BEST_eyetracking_DAN_base_12-36_looped_10minWORKING,2022.2.4,None,
31,UNPRED,12,1.1145042234069966,1,images/picture_2.png,images/picture_1.png,0,"[-11.733433509789462, 11.733433509789464]",-11.733433509789462,11.733433509789464,images/picture_2.png,1,"[11.733433509789462, -11.733433509789466]",11.733433509789462,-11.733433509789464,images/picture_3.png,2,"[-11.733433509789466, -11.733433509789462]",-11.733433509789464,-11.733433509789462,0,1,1,1.1145042234069966,2.1145042234069966,0.8854957765930034,3,1,1.8645042234069968,0,3,0,3,0,0,4,4,4,,,,,,,0.005952958017587662,319.13078408304136,319.13078408304136,320.13546679203864,320.7356867919443,320.7356867919443,320.7356867919443,321.00251016695984,321.62175462499727,321.6358655829681,321.6358655829681,321.6358655829681,322.63575470796786,4.511998041067272,200002,203,2023-03-21_15h52.47.103,DMS_BEST_eyetracking_DAN_base_12-36_looped_10minWORKING,2022.2.4,None,
28,UNPRED,12,1.0837197627727524,2,images/picture_3.png,images/picture_1.png,0,"[11.733433509789464, 11.733433509789462]",11.733433509789464,11.733433509789462,images/picture_2.png,1,"[11.733433509789462, -11.733433509789466]",11.733433509789462,-11.733433509789464,images/picture_3.png,2,"[-11.733433509789466, -11.733433509789462]",-11.733433509789464,-11.733433509789462,0,1,1,1.0837197627727524,2.0837197627727524,0.9162802372272476,3,1,1.8337197627727524,0,3,0,3,0,0,5,5,1,,,,,,,,,,,,,,,,,,,,,200002,203,2023-03-21_15h52.47.103,DMS_BEST_eyetracking_DAN_base_12-36_looped_10minWORKING,2022.2.4,None,
28,UNPRED,12,1.0837197627727524,2,images/picture_3.png,images/picture_1.png,0,"[11.733433509789464, 11.733433509789462]",11.733433509789464,11.733433509789462,images/picture_2.png,1,"[11.733433509789462, -11.733433509789466]",11.733433509789462,-11.733433509789464,images/picture_3.png,2,"[-11.733433509789466, -11.733433509789462]",-11.733433509789464,-11.733433509789462,0,1,1,1.0837197627727524,2.0837197627727524,0.9162802372272476,3,1,1.8337197627727524,0,3,0,3,0,0,5,5,1,,,,,,,0.004804665921255946,324.1558830830036,324.1558830830036,325.16910554200877,325.7207742499886,325.7207742499886,325.7207742499886,326.0023843749659,326.635630707955,326.635630707955,326.635630707955,326.635630707955,327.63582912494894,4.5210118748946115,200002,203,2023-03-21_15h52.47.103,DMS_BEST_eyetracking_DAN_base_12-36_looped_10minWORKING,2022.2.4,None,
30,UNPRED,12,0.6605271261679213,0,images/picture_1.png,images/picture_1.png,0,"[11.733433509789464, 11.733433509789462]",11.733433509789464,11.733433509789462,images/picture_2.png,1,"[-11.733433509789466, -11.733433509789462]",-11.733433509789464,-11.733433509789462,images/picture_3.png,2,"[11.733433509789462, -11.733433509789466]",11.733433509789462,-11.733433509789464,0,1,1,0.6605271261679213,1.6605271261679213,1.3394728738320787,3,1,1.4105271261679213,0,3,0,3,0,0,6,6,3,,,,,,,,,,,,,,,,,,,,,200002,203,2023-03-21_15h52.47.103,DMS_BEST_eyetracking_DAN_base_12-36_looped_10minWORKING,2022.2.4,None,
30,UNPRED,12,0.6605271261679213,0,images/picture_1.png,images/picture_1.png,0,"[11.733433509789464, 11.733433509789462]",11.733433509789464,11.733433509789462,images/picture_2.png,1,"[-11.733433509789466, -11.733433509789462]",-11.733433509789464,-11.733433509789462,images/picture_3.png,2,"[11.733433509789462, -11.733433509789466]",11.733433509789462,-11.733433509789464,0,1,1,0.6605271261679213,1.6605271261679213,1.3394728738320787,3,1,1.4105271261679213,0,3,0,3,0,0,6,6,3,,,,,,,0.007239916943944991,329.181610916974,329.181610916974,330.1885246250313,330.33580195799004,330.33580195799004,330.33580195799004,330.60254550003447,331.669005917036,331.6886380419601,331.6886380419601,331.6886380419601,332.66920395800844,4.508480750024319,200002,203,2023-03-21_15h52.47.103,DMS_BEST_eyetracking_DAN_base_12-36_looped_10minWORKING,2022.2.4,None,
35,UNPRED,12,0.8351384816259939,1,images/picture_2.png,images/picture_1.png,0,"[-11.733433509789466, -11.733433509789462]",-11.733433509789464,-11.733433509789462,images/picture_2.png,1,"[-11.733433509789462, 11.733433509789464]",-11.733433509789462,11.733433509789464,images/picture_3.png,2,"[11.733433509789462, -11.733433509789466]",11.733433509789462,-11.733433509789464,0,1,1,0.8351384816259939,1.8351384816259941,1.1648615183740059,3,1,1.5851384816259941,0,3,0,3,0,0,7,7,8,,,,,,,,,,,,,,,,,,,,,200002,203,2023-03-21_15h52.47.103,DMS_BEST_eyetracking_DAN_base_12-36_looped_10minWORKING,2022.2.4,None,
35,UNPRED,12,0.8351384816259939,1,images/picture_2.png,images/picture_1.png,0,"[-11.733433509789466, -11.733433509789462]",-11.733433509789464,-11.733433509789462,images/picture_2.png,1,"[-11.733433509789462, 11.733433509789464]",-11.733433509789462,11.733433509789464,images/picture_3.png,2,"[11.733433509789462, -11.733433509789466]",11.733433509789462,-11.733433509789464,0,1,1,0.8351384816259939,1.8351384816259941,1.1648615183740059,3,1,1.5851384816259941,0,3,0,3,0,0,7,7,8,,,,,,,0.007471166085451841,334.20236574998125,334.20236574998125,335.2025520829484,335.5218577919295,335.5218577919295,335.5218577919295,335.8022302919999,336.6878608330153,336.70244845794514,336.70244845794514,336.70244845794514,337.7026995830238,4.512532083084807,200002,203,2023-03-21_15h52.47.103,DMS_BEST_eyetracking_DAN_base_12-36_looped_10minWORKING,2022.2.4,None,
29,UNPRED,12,0.9935550275216298,0,images/picture_1.png,images/picture_1.png,0,"[-11.733433509789466, -11.733433509789462]",-11.733433509789464,-11.733433509789462,images/picture_2.png,1,"[11.733433509789462, -11.733433509789466]",11.733433509789462,-11.733433509789464,images/picture_3.png,2,"[-11.733433509789462, 11.733433509789464]",-11.733433509789462,11.733433509789464,0,1,1,0.9935550275216298,1.9935550275216296,1.0064449724783702,3,1,1.7435550275216298,0,3,0,3,0,0,8,8,2,,,,,,,,,,,,,,,,,,,,,200002,203,2023-03-21_15h52.47.103,DMS_BEST_eyetracking_DAN_base_12-36_looped_10minWORKING,2022.2.4,None,
29,UNPRED,12,0.9935550275216298,0,images/picture_1.png,images/picture_1.png,0,"[-11.733433509789466, -11.733433509789462]",-11.733433509789464,-11.733433509789462,images/picture_2.png,1,"[11.733433509789462, -11.733433509789466]",11.733433509789462,-11.733433509789464,images/picture_3.png,2,"[-11.733433509789462, 11.733433509789464]",-11.733433509789462,11.733433509789464,0,1,1,0.9935550275216298,1.9935550275216296,1.0064449724783702,3,1,1.7435550275216298,0,3,0,3,0,0,8,8,2,,,,,,,0.0045559159480035305,339.2233672919683,339.2233672919683,340.23606266698334,340.7025540419854,340.7025540419854,340.7025540419854,340.9692835829919,341.70284320798237,341.72228899993934,341.72228899993934,341.72228899993934,342.7026383749908,4.520459832972847,200002,203,2023-03-21_15h52.47.103,DMS_BEST_eyetracking_DAN_base_12-36_looped_10minWORKING,2022.2.4,None,
,,,,,,,,,,,,,,,,,,,,,,,,,,,,,,,3,0,3,0,,,,,,,,,343.8094082919415,356.3479755829321,,,,,,,,,,,,,,,200002,203,2023-03-21_15h52.47.103,DMS_BEST_eyetracking_DAN_base_12-36_looped_10minWORKING,2022.2.4,None,
39,PRED,12,1.1906732414593073,1,images/picture_2.png,images/picture_1.png,0,"[11.733433509789462, -11.733433509789466]",11.733433509789462,-11.733433509789464,images/picture_2.png,1,"[-11.733433509789466, -11.733433509789462]",-11.733433509789464,-11.733433509789462,images/picture_3.png,2,"[-11.733433509789462, 11.733433509789464]",-11.733433509789462,11.733433509789464,0,1,1,1.1906732414593073,2.1906732414593066,0.8093267585406927,3,1,1.9406732414593069,0,4,0,4,0,0,0,0,3,,,,,,,,,,,,,,,,,,,,,200002,203,2023-03-21_15h52.47.103,DMS_BEST_eyetracking_DAN_base_12-36_looped_10minWORKING,2022.2.4,None,
39,PRED,12,1.1906732414593073,1,images/picture_2.png,images/picture_1.png,0,"[11.733433509789462, -11.733433509789466]",11.733433509789462,-11.733433509789464,images/picture_2.png,1,"[-11.733433509789466, -11.733433509789462]",-11.733433509789464,-11.733433509789462,images/picture_3.png,2,"[-11.733433509789462, 11.733433509789464]",-11.733433509789462,11.733433509789464,0,1,1,1.1906732414593073,2.1906732414593066,0.8093267585406927,3,1,1.9406732414593069,0,4,0,4,0,0,0,0,3,,,,,,,0.004966167034581304,356.3479755829321,356.3479755829321,357.3548719580285,358.0221138750203,358.0221138750203,358.0221138750203,358.3025889999699,358.8360162919853,358.8360162919853,358.8360162919853,358.8360162919853,359.835784249939,4.508242332958616,200002,203,2023-03-21_15h52.47.103,DMS_BEST_eyetracking_DAN_base_12-36_looped_10minWORKING,2022.2.4,None,
37,PRED,12,0.6468872004361669,1,images/picture_2.png,images/picture_1.png,0,"[-11.733433509789462, 11.733433509789464]",-11.733433509789462,11.733433509789464,images/picture_2.png,1,"[-11.733433509789466, -11.733433509789462]",-11.733433509789464,-11.733433509789462,images/picture_3.png,2,"[11.733433509789462, -11.733433509789466]",11.733433509789462,-11.733433509789464,0,1,1,0.6468872004361669,1.6468872004361668,1.3531127995638332,3,1,1.3968872004361668,0,4,0,4,0,0,1,1,1,,,,,,,,,,,,,,,,,,,,,200002,203,2023-03-21_15h52.47.103,DMS_BEST_eyetracking_DAN_base_12-36_looped_10minWORKING,2022.2.4,None,
37,PRED,12,0.6468872004361669,1,images/picture_2.png,images/picture_1.png,0,"[-11.733433509789462, 11.733433509789464]",-11.733433509789462,11.733433509789464,images/picture_2.png,1,"[-11.733433509789466, -11.733433509789462]",-11.733433509789464,-11.733433509789462,images/picture_3.png,2,"[11.733433509789462, -11.733433509789466]",11.733433509789462,-11.733433509789464,0,1,1,0.6468872004361669,1.6468872004361668,1.3531127995638332,3,1,1.3968872004361668,0,4,0,4,0,0,1,1,1,,,,,,,0.0049308749148622155,361.3703496250091,361.3703496250091,362.3690961250104,362.5025633330224,362.5025633330224,362.5025633330224,362.76927283301484,363.85510099993553,363.86926624993794,363.86926624993794,363.86926624993794,364.869235708029,4.506303415982984,200002,203,2023-03-21_15h52.47.103,DMS_BEST_eyetracking_DAN_base_12-36_looped_10minWORKING,2022.2.4,None,
40,PRED,12,1.0787823086363315,1,images/picture_2.png,images/picture_1.png,0,"[11.733433509789464, 11.733433509789462]",11.733433509789464,11.733433509789462,images/picture_2.png,1,"[-11.733433509789462, 11.733433509789464]",-11.733433509789462,11.733433509789464,images/picture_3.png,2,"[-11.733433509789466, -11.733433509789462]",-11.733433509789464,-11.733433509789462,0,1,1,1.0787823086363315,2.0787823086363315,0.9212176913636684,3,1,1.8287823086363315,0,4,0,4,0,0,2,2,4,,,,,,,,,,,,,,,,,,,,,200002,203,2023-03-21_15h52.47.103,DMS_BEST_eyetracking_DAN_base_12-36_looped_10minWORKING,2022.2.4,None,
40,PRED,12,1.0787823086363315,1,images/picture_2.png,images/picture_1.png,0,"[11.733433509789464, 11.733433509789462]",11.733433509789464,11.733433509789462,images/picture_2.png,1,"[-11.733433509789462, 11.733433509789464]",-11.733433509789462,11.733433509789464,images/picture_3.png,2,"[-11.733433509789466, -11.733433509789462]",-11.733433509789464,-11.733433509789462,0,1,1,1.0787823086363315,2.0787823086363315,0.9212176913636684,3,1,1.8287823086363315,0,4,0,4,0,0,2,2,4,,,,,,,0.00601041701156646,366.37906770803966,366.37906770803966,367.38846737495624,367.9552132500103,367.9552132500103,367.9552132500103,368.22194829199,368.8692221250385,368.8887265420053,368.8887265420053,368.8887265420053,369.86924641695805,4.507422083057463,200002,203,2023-03-21_15h52.47.103,DMS_BEST_eyetracking_DAN_base_12-36_looped_10minWORKING,2022.2.4,None,
43,PRED,12,0.9915837971111329,1,images/picture_2.png,images/picture_1.png,0,"[-11.733433509789466, -11.733433509789462]",-11.733433509789464,-11.733433509789462,images/picture_2.png,1,"[11.733433509789462, -11.733433509789466]",11.733433509789462,-11.733433509789464,images/picture_3.png,2,"[11.733433509789464, 11.733433509789462]",11.733433509789464,11.733433509789462,0,1,1,0.9915837971111329,1.991583797111133,1.008416202888867,3,1,1.741583797111133,0,4,0,4,0,0,3,3,7,,,,,,,,,,,,,,,,,,,,,200002,203,2023-03-21_15h52.47.103,DMS_BEST_eyetracking_DAN_base_12-36_looped_10minWORKING,2022.2.4,None,
43,PRED,12,0.9915837971111329,1,images/picture_2.png,images/picture_1.png,0,"[-11.733433509789466, -11.733433509789462]",-11.733433509789464,-11.733433509789462,images/picture_2.png,1,"[11.733433509789462, -11.733433509789466]",11.733433509789462,-11.733433509789464,images/picture_3.png,2,"[11.733433509789464, 11.733433509789462]",11.733433509789464,11.733433509789462,0,1,1,0.9915837971111329,1.991583797111133,1.008416202888867,3,1,1.741583797111133,0,4,0,4,0,0,3,3,7,,,,,,,0.006341916974633932,371.40001037495676,371.40001037495676,372.40259158296976,372.86929812503513,372.86929812503513,372.86929812503513,373.15546583302785,373.88889429194387,373.88889429194387,373.88889429194387,373.88889429194387,374.90249745803885,4.512695666984655,200002,203,2023-03-21_15h52.47.103,DMS_BEST_eyetracking_DAN_base_12-36_looped_10minWORKING,2022.2.4,None,
42,PRED,12,0.9973964848843055,1,images/picture_2.png,images/picture_1.png,0,"[11.733433509789462, -11.733433509789466]",11.733433509789462,-11.733433509789464,images/picture_2.png,1,"[-11.733433509789462, 11.733433509789464]",-11.733433509789462,11.733433509789464,images/picture_3.png,2,"[11.733433509789464, 11.733433509789462]",11.733433509789464,11.733433509789462,0,1,1,0.9973964848843055,1.9973964848843055,1.0026035151156942,3,1,1.7473964848843058,0,4,0,4,0,0,4,4,6,,,,,,,,,,,,,,,,,,,,,200002,203,2023-03-21_15h52.47.103,DMS_BEST_eyetracking_DAN_base_12-36_looped_10minWORKING,2022.2.4,None,
42,PRED,12,0.9973964848843055,1,images/picture_2.png,images/picture_1.png,0,"[11.733433509789462, -11.733433509789466]",11.733433509789462,-11.733433509789464,images/picture_2.png,1,"[-11.733433509789462, 11.733433509789464]",-11.733433509789462,11.733433509789464,images/picture_3.png,2,"[11.733433509789464, 11.733433509789462]",11.733433509789464,11.733433509789462,0,1,1,0.9973964848843055,1.9973964848843055,1.0026035151156942,3,1,1.7473964848843058,0,4,0,4,0,0,4,4,6,,,,,,,0.004999375087209046,376.4264356669737,376.4264356669737,377.4356682919897,377.9024990419857,377.9024990419857,377.9024990419857,378.1886569169583,378.9027660830179,378.9027660830179,378.9027660830179,378.9027660830179,379.9026602919912,4.518756541074254,200002,203,2023-03-21_15h52.47.103,DMS_BEST_eyetracking_DAN_base_12-36_looped_10minWORKING,2022.2.4,None,
41,PRED,12,0.6913799258449909,1,images/picture_2.png,images/picture_1.png,0,"[11.733433509789462, -11.733433509789466]",11.733433509789462,-11.733433509789464,images/picture_2.png,1,"[-11.733433509789466, -11.733433509789462]",-11.733433509789464,-11.733433509789462,images/picture_3.png,2,"[-11.733433509789462, 11.733433509789464]",-11.733433509789462,11.733433509789464,0,1,1,0.6913799258449909,1.6913799258449909,1.3086200741550091,3,1,1.4413799258449909,0,4,0,4,0,0,5,5,5,,,,,,,,,,,,,,,,,,,,,200002,203,2023-03-21_15h52.47.103,DMS_BEST_eyetracking_DAN_base_12-36_looped_10minWORKING,2022.2.4,None,
41,PRED,12,0.6913799258449909,1,images/picture_2.png,images/picture_1.png,0,"[11.733433509789462, -11.733433509789466]",11.733433509789462,-11.733433509789464,images/picture_2.png,1,"[-11.733433509789466, -11.733433509789462]",-11.733433509789464,-11.733433509789462,images/picture_3.png,2,"[-11.733433509789462, 11.733433509789464]",-11.733433509789462,11.733433509789464,0,1,1,0.6913799258449909,1.6913799258449909,1.3086200741550091,3,1,1.4413799258449909,0,4,0,4,0,0,5,5,5,,,,,,,0.006448458996601403,381.44910466694273,381.44910466694273,382.4555349169532,382.6356662079925,382.6356662079925,382.6356662079925,382.9027258330025,383.935745249968,383.9554435829632,383.9554435829632,383.9554435829632,384.9361067500431,4.5058335000649095,200002,203,2023-03-21_15h52.47.103,DMS_BEST_eyetracking_DAN_base_12-36_looped_10minWORKING,2022.2.4,None,
36,PRED,12,0.6899039694886517,1,images/picture_2.png,images/picture_1.png,0,"[11.733433509789464, 11.733433509789462]",11.733433509789464,11.733433509789462,images/picture_2.png,1,"[11.733433509789462, -11.733433509789466]",11.733433509789462,-11.733433509789464,images/picture_3.png,2,"[-11.733433509789462, 11.733433509789464]",-11.733433509789462,11.733433509789464,0,1,1,0.6899039694886517,1.6899039694886515,1.3100960305113485,3,1,1.4399039694886515,0,4,0,4,0,0,6,6,0,,,,,,,,,,,,,,,,,,,,,200002,203,2023-03-21_15h52.47.103,DMS_BEST_eyetracking_DAN_base_12-36_looped_10minWORKING,2022.2.4,None,
36,PRED,12,0.6899039694886517,1,images/picture_2.png,images/picture_1.png,0,"[11.733433509789464, 11.733433509789462]",11.733433509789464,11.733433509789462,images/picture_2.png,1,"[11.733433509789462, -11.733433509789466]",11.733433509789462,-11.733433509789464,images/picture_3.png,2,"[-11.733433509789462, 11.733433509789464]",-11.733433509789462,11.733433509789464,0,1,1,0.6899039694886517,1.6899039694886515,1.3100960305113485,3,1,1.4399039694886515,0,4,0,4,0,0,6,6,0,,,,,,,0.00580875005107373,386.46504145802464,386.46504145802464,387.46901712496765,387.6356987080071,387.6356987080071,387.6356987080071,387.9027031669393,388.95600370795,388.95600370795,388.95600370795,388.95600370795,389.9692833329318,4.512534958077595,200002,203,2023-03-21_15h52.47.103,DMS_BEST_eyetracking_DAN_base_12-36_looped_10minWORKING,2022.2.4,None,
38,PRED,12,0.6402662405107812,1,images/picture_2.png,images/picture_1.png,0,"[-11.733433509789462, 11.733433509789464]",-11.733433509789462,11.733433509789464,images/picture_2.png,1,"[11.733433509789462, -11.733433509789466]",11.733433509789462,-11.733433509789464,images/picture_3.png,2,"[11.733433509789464, 11.733433509789462]",11.733433509789464,11.733433509789462,0,1,1,0.6402662405107812,1.640266240510781,1.359733759489219,3,1,1.390266240510781,0,4,0,4,0,0,7,7,2,,,,,,,,,,,,,,,,,,,,,200002,203,2023-03-21_15h52.47.103,DMS_BEST_eyetracking_DAN_base_12-36_looped_10minWORKING,2022.2.4,None,
38,PRED,12,0.6402662405107812,1,images/picture_2.png,images/picture_1.png,0,"[-11.733433509789462, 11.733433509789464]",-11.733433509789462,11.733433509789464,images/picture_2.png,1,"[11.733433509789462, -11.733433509789466]",11.733433509789462,-11.733433509789464,images/picture_3.png,2,"[11.733433509789464, 11.733433509789462]",11.733433509789464,11.733433509789462,0,1,1,0.6402662405107812,1.640266240510781,1.359733759489219,3,1,1.390266240510781,0,4,0,4,0,0,7,7,2,,,,,,,0.004944917047396302,391.4876016669441,391.4876016669441,392.50255783298053,392.62205979193095,392.62205979193095,392.62205979193095,392.8886195420055,393.96926258294843,393.98849350004457,393.98849350004457,393.98849350004457,394.96927183296066,4.52107545803301,200002,203,2023-03-21_15h52.47.103,DMS_BEST_eyetracking_DAN_base_12-36_looped_10minWORKING,2022.2.4,None,
44,PRED,12,0.6142341549537891,1,images/picture_2.png,images/picture_1.png,0,"[-11.733433509789462, 11.733433509789464]",-11.733433509789462,11.733433509789464,images/picture_2.png,1,"[-11.733433509789466, -11.733433509789462]",-11.733433509789464,-11.733433509789462,images/picture_3.png,2,"[11.733433509789462, -11.733433509789466]",11.733433509789462,-11.733433509789464,0,1,1,0.6142341549537891,1.614234154953789,1.385765845046211,3,1,1.364234154953789,0,4,0,4,0,0,8,8,8,,,,,,,,,,,,,,,,,,,,,200002,203,2023-03-21_15h52.47.103,DMS_BEST_eyetracking_DAN_base_12-36_looped_10minWORKING,2022.2.4,None,
44,PRED,12,0.6142341549537891,1,images/picture_2.png,images/picture_1.png,0,"[-11.733433509789462, 11.733433509789464]",-11.733433509789462,11.733433509789464,images/picture_2.png,1,"[-11.733433509789466, -11.733433509789462]",-11.733433509789464,-11.733433509789462,images/picture_3.png,2,"[11.733433509789462, -11.733433509789466]",11.733433509789462,-11.733433509789464,0,1,1,0.6142341549537891,1.614234154953789,1.385765845046211,3,1,1.364234154953789,0,4,0,4,0,0,8,8,8,,,,,,,0.006235165987163782,396.516371042002,396.516371042002,397.52222625003196,397.6211830419488,397.6211830419488,397.6211830419488,397.8879438750446,399.002580667031,399.02201195794623,399.02201195794623,399.02201195794623,400.00252033304423,4.505355375004001,200002,203,2023-03-21_15h52.47.103,DMS_BEST_eyetracking_DAN_base_12-36_looped_10minWORKING,2022.2.4,None,
,,,,,,,,,,,,,,,,,,,,,,,,,,,,,,,4,0,4,0,,,,,,,,,401.1204025419429,413.66637220804114,,,,,,,,,,,,,,,200002,203,2023-03-21_15h52.47.103,DMS_BEST_eyetracking_DAN_base_12-36_looped_10minWORKING,2022.2.4,None,
51,UNPRED,12,0.7973896885548948,0,images/picture_1.png,images/picture_1.png,0,"[11.733433509789464, 11.733433509789462]",11.733433509789464,11.733433509789462,images/picture_2.png,1,"[-11.733433509789462, 11.733433509789464]",-11.733433509789462,11.733433509789464,images/picture_3.png,2,"[11.733433509789462, -11.733433509789466]",11.733433509789462,-11.733433509789464,0,1,1,0.7973896885548948,1.7973896885548948,1.2026103114451052,3,1,1.5473896885548948,0,5,0,5,0,0,0,0,6,,,,,,,,,,,,,,,,,,,,,200002,203,2023-03-21_15h52.47.103,DMS_BEST_eyetracking_DAN_base_12-36_looped_10minWORKING,2022.2.4,None,
51,UNPRED,12,0.7973896885548948,0,images/picture_1.png,images/picture_1.png,0,"[11.733433509789464, 11.733433509789462]",11.733433509789464,11.733433509789462,images/picture_2.png,1,"[-11.733433509789462, 11.733433509789464]",-11.733433509789462,11.733433509789464,images/picture_3.png,2,"[11.733433509789462, -11.733433509789466]",11.733433509789462,-11.733433509789464,0,1,1,0.7973896885548948,1.7973896885548948,1.2026103114451052,3,1,1.5473896885548948,0,5,0,5,0,0,0,0,6,,,,,,,0.003835708019323647,413.66637220804114,413.66637220804114,414.66904008295387,414.9550415419508,414.9550415419508,414.9550415419508,415.2208992500091,416.1550358750392,416.16908016696107,416.16908016696107,416.16908016696107,417.1689876250457,4.510995207936503,200002,203,2023-03-21_15h52.47.103,DMS_BEST_eyetracking_DAN_base_12-36_looped_10minWORKING,2022.2.4,None,
49,UNPRED,12,0.7919112707580939,0,images/picture_1.png,images/picture_1.png,0,"[-11.733433509789466, -11.733433509789462]",-11.733433509789464,-11.733433509789462,images/picture_2.png,1,"[11.733433509789464, 11.733433509789462]",11.733433509789464,11.733433509789462,images/picture_3.png,2,"[11.733433509789462, -11.733433509789466]",11.733433509789462,-11.733433509789464,0,1,1,0.7919112707580939,1.791911270758094,1.208088729241906,3,1,1.541911270758094,0,5,0,5,0,0,1,1,4,,,,,,,,,,,,,,,,,,,,,200002,203,2023-03-21_15h52.47.103,DMS_BEST_eyetracking_DAN_base_12-36_looped_10minWORKING,2022.2.4,None,
49,UNPRED,12,0.7919112707580939,0,images/picture_1.png,images/picture_1.png,0,"[-11.733433509789466, -11.733433509789462]",-11.733433509789464,-11.733433509789462,images/picture_2.png,1,"[11.733433509789464, 11.733433509789462]",11.733433509789464,11.733433509789462,images/picture_3.png,2,"[11.733433509789462, -11.733433509789466]",11.733433509789462,-11.733433509789464,0,1,1,0.7919112707580939,1.791911270758094,1.208088729241906,3,1,1.541911270758094,0,5,0,5,0,0,1,1,4,,,,,,,0.001488666981458664,418.6802584580146,418.6802584580146,419.6878258329816,419.96896099997684,419.96896099997684,419.96896099997684,420.2357020829804,421.1690427919384,421.1883286249358,421.1883286249358,421.1883286249358,422.1690524170408,4.502912333002314,200002,203,2023-03-21_15h52.47.103,DMS_BEST_eyetracking_DAN_base_12-36_looped_10minWORKING,2022.2.4,None,
45,UNPRED,12,0.9084696612786872,1,images/picture_2.png,images/picture_1.png,0,"[11.733433509789464, 11.733433509789462]",11.733433509789464,11.733433509789462,images/picture_2.png,1,"[-11.733433509789466, -11.733433509789462]",-11.733433509789464,-11.733433509789462,images/picture_3.png,2,"[-11.733433509789462, 11.733433509789464]",-11.733433509789462,11.733433509789464,0,1,1,0.9084696612786872,1.9084696612786871,1.0915303387213129,3,1,1.6584696612786871,0,5,0,5,0,0,2,2,0,,,,,,,,,,,,,,,,,,,,,200002,203,2023-03-21_15h52.47.103,DMS_BEST_eyetracking_DAN_base_12-36_looped_10minWORKING,2022.2.4,None,
45,UNPRED,12,0.9084696612786872,1,images/picture_2.png,images/picture_1.png,0,"[11.733433509789464, 11.733433509789462]",11.733433509789464,11.733433509789462,images/picture_2.png,1,"[-11.733433509789466, -11.733433509789462]",-11.733433509789464,-11.733433509789462,images/picture_3.png,2,"[-11.733433509789462, 11.733433509789464]",-11.733433509789462,11.733433509789464,0,1,1,0.9084696612786872,1.9084696612786871,1.0915303387213129,3,1,1.6584696612786871,0,5,0,5,0,0,2,2,0,,,,,,,0.008250750019215047,423.6967655000044,423.6967655000044,424.70253408304416,425.08815895800944,425.08815895800944,425.08815895800944,425.36883295793086,426.18845620797947,426.18845620797947,426.18845620797947,426.18845620797947,427.2023944170214,4.51175012497697,200002,203,2023-03-21_15h52.47.103,DMS_BEST_eyetracking_DAN_base_12-36_looped_10minWORKING,2022.2.4,None,
52,UNPRED,12,1.0690865004618662,1,images/picture_2.png,images/picture_1.png,0,"[-11.733433509789466, -11.733433509789462]",-11.733433509789464,-11.733433509789462,images/picture_2.png,1,"[-11.733433509789462, 11.733433509789464]",-11.733433509789462,11.733433509789464,images/picture_3.png,2,"[11.733433509789464, 11.733433509789462]",11.733433509789464,11.733433509789462,0,1,1,1.0690865004618662,2.069086500461866,0.9309134995381338,3,1,1.8190865004618664,0,5,0,5,0,0,3,3,7,,,,,,,,,,,,,,,,,,,,,200002,203,2023-03-21_15h52.47.103,DMS_BEST_eyetracking_DAN_base_12-36_looped_10minWORKING,2022.2.4,None,
52,UNPRED,12,1.0690865004618662,1,images/picture_2.png,images/picture_1.png,0,"[-11.733433509789466, -11.733433509789462]",-11.733433509789464,-11.733433509789462,images/picture_2.png,1,"[-11.733433509789462, 11.733433509789464]",-11.733433509789462,11.733433509789464,images/picture_3.png,2,"[11.733433509789464, 11.733433509789462]",11.733433509789464,11.733433509789462,0,1,1,1.0690865004618662,2.069086500461866,0.9309134995381338,3,1,1.8190865004618664,0,5,0,5,0,0,3,3,7,,,,,,,0.0027353749610483646,428.7147885420127,428.7147885420127,429.72165283293,430.26897191698663,430.26897191698663,430.26897191698663,430.5357476249337,431.20213408302516,431.20213408302516,431.20213408302516,431.20213408302516,432.2023228330072,4.50509350001812,200002,203,2023-03-21_15h52.47.103,DMS_BEST_eyetracking_DAN_base_12-36_looped_10minWORKING,2022.2.4,None,
46,UNPRED,12,1.0240405141085382,1,images/picture_2.png,images/picture_1.png,0,"[-11.733433509789466, -11.733433509789462]",-11.733433509789464,-11.733433509789462,images/picture_2.png,1,"[11.733433509789462, -11.733433509789466]",11.733433509789462,-11.733433509789464,images/picture_3.png,2,"[-11.733433509789462, 11.733433509789464]",-11.733433509789462,11.733433509789464,0,1,1,1.0240405141085382,2.0240405141085382,0.9759594858914618,3,1,1.7740405141085382,0,5,0,5,0,0,4,4,1,,,,,,,,,,,,,,,,,,,,,200002,203,2023-03-21_15h52.47.103,DMS_BEST_eyetracking_DAN_base_12-36_looped_10minWORKING,2022.2.4,None,
46,UNPRED,12,1.0240405141085382,1,images/picture_2.png,images/picture_1.png,0,"[-11.733433509789466, -11.733433509789462]",-11.733433509789464,-11.733433509789462,images/picture_2.png,1,"[11.733433509789462, -11.733433509789466]",11.733433509789462,-11.733433509789464,images/picture_3.png,2,"[-11.733433509789462, 11.733433509789464]",-11.733433509789462,11.733433509789464,0,1,1,1.0240405141085382,2.0240405141085382,0.9759594858914618,3,1,1.7740405141085382,0,5,0,5,0,0,4,4,1,,,,,,,0.005007583065889776,433.7368754580384,433.7368754580384,434.7357817919692,435.2356827920303,435.2356827920303,435.2356827920303,435.521608458017,436.2221412080107,436.2221412080107,436.2221412080107,436.2221412080107,437.2354494170286,4.50744841597043,200002,203,2023-03-21_15h52.47.103,DMS_BEST_eyetracking_DAN_base_12-36_looped_10minWORKING,2022.2.4,None,
47,UNPRED,12,0.7182868317711746,2,images/picture_3.png,images/picture_1.png,0,"[11.733433509789462, -11.733433509789466]",11.733433509789462,-11.733433509789464,images/picture_2.png,1,"[11.733433509789464, 11.733433509789462]",11.733433509789464,11.733433509789462,images/picture_3.png,2,"[-11.733433509789462, 11.733433509789464]",-11.733433509789462,11.733433509789464,0,1,1,0.7182868317711746,1.7182868317711746,1.2817131682288254,3,1,1.4682868317711746,0,5,0,5,0,0,5,5,2,,,,,,,,,,,,,,,,,,,,,200002,203,2023-03-21_15h52.47.103,DMS_BEST_eyetracking_DAN_base_12-36_looped_10minWORKING,2022.2.4,None,
47,UNPRED,12,0.7182868317711746,2,images/picture_3.png,images/picture_1.png,0,"[11.733433509789462, -11.733433509789466]",11.733433509789462,-11.733433509789464,images/picture_2.png,1,"[11.733433509789464, 11.733433509789462]",11.733433509789464,11.733433509789462,images/picture_3.png,2,"[-11.733433509789462, 11.733433509789464]",-11.733433509789462,11.733433509789464,0,1,1,0.7182868317711746,1.7182868317711746,1.2817131682288254,3,1,1.4682868317711746,0,5,0,5,0,0,5,5,2,,,,,,,0.0053819590248167515,438.7492749169469,438.7492749169469,439.75469720794354,439.9543383329874,439.9543383329874,439.9543383329874,440.22164066694677,441.23566270794254,441.23566270794254,441.23566270794254,441.23566270794254,442.23569000000134,4.5066087919985875,200002,203,2023-03-21_15h52.47.103,DMS_BEST_eyetracking_DAN_base_12-36_looped_10minWORKING,2022.2.4,None,
53,UNPRED,12,1.0416151202084825,2,images/picture_3.png,images/picture_1.png,0,"[-11.733433509789466, -11.733433509789462]",-11.733433509789464,-11.733433509789462,images/picture_2.png,1,"[-11.733433509789462, 11.733433509789464]",-11.733433509789462,11.733433509789464,images/picture_3.png,2,"[11.733433509789462, -11.733433509789466]",11.733433509789462,-11.733433509789464,0,1,1,1.0416151202084825,2.0416151202084825,0.9583848797915177,3,1,1.7916151202084825,0,5,0,5,0,0,6,6,8,,,,,,,,,,,,,,,,,,,,,200002,203,2023-03-21_15h52.47.103,DMS_BEST_eyetracking_DAN_base_12-36_looped_10minWORKING,2022.2.4,None,
53,UNPRED,12,1.0416151202084825,2,images/picture_3.png,images/picture_1.png,0,"[-11.733433509789466, -11.733433509789462]",-11.733433509789464,-11.733433509789462,images/picture_2.png,1,"[-11.733433509789462, 11.733433509789464]",-11.733433509789462,11.733433509789464,images/picture_3.png,2,"[11.733433509789462, -11.733433509789466]",11.733433509789462,-11.733433509789464,0,1,1,1.0416151202084825,2.0416151202084825,0.9583848797915177,3,1,1.7916151202084825,0,5,0,5,0,0,6,6,8,,,,,,,0.003326374921016395,443.76885058300104,443.76885058300104,444.76894520793576,445.30228054197505,445.30228054197505,445.30228054197505,445.568940749974,446.254384333035,446.2685820829356,446.2685820829356,446.2685820829356,447.268775457982,4.506774041918106,200002,203,2023-03-21_15h52.47.103,DMS_BEST_eyetracking_DAN_base_12-36_looped_10minWORKING,2022.2.4,None,
48,UNPRED,12,0.5254850325284454,0,images/picture_1.png,images/picture_1.png,0,"[11.733433509789464, 11.733433509789462]",11.733433509789464,11.733433509789462,images/picture_2.png,1,"[11.733433509789462, -11.733433509789466]",11.733433509789462,-11.733433509789464,images/picture_3.png,2,"[-11.733433509789462, 11.733433509789464]",-11.733433509789462,11.733433509789464,0,1,1,0.5254850325284454,1.5254850325284457,1.4745149674715543,3,1,1.2754850325284457,0,5,0,5,0,0,7,7,3,,,,,,,,,,,,,,,,,,,,,200002,203,2023-03-21_15h52.47.103,DMS_BEST_eyetracking_DAN_base_12-36_looped_10minWORKING,2022.2.4,None,
48,UNPRED,12,0.5254850325284454,0,images/picture_1.png,images/picture_1.png,0,"[11.733433509789464, 11.733433509789462]",11.733433509789464,11.733433509789462,images/picture_2.png,1,"[11.733433509789462, -11.733433509789466]",11.733433509789462,-11.733433509789464,images/picture_3.png,2,"[-11.733433509789462, 11.733433509789464]",-11.733433509789462,11.733433509789464,0,1,1,0.5254850325284454,1.5254850325284457,1.4745149674715543,3,1,1.2754850325284457,0,5,0,5,0,0,7,7,3,,,,,,,0.006081499974243343,448.77936808299273,448.77936808299273,449.788160874974,449.8022547500441,449.8022547500441,449.8022547500441,450.06904324993957,451.2689764579991,451.2886647080304,451.2886647080304,451.2886647080304,452.26904599997215,4.507046667044051,200002,203,2023-03-21_15h52.47.103,DMS_BEST_eyetracking_DAN_base_12-36_looped_10minWORKING,2022.2.4,None,
50,UNPRED,12,1.0624999857882975,1,images/picture_2.png,images/picture_1.png,0,"[11.733433509789464, 11.733433509789462]",11.733433509789464,11.733433509789462,images/picture_2.png,1,"[-11.733433509789462, 11.733433509789464]",-11.733433509789462,11.733433509789464,images/picture_3.png,2,"[-11.733433509789466, -11.733433509789462]",-11.733433509789464,-11.733433509789462,0,1,1,1.0624999857882975,2.062499985788297,0.9375000142117024,3,1,1.8124999857882973,0,5,0,5,0,0,8,8,5,,,,,,,,,,,,,,,,,,,,,200002,203,2023-03-21_15h52.47.103,DMS_BEST_eyetracking_DAN_base_12-36_looped_10minWORKING,2022.2.4,None,
50,UNPRED,12,1.0624999857882975,1,images/picture_2.png,images/picture_1.png,0,"[11.733433509789464, 11.733433509789462]",11.733433509789464,11.733433509789462,images/picture_2.png,1,"[-11.733433509789462, 11.733433509789464]",-11.733433509789462,11.733433509789464,images/picture_3.png,2,"[-11.733433509789466, -11.733433509789462]",-11.733433509789464,-11.733433509789462,0,1,1,1.0624999857882975,2.062499985788297,0.9375000142117024,3,1,1.8124999857882973,0,5,0,5,0,0,8,8,5,,,,,,,0.008789416053332388,453.8047585419845,453.8047585419845,454.8023502919823,455.3547269999981,455.3547269999981,455.3547269999981,455.6222612919519,456.28830754198134,456.30250208301004,456.30250208301004,456.30250208301004,457.3022747079376,4.510901332949288,200002,203,2023-03-21_15h52.47.103,DMS_BEST_eyetracking_DAN_base_12-36_looped_10minWORKING,2022.2.4,None,
,,,,,,,,,,,,,,,,,,,,,,,,,,,,,,,5,0,5,0,,,,,,,,,458.3934722499689,470.9277854169486,,,,,,,,,,,,,,,200002,203,2023-03-21_15h52.47.103,DMS_BEST_eyetracking_DAN_base_12-36_looped_10minWORKING,2022.2.4,None,
55,PRED,12,0.600305042083536,1,images/picture_2.png,images/picture_1.png,0,"[11.733433509789464, 11.733433509789462]",11.733433509789464,11.733433509789462,images/picture_2.png,1,"[11.733433509789462, -11.733433509789466]",11.733433509789462,-11.733433509789464,images/picture_3.png,2,"[-11.733433509789462, 11.733433509789464]",-11.733433509789462,11.733433509789464,0,1,1,0.600305042083536,1.600305042083536,1.399694957916464,3,1,1.350305042083536,0,6,0,6,0,0,0,0,1,,,,,,,,,,,,,,,,,,,,,200002,203,2023-03-21_15h52.47.103,DMS_BEST_eyetracking_DAN_base_12-36_looped_10minWORKING,2022.2.4,None,
55,PRED,12,0.600305042083536,1,images/picture_2.png,images/picture_1.png,0,"[11.733433509789464, 11.733433509789462]",11.733433509789464,11.733433509789462,images/picture_2.png,1,"[11.733433509789462, -11.733433509789466]",11.733433509789462,-11.733433509789464,images/picture_3.png,2,"[-11.733433509789462, 11.733433509789464]",-11.733433509789462,11.733433509789464,0,1,1,0.600305042083536,1.600305042083536,1.399694957916464,3,1,1.350305042083536,0,6,0,6,0,0,0,0,1,,,,,,,0.0038715829141438007,470.9277854169486,470.9277854169486,471.9356453749351,472.0219840829959,472.0219840829959,472.0219840829959,472.2883437080309,473.4218525829492,473.4357183750253,473.4357183750253,473.4357183750253,474.4356806669384,4.511525291949511,200002,203,2023-03-21_15h52.47.103,DMS_BEST_eyetracking_DAN_base_12-36_looped_10minWORKING,2022.2.4,None,
54,PRED,12,0.6394780561338537,1,images/picture_2.png,images/picture_1.png,0,"[-11.733433509789462, 11.733433509789464]",-11.733433509789462,11.733433509789464,images/picture_2.png,1,"[11.733433509789464, 11.733433509789462]",11.733433509789464,11.733433509789462,images/picture_3.png,2,"[11.733433509789462, -11.733433509789466]",11.733433509789462,-11.733433509789464,0,1,1,0.6394780561338537,1.6394780561338536,1.3605219438661464,3,1,1.3894780561338536,0,6,0,6,0,0,1,1,0,,,,,,,,,,,,,,,,,,,,,200002,203,2023-03-21_15h52.47.103,DMS_BEST_eyetracking_DAN_base_12-36_looped_10minWORKING,2022.2.4,None,
54,PRED,12,0.6394780561338537,1,images/picture_2.png,images/picture_1.png,0,"[-11.733433509789462, 11.733433509789464]",-11.733433509789462,11.733433509789464,images/picture_2.png,1,"[11.733433509789464, 11.733433509789462]",11.733433509789464,11.733433509789462,images/picture_3.png,2,"[11.733433509789462, -11.733433509789466]",11.733433509789462,-11.733433509789464,0,1,1,0.6394780561338537,1.6394780561338536,1.3605219438661464,3,1,1.3894780561338536,0,6,0,6,0,0,1,1,0,,,,,,,0.0060904590645805,475.9479569999967,475.9479569999967,476.9555513749365,477.06896558299195,477.06896558299195,477.06896558299195,477.33574195799883,478.4357805829495,478.4357805829495,478.4357805829495,478.4357805829495,479.43544104194734,4.5060321249766275,200002,203,2023-03-21_15h52.47.103,DMS_BEST_eyetracking_DAN_base_12-36_looped_10minWORKING,2022.2.4,None,
56,PRED,12,0.9928288706766244,1,images/picture_2.png,images/picture_1.png,0,"[-11.733433509789466, -11.733433509789462]",-11.733433509789464,-11.733433509789462,images/picture_2.png,1,"[-11.733433509789462, 11.733433509789464]",-11.733433509789462,11.733433509789464,images/picture_3.png,2,"[11.733433509789462, -11.733433509789466]",11.733433509789462,-11.733433509789464,0,1,1,0.9928288706766244,1.9928288706766244,1.0071711293233756,3,1,1.7428288706766244,0,6,0,6,0,0,2,2,2,,,,,,,,,,,,,,,,,,,,,200002,203,2023-03-21_15h52.47.103,DMS_BEST_eyetracking_DAN_base_12-36_looped_10minWORKING,2022.2.4,None,
56,PRED,12,0.9928288706766244,1,images/picture_2.png,images/picture_1.png,0,"[-11.733433509789466, -11.733433509789462]",-11.733433509789464,-11.733433509789462,images/picture_2.png,1,"[-11.733433509789462, 11.733433509789464]",-11.733433509789462,11.733433509789464,images/picture_3.png,2,"[11.733433509789462, -11.733433509789466]",11.733433509789462,-11.733433509789464,0,1,1,0.9928288706766244,1.9928288706766244,1.0071711293233756,3,1,1.7428288706766244,0,6,0,6,0,0,2,2,2,,,,,,,0.0061747090658172965,480.9677390420111,480.9677390420111,481.9689998750109,482.43575208296534,482.43575208296534,482.43575208296534,482.72182516695466,483.455255458015,483.455255458015,483.455255458015,483.455255458015,484.46899554203264,4.512666584108956,200002,203,2023-03-21_15h52.47.103,DMS_BEST_eyetracking_DAN_base_12-36_looped_10minWORKING,2022.2.4,None,
59,PRED,12,0.7533234981522081,1,images/picture_2.png,images/picture_1.png,0,"[11.733433509789464, 11.733433509789462]",11.733433509789464,11.733433509789462,images/picture_2.png,1,"[-11.733433509789466, -11.733433509789462]",-11.733433509789464,-11.733433509789462,images/picture_3.png,2,"[-11.733433509789462, 11.733433509789464]",-11.733433509789462,11.733433509789464,0,1,1,0.7533234981522081,1.753323498152208,1.246676501847792,3,1,1.503323498152208,0,6,0,6,0,0,3,3,5,,,,,,,,,,,,,,,,,,,,,200002,203,2023-03-21_15h52.47.103,DMS_BEST_eyetracking_DAN_base_12-36_looped_10minWORKING,2022.2.4,None,
59,PRED,12,0.7533234981522081,1,images/picture_2.png,images/picture_1.png,0,"[11.733433509789464, 11.733433509789462]",11.733433509789464,11.733433509789462,images/picture_2.png,1,"[-11.733433509789466, -11.733433509789462]",-11.733433509789464,-11.733433509789462,images/picture_3.png,2,"[-11.733433509789462, 11.733433509789464]",-11.733433509789462,11.733433509789464,0,1,1,0.7533234981522081,1.753323498152208,1.246676501847792,3,1,1.503323498152208,0,6,0,6,0,0,3,3,5,,,,,,,0.004906582995317876,485.9911025830079,485.9911025830079,487.0022902080091,487.2357607500162,487.2357607500162,487.2357607500162,487.5022614169866,488.46904541703407,488.4889258330222,488.4889258330222,488.4889258330222,489.4689814170124,4.519519749912433,200002,203,2023-03-21_15h52.47.103,DMS_BEST_eyetracking_DAN_base_12-36_looped_10minWORKING,2022.2.4,None,
57,PRED,12,0.7243368236960583,1,images/picture_2.png,images/picture_1.png,0,"[-11.733433509789462, 11.733433509789464]",-11.733433509789462,11.733433509789464,images/picture_2.png,1,"[-11.733433509789466, -11.733433509789462]",-11.733433509789464,-11.733433509789462,images/picture_3.png,2,"[11.733433509789464, 11.733433509789462]",11.733433509789464,11.733433509789462,0,1,1,0.7243368236960583,1.7243368236960583,1.2756631763039417,3,1,1.4743368236960583,0,6,0,6,0,0,4,4,3,,,,,,,,,,,,,,,,,,,,,200002,203,2023-03-21_15h52.47.103,DMS_BEST_eyetracking_DAN_base_12-36_looped_10minWORKING,2022.2.4,None,
57,PRED,12,0.7243368236960583,1,images/picture_2.png,images/picture_1.png,0,"[-11.733433509789462, 11.733433509789464]",-11.733433509789462,11.733433509789464,images/picture_2.png,1,"[-11.733433509789466, -11.733433509789462]",-11.733433509789464,-11.733433509789462,images/picture_3.png,2,"[11.733433509789464, 11.733433509789462]",11.733433509789464,11.733433509789462,0,1,1,0.7243368236960583,1.7243368236960583,1.2756631763039417,3,1,1.4743368236960583,0,6,0,6,0,0,4,4,3,,,,,,,0.004730165936052799,491.0117203750415,491.0117203750415,492.02137541701086,492.22213904198725,492.22213904198725,492.22213904198725,492.48871237493586,493.5022632499458,493.5022632499458,493.5022632499458,493.5022632499458,494.5022658749949,4.508094749995507,200002,203,2023-03-21_15h52.47.103,DMS_BEST_eyetracking_DAN_base_12-36_looped_10minWORKING,2022.2.4,None,
58,PRED,12,0.9299433643620604,1,images/picture_2.png,images/picture_1.png,0,"[-11.733433509789466, -11.733433509789462]",-11.733433509789464,-11.733433509789462,images/picture_2.png,1,"[-11.733433509789462, 11.733433509789464]",-11.733433509789462,11.733433509789464,images/picture_3.png,2,"[11.733433509789462, -11.733433509789466]",11.733433509789462,-11.733433509789464,0,1,1,0.9299433643620604,1.9299433643620605,1.0700566356379395,3,1,1.6799433643620605,0,6,0,6,0,0,5,5,4,,,,,,,,,,,,,,,,,,,,,200002,203,2023-03-21_15h52.47.103,DMS_BEST_eyetracking_DAN_base_12-36_looped_10minWORKING,2022.2.4,None,
58,PRED,12,0.9299433643620604,1,images/picture_2.png,images/picture_1.png,0,"[-11.733433509789466, -11.733433509789462]",-11.733433509789464,-11.733433509789462,images/picture_2.png,1,"[-11.733433509789462, 11.733433509789464]",-11.733433509789462,11.733433509789464,images/picture_3.png,2,"[11.733433509789462, -11.733433509789466]",11.733433509789462,-11.733433509789464,0,1,1,0.9299433643620604,1.9299433643620605,1.0700566356379395,3,1,1.6799433643620605,0,6,0,6,0,0,5,5,4,,,,,,,0.006502917036414146,496.0360179579584,496.0360179579584,497.03579266695306,497.45515033300035,497.45515033300035,497.45515033300035,497.72151658299845,498.5216257079737,498.5356658749515,498.5356658749515,498.5356658749515,499.5357775420416,4.5102802499895915,200002,203,2023-03-21_15h52.47.103,DMS_BEST_eyetracking_DAN_base_12-36_looped_10minWORKING,2022.2.4,None,
60,PRED,12,0.7449620129438179,1,images/picture_2.png,images/picture_1.png,0,"[11.733433509789462, -11.733433509789466]",11.733433509789462,-11.733433509789464,images/picture_2.png,1,"[-11.733433509789466, -11.733433509789462]",-11.733433509789464,-11.733433509789462,images/picture_3.png,2,"[-11.733433509789462, 11.733433509789464]",-11.733433509789462,11.733433509789464,0,1,1,0.7449620129438179,1.744962012943818,1.255037987056182,3,1,1.494962012943818,0,6,0,6,0,0,6,6,6,,,,,,,,,,,,,,,,,,,,,200002,203,2023-03-21_15h52.47.103,DMS_BEST_eyetracking_DAN_base_12-36_looped_10minWORKING,2022.2.4,None,
60,PRED,12,0.7449620129438179,1,images/picture_2.png,images/picture_1.png,0,"[11.733433509789462, -11.733433509789466]",11.733433509789462,-11.733433509789464,images/picture_2.png,1,"[-11.733433509789466, -11.733433509789462]",-11.733433509789464,-11.733433509789462,images/picture_3.png,2,"[-11.733433509789462, 11.733433509789464]",-11.733433509789462,11.733433509789464,0,1,1,0.7449620129438179,1.744962012943818,1.255037987056182,3,1,1.494962012943818,0,6,0,6,0,0,6,6,6,,,,,,,0.0024289999855682254,501.05073420796543,501.05073420796543,502.0557644169312,502.28825999994297,502.28825999994297,502.28825999994297,502.5549139579525,503.535755333025,503.5554208329413,503.5554208329413,503.5554208329413,504.5355594169814,4.504855875042267,200002,203,2023-03-21_15h52.47.103,DMS_BEST_eyetracking_DAN_base_12-36_looped_10minWORKING,2022.2.4,None,
61,PRED,12,0.9477462466252432,1,images/picture_2.png,images/picture_1.png,0,"[11.733433509789462, -11.733433509789466]",11.733433509789462,-11.733433509789464,images/picture_2.png,1,"[-11.733433509789466, -11.733433509789462]",-11.733433509789464,-11.733433509789462,images/picture_3.png,2,"[11.733433509789464, 11.733433509789462]",11.733433509789464,11.733433509789462,0,1,1,0.9477462466252432,1.9477462466252435,1.052253753374757,3,1,1.697746246625243,0,6,0,6,0,0,7,7,7,,,,,,,,,,,,,,,,,,,,,200002,203,2023-03-21_15h52.47.103,DMS_BEST_eyetracking_DAN_base_12-36_looped_10minWORKING,2022.2.4,None,
61,PRED,12,0.9477462466252432,1,images/picture_2.png,images/picture_1.png,0,"[11.733433509789462, -11.733433509789466]",11.733433509789462,-11.733433509789464,images/picture_2.png,1,"[-11.733433509789466, -11.733433509789462]",-11.733433509789464,-11.733433509789462,images/picture_3.png,2,"[11.733433509789464, 11.733433509789462]",11.733433509789464,11.733433509789462,0,1,1,0.9477462466252432,1.9477462466252435,1.052253753374757,3,1,1.697746246625243,0,6,0,6,0,0,7,7,7,,,,,,,0.005971499951556325,506.06007808295544,506.06007808295544,507.0689819169929,507.5024575829739,507.5024575829739,507.5024575829739,507.7689133749809,508.5543752920348,508.568844708032,508.568844708032,508.568844708032,509.56898924999405,4.5110019169515,200002,203,2023-03-21_15h52.47.103,DMS_BEST_eyetracking_DAN_base_12-36_looped_10minWORKING,2022.2.4,None,
62,PRED,12,1.0959878185192942,1,images/picture_2.png,images/picture_1.png,0,"[-11.733433509789466, -11.733433509789462]",-11.733433509789464,-11.733433509789462,images/picture_2.png,1,"[11.733433509789462, -11.733433509789466]",11.733433509789462,-11.733433509789464,images/picture_3.png,2,"[-11.733433509789462, 11.733433509789464]",-11.733433509789462,11.733433509789464,0,1,1,1.0959878185192942,2.095987818519294,0.9040121814807058,3,1,1.8459878185192944,0,6,0,6,0,0,8,8,8,,,,,,,,,,,,,,,,,,,,,200002,203,2023-03-21_15h52.47.103,DMS_BEST_eyetracking_DAN_base_12-36_looped_10minWORKING,2022.2.4,None,
62,PRED,12,1.0959878185192942,1,images/picture_2.png,images/picture_1.png,0,"[-11.733433509789466, -11.733433509789462]",-11.733433509789464,-11.733433509789462,images/picture_2.png,1,"[11.733433509789462, -11.733433509789466]",11.733433509789462,-11.733433509789464,images/picture_3.png,2,"[-11.733433509789462, 11.733433509789464]",-11.733433509789462,11.733433509789464,0,1,1,1.0959878185192942,2.095987818519294,0.9040121814807058,3,1,1.8459878185192944,0,6,0,6,0,0,8,8,8,,,,,,,0.005376292043365538,511.0813371250406,511.0813371250406,512.0884355419548,512.6690187919885,512.6690187919885,512.6690187919885,512.9357543749502,513.5688202079618,513.5882159579778,513.5882159579778,513.5882159579778,514.5690131669398,4.508942291955464,200002,203,2023-03-21_15h52.47.103,DMS_BEST_eyetracking_DAN_base_12-36_looped_10minWORKING,2022.2.4,None,
,,,,,,,,,,,,,,,,,,,,,,,,,,,,,,,6,0,6,0,,,,,,,,,515.6833388330415,528.2103494169423,,,,,,,,,,,,,,,200002,203,2023-03-21_15h52.47.103,DMS_BEST_eyetracking_DAN_base_12-36_looped_10minWORKING,2022.2.4,None,
70,UNPRED,12,0.8170999297474828,2,images/picture_3.png,images/picture_1.png,0,"[11.733433509789462, -11.733433509789466]",11.733433509789462,-11.733433509789464,images/picture_2.png,1,"[-11.733433509789466, -11.733433509789462]",-11.733433509789464,-11.733433509789462,images/picture_3.png,2,"[-11.733433509789462, 11.733433509789464]",-11.733433509789462,11.733433509789464,0,1,1,0.8170999297474828,1.8170999297474832,1.1829000702525172,3,1,1.5670999297474832,0,7,0,7,0,0,0,0,7,,,,,,,,,,,,,,,,,,,,,200002,203,2023-03-21_15h52.47.103,DMS_BEST_eyetracking_DAN_base_12-36_looped_10minWORKING,2022.2.4,None,
70,UNPRED,12,0.8170999297474828,2,images/picture_3.png,images/picture_1.png,0,"[11.733433509789462, -11.733433509789466]",11.733433509789462,-11.733433509789464,images/picture_2.png,1,"[-11.733433509789466, -11.733433509789462]",-11.733433509789464,-11.733433509789462,images/picture_3.png,2,"[-11.733433509789462, 11.733433509789464]",-11.733433509789462,11.733433509789464,0,1,1,0.8170999297474828,1.8170999297474832,1.1829000702525172,3,1,1.5670999297474832,0,7,0,7,0,0,0,0,7,,,,,,,0.0030970419757068157,528.2103494169423,528.2103494169423,529.2218180419877,529.5215826249914,529.5215826249914,529.5215826249914,529.7882152500097,530.7021608749637,530.7021608749637,530.7021608749637,530.7021608749637,531.7024633330293,4.508811416919343,200002,203,2023-03-21_15h52.47.103,DMS_BEST_eyetracking_DAN_base_12-36_looped_10minWORKING,2022.2.4,None,
63,UNPRED,12,0.6026555678494215,0,images/picture_1.png,images/picture_1.png,0,"[-11.733433509789466, -11.733433509789462]",-11.733433509789464,-11.733433509789462,images/picture_2.png,1,"[11.733433509789462, -11.733433509789466]",11.733433509789462,-11.733433509789464,images/picture_3.png,2,"[-11.733433509789462, 11.733433509789464]",-11.733433509789462,11.733433509789464,0,1,1,0.6026555678494215,1.6026555678494216,1.3973444321505784,3,1,1.3526555678494216,0,7,0,7,0,0,1,1,0,,,,,,,,,,,,,,,,,,,,,200002,203,2023-03-21_15h52.47.103,DMS_BEST_eyetracking_DAN_base_12-36_looped_10minWORKING,2022.2.4,None,
63,UNPRED,12,0.6026555678494215,0,images/picture_1.png,images/picture_1.png,0,"[-11.733433509789466, -11.733433509789462]",-11.733433509789464,-11.733433509789462,images/picture_2.png,1,"[11.733433509789462, -11.733433509789466]",11.733433509789462,-11.733433509789464,images/picture_3.png,2,"[-11.733433509789462, 11.733433509789464]",-11.733433509789462,11.733433509789464,0,1,1,0.6026555678494215,1.6026555678494216,1.3973444321505784,3,1,1.3526555678494216,0,7,0,7,0,0,1,1,0,,,,,,,0.006722041987814009,533.2315902919509,533.2315902919509,534.2357823329512,534.321521542035,534.321521542035,534.321521542035,534.5887422079686,535.7217189579969,535.7217189579969,535.7217189579969,535.7217189579969,536.7355416249484,4.512819416937418,200002,203,2023-03-21_15h52.47.103,DMS_BEST_eyetracking_DAN_base_12-36_looped_10minWORKING,2022.2.4,None,
64,UNPRED,12,0.6483610746128704,0,images/picture_1.png,images/picture_1.png,0,"[-11.733433509789466, -11.733433509789462]",-11.733433509789464,-11.733433509789462,images/picture_2.png,1,"[11.733433509789464, 11.733433509789462]",11.733433509789464,11.733433509789462,images/picture_3.png,2,"[11.733433509789462, -11.733433509789466]",11.733433509789462,-11.733433509789464,0,1,1,0.6483610746128704,1.6483610746128703,1.3516389253871297,3,1,1.3983610746128703,0,7,0,7,0,0,2,2,1,,,,,,,,,,,,,,,,,,,,,200002,203,2023-03-21_15h52.47.103,DMS_BEST_eyetracking_DAN_base_12-36_looped_10minWORKING,2022.2.4,None,
64,UNPRED,12,0.6483610746128704,0,images/picture_1.png,images/picture_1.png,0,"[-11.733433509789466, -11.733433509789462]",-11.733433509789464,-11.733433509789462,images/picture_2.png,1,"[11.733433509789464, 11.733433509789462]",11.733433509789464,11.733433509789462,images/picture_3.png,2,"[11.733433509789462, -11.733433509789466]",11.733433509789462,-11.733433509789464,0,1,1,0.6483610746128704,1.6483610746128703,1.3516389253871297,3,1,1.3983610746128703,0,7,0,7,0,0,2,2,1,,,,,,,0.0034662920515984297,538.2531435829587,538.2531435829587,539.2686387919821,539.3881443749415,539.3881443749415,539.3881443749415,539.6550747919828,540.7354182919953,540.7543035419658,540.7543035419658,540.7543035419658,541.7354754579719,4.52004641701933,200002,203,2023-03-21_15h52.47.103,DMS_BEST_eyetracking_DAN_base_12-36_looped_10minWORKING,2022.2.4,None,
65,UNPRED,12,0.6129334158010683,2,images/picture_3.png,images/picture_1.png,0,"[-11.733433509789466, -11.733433509789462]",-11.733433509789464,-11.733433509789462,images/picture_2.png,1,"[-11.733433509789462, 11.733433509789464]",-11.733433509789462,11.733433509789464,images/picture_3.png,2,"[11.733433509789464, 11.733433509789462]",11.733433509789464,11.733433509789462,0,1,1,0.6129334158010683,1.6129334158010682,1.3870665841989318,3,1,1.3629334158010682,0,7,0,7,0,0,3,3,2,,,,,,,,,,,,,,,,,,,,,200002,203,2023-03-21_15h52.47.103,DMS_BEST_eyetracking_DAN_base_12-36_looped_10minWORKING,2022.2.4,None,
65,UNPRED,12,0.6129334158010683,2,images/picture_3.png,images/picture_1.png,0,"[-11.733433509789466, -11.733433509789462]",-11.733433509789464,-11.733433509789462,images/picture_2.png,1,"[-11.733433509789462, 11.733433509789464]",-11.733433509789462,11.733433509789464,images/picture_3.png,2,"[11.733433509789464, 11.733433509789462]",11.733433509789464,11.733433509789462,0,1,1,0.6129334158010683,1.6129334158010682,1.3870665841989318,3,1,1.3629334158010682,0,7,0,7,0,0,3,3,2,,,,,,,0.007413542014546692,543.2884985000128,543.2884985000128,544.3025320000015,544.3885179170175,544.3885179170175,544.3885179170175,544.655484167044,545.7689600000158,545.7884811669355,545.7884811669355,545.7884811669355,546.7689484580187,4.526089749997482,200002,203,2023-03-21_15h52.47.103,DMS_BEST_eyetracking_DAN_base_12-36_looped_10minWORKING,2022.2.4,None,
