trial_count,blockType,blockNum,delay_time,stimImage_i,stimImage,responseImage1,responseImage1_i,responseImage1_pos,responseImage1_X,responseImage1_Y,responseImage2,responseImage2_i,responseImage2_pos,responseImage2_X,responseImage2_Y,responseImage3,responseImage3_i,responseImage3_pos,responseImage3_X,responseImage3_Y,cue_onset,cue_dur,delay_onset,delay_dur,resp_onset,resp_dur,rest_onset,rest_dur,circle_dur,circle_onset,total_dur,cross_onset,cross_dur,delay_resp_period,blocks.thisRepN,blocks.thisTrialN,blocks.thisN,blocks.thisIndex,trials.thisRepN,trials.thisTrialN,trials.thisN,trials.thisIndex,key_resp.started,text.started,key_resp.keys,key_resp.rt,text_2.started,text_2.stopped,sample.started,Delay.started,sample.stopped,Delay.stopped,Response_1.started,Response_2.started,Response_3.started,polygon.started,Response_1.stopped,Response_2.stopped,Response_3.stopped,polygon.stopped,participant,session,date,expName,psychopyVersion,frameRate,
,,,,,,,,,,,,,,,,,,,,,,,,,,,,,,,,,,,,,,,,,,,146.86383108398877,146.86383108398877,t,69.6495209170971,,,,,,,,,,,,,,,200005,004,2023-04-04_11h23.56.328,DMS_et_12-36,2022.2.4,None,
0,PRED,12,1.0913464723423556,2,images/picture_3.png,images/picture_1.png,0,"[11.733433509789464, 11.733433509789462]",11.733433509789464,11.733433509789462,images/picture_2.png,1,"[-11.733433509789462, 11.733433509789464]",-11.733433509789462,11.733433509789464,images/picture_3.png,2,"[11.733433509789462, -11.733433509789466]",11.733433509789462,-11.733433509789464,0,1,1,1.0913464723423556,2.091346472342356,0.9086535276576444,3.0,1,1.841346472342356,0,4.0,3.0,1,2,0,0,0,0,0,0,0,0,,,,,217.0275972499512,229.06590187503025,229.06590187503025,229.06590187503025,230.07717949990183,230.9106367090717,231.14384899986908,231.14384899986908,231.14384899986908,232.0438618750777,232.06339733395725,232.06339733395725,232.06339733395725,233.06329520908184,200005,004,2023-04-04_11h23.56.328,DMS_et_12-36,2022.2.4,None,
1,PRED,12,1.0913464723423556,2,images/picture_3.png,images/picture_1.png,0,"[11.733433509789464, 11.733433509789462]",11.733433509789464,11.733433509789462,images/picture_2.png,1,"[-11.733433509789466, -11.733433509789462]",-11.733433509789464,-11.733433509789462,images/picture_3.png,2,"[-11.733433509789462, 11.733433509789464]",-11.733433509789462,11.733433509789464,0,1,1,1.0913464723423556,2.091346472342356,0.9086535276576444,3.0,1,1.841346472342356,0,4.0,3.0,1,2,0,0,0,0,0,1,1,1,,,,,,,233.06329520908184,233.06329520908184,234.0771660420578,234.91040674992837,235.13083174987696,235.13083174987696,235.13083174987696,236.04389079194516,236.04389079194516,236.04389079194516,236.04389079194516,237.06241408386268,200005,004,2023-04-04_11h23.56.328,DMS_et_12-36,2022.2.4,None,
3,PRED,12,1.0913464723423556,2,images/picture_3.png,images/picture_1.png,0,"[-11.733433509789466, -11.733433509789462]",-11.733433509789464,-11.733433509789462,images/picture_2.png,1,"[11.733433509789462, -11.733433509789466]",11.733433509789462,-11.733433509789464,images/picture_3.png,2,"[11.733433509789464, 11.733433509789462]",11.733433509789464,11.733433509789462,0,1,1,1.0913464723423556,2.091346472342356,0.9086535276576444,3.0,1,1.841346472342356,0,4.0,3.0,1,2,0,0,0,0,0,2,2,3,,,,,,,237.06241408386268,237.06241408386268,238.0773592919577,238.91073050000705,239.129727459047,239.129727459047,239.129727459047,240.04389575007372,240.04389575007372,240.04389575007372,240.04389575007372,241.06302654207684,200005,004,2023-04-04_11h23.56.328,DMS_et_12-36,2022.2.4,None,
8,PRED,12,1.0913464723423556,2,images/picture_3.png,images/picture_1.png,0,"[11.733433509789464, 11.733433509789462]",11.733433509789464,11.733433509789462,images/picture_2.png,1,"[-11.733433509789466, -11.733433509789462]",-11.733433509789464,-11.733433509789462,images/picture_3.png,2,"[11.733433509789462, -11.733433509789466]",11.733433509789462,-11.733433509789464,0,1,1,1.0913464723423556,2.091346472342356,0.9086535276576444,3.0,1,1.841346472342356,0,4.0,3.0,1,2,0,0,0,0,0,3,3,8,,,,,,,241.06302654207684,241.06302654207684,242.0774185839109,242.91070587490685,243.1301219589077,243.1301219589077,243.1301219589077,244.04416270903312,244.04416270903312,244.04416270903312,244.04416270903312,245.06285724998452,200005,004,2023-04-04_11h23.56.328,DMS_et_12-36,2022.2.4,None,
6,PRED,12,1.0913464723423556,2,images/picture_3.png,images/picture_1.png,0,"[11.733433509789462, -11.733433509789466]",11.733433509789462,-11.733433509789464,images/picture_2.png,1,"[-11.733433509789462, 11.733433509789464]",-11.733433509789462,11.733433509789464,images/picture_3.png,2,"[11.733433509789464, 11.733433509789462]",11.733433509789464,11.733433509789462,0,1,1,1.0913464723423556,2.091346472342356,0.9086535276576444,3.0,1,1.841346472342356,0,4.0,3.0,1,2,0,0,0,0,0,4,4,6,,,,,,,245.06285724998452,245.06285724998452,246.0774330839049,246.91067266697064,247.12981258402579,247.12981258402579,247.12981258402579,248.04391970904544,248.04391970904544,248.04391970904544,248.04391970904544,249.06303587486036,200005,004,2023-04-04_11h23.56.328,DMS_et_12-36,2022.2.4,None,
5,PRED,12,1.0913464723423556,2,images/picture_3.png,images/picture_1.png,0,"[11.733433509789464, 11.733433509789462]",11.733433509789464,11.733433509789462,images/picture_2.png,1,"[-11.733433509789466, -11.733433509789462]",-11.733433509789464,-11.733433509789462,images/picture_3.png,2,"[-11.733433509789462, 11.733433509789464]",-11.733433509789462,11.733433509789464,0,1,1,1.0913464723423556,2.091346472342356,0.9086535276576444,3.0,1,1.841346472342356,0,4.0,3.0,1,2,0,0,0,0,0,5,5,5,,,,,,,249.06303587486036,249.06303587486036,250.077387166908,250.9108761670068,251.1300126670394,251.1300126670394,251.1300126670394,252.04413508391008,252.04413508391008,252.04413508391008,252.04413508391008,253.06315604201518,200005,004,2023-04-04_11h23.56.328,DMS_et_12-36,2022.2.4,None,
4,PRED,12,1.0913464723423556,2,images/picture_3.png,images/picture_1.png,0,"[11.733433509789464, 11.733433509789462]",11.733433509789464,11.733433509789462,images/picture_2.png,1,"[-11.733433509789466, -11.733433509789462]",-11.733433509789464,-11.733433509789462,images/picture_3.png,2,"[-11.733433509789462, 11.733433509789464]",-11.733433509789462,11.733433509789464,0,1,1,1.0913464723423556,2.091346472342356,0.9086535276576444,3.0,1,1.841346472342356,0,4.0,3.0,1,2,0,0,0,0,0,6,6,4,,,,,,,253.06315604201518,253.06315604201518,254.0774277918972,254.91086041694507,255.13023329200223,255.13023329200223,255.13023329200223,256.04410141706467,256.04410141706467,256.04410141706467,256.04410141706467,257.0629725418985,200005,004,2023-04-04_11h23.56.328,DMS_et_12-36,2022.2.4,None,
2,PRED,12,1.0913464723423556,2,images/picture_3.png,images/picture_1.png,0,"[11.733433509789462, -11.733433509789466]",11.733433509789462,-11.733433509789464,images/picture_2.png,1,"[11.733433509789464, 11.733433509789462]",11.733433509789464,11.733433509789462,images/picture_3.png,2,"[-11.733433509789462, 11.733433509789464]",-11.733433509789462,11.733433509789464,0,1,1,1.0913464723423556,2.091346472342356,0.9086535276576444,3.0,1,1.841346472342356,0,4.0,3.0,1,2,0,0,0,0,0,7,7,2,,,,,,,257.0629725418985,257.0629725418985,258.0771345840767,258.91084220889024,259.12996704201214,259.12996704201214,259.12996704201214,260.04415408405475,260.04415408405475,260.04415408405475,260.04415408405475,261.062942791963,200005,004,2023-04-04_11h23.56.328,DMS_et_12-36,2022.2.4,None,
7,PRED,12,1.0913464723423556,2,images/picture_3.png,images/picture_1.png,0,"[-11.733433509789462, 11.733433509789464]",-11.733433509789462,11.733433509789464,images/picture_2.png,1,"[11.733433509789462, -11.733433509789466]",11.733433509789462,-11.733433509789464,images/picture_3.png,2,"[11.733433509789464, 11.733433509789462]",11.733433509789464,11.733433509789462,0,1,1,1.0913464723423556,2.091346472342356,0.9086535276576444,3.0,1,1.841346472342356,0,4.0,3.0,1,2,0,0,0,0,0,8,8,7,,,,,,,261.062942791963,261.062942791963,262.07741437503137,262.9108762498945,263.13098162505776,263.13098162505776,263.13098162505776,264.04418358393013,264.04418358393013,264.04418358393013,264.04418358393013,265.0646420000121,200005,004,2023-04-04_11h23.56.328,DMS_et_12-36,2022.2.4,None,
,,,,,,,,,,,,,,,,,,,,,,,,,,,,,,,,,,,0,0,0,0,,,,,,,,,265.0646420000121,277.0963152090553,,,,,,,,,,,,,200005,004,2023-04-04_11h23.56.328,DMS_et_12-36,2022.2.4,None,
10,UNPRED,12,1.0913464723423556,0,images/picture_1.png,images/picture_1.png,0,"[-11.733433509789462, 11.733433509789464]",-11.733433509789462,11.733433509789464,images/picture_2.png,1,"[11.733433509789462, -11.733433509789466]",11.733433509789462,-11.733433509789464,images/picture_3.png,2,"[11.733433509789464, 11.733433509789462]",11.733433509789464,11.733433509789462,0,1,1,1.0913464723423556,2.091346472342356,0.9086535276576444,3.0,1,1.841346472342356,0,4.0,3.0,1,2,1,0,1,0,0,0,0,1,,,,,,,277.0963152090553,277.0963152090553,278.1105330840219,278.9441160839051,279.17726437491365,279.17726437491365,279.17726437491365,280.0971221248619,280.0971221248619,280.0971221248619,280.0971221248619,281.129926542053,200005,004,2023-04-04_11h23.56.328,DMS_et_12-36,2022.2.4,None,
9,UNPRED,12,1.0913464723423556,2,images/picture_3.png,images/picture_1.png,0,"[-11.733433509789462, 11.733433509789464]",-11.733433509789462,11.733433509789464,images/picture_2.png,1,"[11.733433509789462, -11.733433509789466]",11.733433509789462,-11.733433509789464,images/picture_3.png,2,"[11.733433509789464, 11.733433509789462]",11.733433509789464,11.733433509789462,0,1,1,1.0913464723423556,2.091346472342356,0.9086535276576444,3.0,1,1.841346472342356,0,4.0,3.0,1,2,1,0,1,0,0,1,1,0,,,,,,,281.129926542053,281.129926542053,282.14414708386175,282.9774454589933,283.19684945908375,283.19684945908375,283.19684945908375,284.11091608391143,284.11091608391143,284.11091608391143,284.11091608391143,285.1303635840304,200005,004,2023-04-04_11h23.56.328,DMS_et_12-36,2022.2.4,None,
11,UNPRED,12,1.0913464723423556,1,images/picture_2.png,images/picture_1.png,0,"[-11.733433509789462, 11.733433509789464]",-11.733433509789462,11.733433509789464,images/picture_2.png,1,"[11.733433509789462, -11.733433509789466]",11.733433509789462,-11.733433509789464,images/picture_3.png,2,"[11.733433509789464, 11.733433509789462]",11.733433509789464,11.733433509789462,0,1,1,1.0913464723423556,2.091346472342356,0.9086535276576444,3.0,1,1.841346472342356,0,4.0,3.0,1,2,1,0,1,0,0,2,2,2,,,,,,,285.1303635840304,285.1303635840304,286.14415141707286,286.97760491701774,287.1971989169251,287.1971989169251,287.1971989169251,288.1108434998896,288.1108434998896,288.1108434998896,288.1108434998896,289.1107138749212,200005,004,2023-04-04_11h23.56.328,DMS_et_12-36,2022.2.4,None,
16,UNPRED,12,1.0913464723423556,1,images/picture_2.png,images/picture_1.png,0,"[-11.733433509789466, -11.733433509789462]",-11.733433509789464,-11.733433509789462,images/picture_2.png,1,"[-11.733433509789462, 11.733433509789464]",-11.733433509789462,11.733433509789464,images/picture_3.png,2,"[11.733433509789464, 11.733433509789462]",11.733433509789464,11.733433509789462,0,1,1,1.0913464723423556,2.091346472342356,0.9086535276576444,3.0,1,1.841346472342356,0,4.0,3.0,1,2,1,0,1,0,0,3,3,7,,,,,,,289.1107138749212,289.1107138749212,290.1109366249293,290.96388087491505,291.197562583955,291.197562583955,291.197562583955,292.1108875419013,292.1108875419013,292.1108875419013,292.1108875419013,293.1103149999399,200005,004,2023-04-04_11h23.56.328,DMS_et_12-36,2022.2.4,None,
12,UNPRED,12,1.0913464723423556,1,images/picture_2.png,images/picture_1.png,0,"[-11.733433509789466, -11.733433509789462]",-11.733433509789464,-11.733433509789462,images/picture_2.png,1,"[-11.733433509789462, 11.733433509789464]",-11.733433509789462,11.733433509789464,images/picture_3.png,2,"[11.733433509789462, -11.733433509789466]",11.733433509789462,-11.733433509789464,0,1,1,1.0913464723423556,2.091346472342356,0.9086535276576444,3.0,1,1.841346472342356,0,4.0,3.0,1,2,1,0,1,0,0,4,4,3,,,,,,,293.1103149999399,293.1103149999399,294.11084841703996,294.96355191688053,295.1969333339948,295.1969333339948,295.1969333339948,296.11090358393267,296.11090358393267,296.11090358393267,296.11090358393267,297.1104814999271,200005,004,2023-04-04_11h23.56.328,DMS_et_12-36,2022.2.4,None,
14,UNPRED,12,1.0913464723423556,1,images/picture_2.png,images/picture_1.png,0,"[11.733433509789464, 11.733433509789462]",11.733433509789464,11.733433509789462,images/picture_2.png,1,"[-11.733433509789462, 11.733433509789464]",-11.733433509789462,11.733433509789464,images/picture_3.png,2,"[-11.733433509789466, -11.733433509789462]",-11.733433509789464,-11.733433509789462,0,1,1,1.0913464723423556,2.091346472342356,0.9086535276576444,3.0,1,1.841346472342356,0,4.0,3.0,1,2,1,0,1,0,0,5,5,5,,,,,,,297.1104814999271,297.1104814999271,298.11087858397514,298.96288466686383,299.1962602499407,299.1962602499407,299.1962602499407,300.1108777089976,300.1108777089976,300.1108777089976,300.1108777089976,301.1297014169395,200005,004,2023-04-04_11h23.56.328,DMS_et_12-36,2022.2.4,None,
15,UNPRED,12,1.0913464723423556,2,images/picture_3.png,images/picture_1.png,0,"[11.733433509789462, -11.733433509789466]",11.733433509789462,-11.733433509789464,images/picture_2.png,1,"[11.733433509789464, 11.733433509789462]",11.733433509789464,11.733433509789462,images/picture_3.png,2,"[-11.733433509789462, 11.733433509789464]",-11.733433509789462,11.733433509789464,0,1,1,1.0913464723423556,2.091346472342356,0.9086535276576444,3.0,1,1.841346472342356,0,4.0,3.0,1,2,1,0,1,0,0,6,6,6,,,,,,,301.1297014169395,301.1297014169395,302.1442702920176,302.977721999865,303.19674600008875,303.19674600008875,303.19674600008875,304.1109147090465,304.1109147090465,304.1109147090465,304.1109147090465,305.1109849999193,200005,004,2023-04-04_11h23.56.328,DMS_et_12-36,2022.2.4,None,
13,UNPRED,12,1.0913464723423556,1,images/picture_2.png,images/picture_1.png,0,"[-11.733433509789466, -11.733433509789462]",-11.733433509789464,-11.733433509789462,images/picture_2.png,1,"[-11.733433509789462, 11.733433509789464]",-11.733433509789462,11.733433509789464,images/picture_3.png,2,"[11.733433509789464, 11.733433509789462]",11.733433509789464,11.733433509789462,0,1,1,1.0913464723423556,2.091346472342356,0.9086535276576444,3.0,1,1.841346472342356,0,4.0,3.0,1,2,1,0,1,0,0,7,7,4,,,,,,,305.1109849999193,305.1109849999193,306.11089216708206,306.96364354202524,307.1969579588622,307.1969579588622,307.1969579588622,308.11087358393706,308.11087358393706,308.11087358393706,308.11087358393706,309.1105641250033,200005,004,2023-04-04_11h23.56.328,DMS_et_12-36,2022.2.4,None,
17,UNPRED,12,1.0913464723423556,1,images/picture_2.png,images/picture_1.png,0,"[11.733433509789462, -11.733433509789466]",11.733433509789462,-11.733433509789464,images/picture_2.png,1,"[-11.733433509789466, -11.733433509789462]",-11.733433509789464,-11.733433509789462,images/picture_3.png,2,"[11.733433509789464, 11.733433509789462]",11.733433509789464,11.733433509789462,0,1,1,1.0913464723423556,2.091346472342356,0.9086535276576444,3.0,1,1.841346472342356,0,4.0,3.0,1,2,1,0,1,0,0,8,8,8,,,,,,,309.1105641250033,309.1105641250033,310.11093570897356,310.9640035419725,311.19689183402807,311.19689183402807,311.19689183402807,312.1108879169915,312.1108879169915,312.1108879169915,312.1108879169915,313.1440803750884,200005,004,2023-04-04_11h23.56.328,DMS_et_12-36,2022.2.4,None,
,,,,,,,,,,,,,,,,,,,,,,,,,,,,,,,,,,,1,0,1,0,,,,,,,,,313.1440803750884,325.16317062499,,,,,,,,,,,,,200005,004,2023-04-04_11h23.56.328,DMS_et_12-36,2022.2.4,None,
21,PRED,12,1.0913464723423556,1,images/picture_2.png,images/picture_1.png,0,"[-11.733433509789466, -11.733433509789462]",-11.733433509789464,-11.733433509789462,images/picture_2.png,1,"[11.733433509789464, 11.733433509789462]",11.733433509789464,11.733433509789462,images/picture_3.png,2,"[-11.733433509789462, 11.733433509789464]",-11.733433509789462,11.733433509789464,0,1,1,1.0913464723423556,2.091346472342356,0.9086535276576444,3.0,1,1.841346472342356,0,4.0,3.0,1,2,2,0,2,0,0,0,0,3,,,,,,,325.16317062499,325.16317062499,326.17773804208264,327.0109731249977,327.2442665840499,327.2442665840499,327.2442665840499,328.1633616250474,328.1633616250474,328.1633616250474,328.1633616250474,329.17748583387583,200005,004,2023-04-04_11h23.56.328,DMS_et_12-36,2022.2.4,None,
20,PRED,12,1.0913464723423556,1,images/picture_2.png,images/picture_1.png,0,"[11.733433509789462, -11.733433509789466]",11.733433509789462,-11.733433509789464,images/picture_2.png,1,"[-11.733433509789466, -11.733433509789462]",-11.733433509789464,-11.733433509789462,images/picture_3.png,2,"[11.733433509789464, 11.733433509789462]",11.733433509789464,11.733433509789462,0,1,1,1.0913464723423556,2.091346472342356,0.9086535276576444,3.0,1,1.841346472342356,0,4.0,3.0,1,2,2,0,2,0,0,1,1,2,,,,,,,329.17748583387583,329.17748583387583,330.17744854209013,331.03022995893843,331.2638095419388,331.2638095419388,331.2638095419388,332.1776980839204,332.1776980839204,332.1776980839204,332.1776980839204,333.1770749168936,200005,004,2023-04-04_11h23.56.328,DMS_et_12-36,2022.2.4,None,
26,PRED,12,1.0913464723423556,1,images/picture_2.png,images/picture_1.png,0,"[11.733433509789462, -11.733433509789466]",11.733433509789462,-11.733433509789464,images/picture_2.png,1,"[-11.733433509789466, -11.733433509789462]",-11.733433509789464,-11.733433509789462,images/picture_3.png,2,"[11.733433509789464, 11.733433509789462]",11.733433509789464,11.733433509789462,0,1,1,1.0913464723423556,2.091346472342356,0.9086535276576444,3.0,1,1.841346472342356,0,4.0,3.0,1,2,2,0,2,0,0,2,2,8,,,,,,,333.1770749168936,333.1770749168936,334.1775800839532,335.0303167500533,335.263573708944,335.263573708944,335.263573708944,336.17763745901175,336.17763745901175,336.17763745901175,336.17763745901175,337.1770222920459,200005,004,2023-04-04_11h23.56.328,DMS_et_12-36,2022.2.4,None,
23,PRED,12,1.0913464723423556,1,images/picture_2.png,images/picture_1.png,0,"[-11.733433509789462, 11.733433509789464]",-11.733433509789462,11.733433509789464,images/picture_2.png,1,"[-11.733433509789466, -11.733433509789462]",-11.733433509789464,-11.733433509789462,images/picture_3.png,2,"[11.733433509789462, -11.733433509789466]",11.733433509789462,-11.733433509789464,0,1,1,1.0913464723423556,2.091346472342356,0.9086535276576444,3.0,1,1.841346472342356,0,4.0,3.0,1,2,2,0,2,0,0,3,3,5,,,,,,,337.1770222920459,337.1770222920459,338.1776489589829,339.03027600003406,339.2635739168618,339.2635739168618,339.2635739168618,340.1775113339536,340.1775113339536,340.1775113339536,340.1775113339536,341.1772205000743,200005,004,2023-04-04_11h23.56.328,DMS_et_12-36,2022.2.4,None,
19,PRED,12,1.0913464723423556,1,images/picture_2.png,images/picture_1.png,0,"[11.733433509789462, -11.733433509789466]",11.733433509789462,-11.733433509789464,images/picture_2.png,1,"[-11.733433509789466, -11.733433509789462]",-11.733433509789464,-11.733433509789462,images/picture_3.png,2,"[11.733433509789464, 11.733433509789462]",11.733433509789464,11.733433509789462,0,1,1,1.0913464723423556,2.091346472342356,0.9086535276576444,3.0,1,1.841346472342356,0,4.0,3.0,1,2,2,0,2,0,0,4,4,1,,,,,,,341.1772205000743,341.1772205000743,342.17761699995026,343.03083120891824,343.26417333399877,343.26417333399877,343.26417333399877,344.1776567499619,344.1776567499619,344.1776567499619,344.1776567499619,345.17700625001453,200005,004,2023-04-04_11h23.56.328,DMS_et_12-36,2022.2.4,None,
24,PRED,12,1.0913464723423556,1,images/picture_2.png,images/picture_1.png,0,"[-11.733433509789462, 11.733433509789464]",-11.733433509789462,11.733433509789464,images/picture_2.png,1,"[-11.733433509789466, -11.733433509789462]",-11.733433509789464,-11.733433509789462,images/picture_3.png,2,"[11.733433509789462, -11.733433509789466]",11.733433509789462,-11.733433509789464,0,1,1,1.0913464723423556,2.091346472342356,0.9086535276576444,3.0,1,1.841346472342356,0,4.0,3.0,1,2,2,0,2,0,0,5,5,6,,,,,,,345.17700625001453,345.17700625001453,346.17756566707976,347.0302618339192,347.26370629202574,347.26370629202574,347.26370629202574,348.17763779195957,348.17763779195957,348.17763779195957,348.17763779195957,349.1770618748851,200005,004,2023-04-04_11h23.56.328,DMS_et_12-36,2022.2.4,None,
22,PRED,12,1.0913464723423556,1,images/picture_2.png,images/picture_1.png,0,"[11.733433509789464, 11.733433509789462]",11.733433509789464,11.733433509789462,images/picture_2.png,1,"[-11.733433509789466, -11.733433509789462]",-11.733433509789464,-11.733433509789462,images/picture_3.png,2,"[11.733433509789462, -11.733433509789466]",11.733433509789462,-11.733433509789464,0,1,1,1.0913464723423556,2.091346472342356,0.9086535276576444,3.0,1,1.841346472342356,0,4.0,3.0,1,2,2,0,2,0,0,6,6,4,,,,,,,349.1770618748851,349.1770618748851,350.1775031669531,351.0304484590888,351.2637732089497,351.2637732089497,351.2637732089497,352.17763191694394,352.17763191694394,352.17763191694394,352.17763191694394,353.17710791691206,200005,004,2023-04-04_11h23.56.328,DMS_et_12-36,2022.2.4,None,
18,PRED,12,1.0913464723423556,1,images/picture_2.png,images/picture_1.png,0,"[11.733433509789464, 11.733433509789462]",11.733433509789464,11.733433509789462,images/picture_2.png,1,"[11.733433509789462, -11.733433509789466]",11.733433509789462,-11.733433509789464,images/picture_3.png,2,"[-11.733433509789466, -11.733433509789462]",-11.733433509789464,-11.733433509789462,0,1,1,1.0913464723423556,2.091346472342356,0.9086535276576444,3.0,1,1.841346472342356,0,4.0,3.0,1,2,2,0,2,0,0,7,7,0,,,,,,,353.17710791691206,353.17710791691206,354.17755774990655,355.03026795899495,355.2642764588818,355.2642764588818,355.2642764588818,356.1776579169091,356.1776579169091,356.1776579169091,356.1776579169091,357.177166959038,200005,004,2023-04-04_11h23.56.328,DMS_et_12-36,2022.2.4,None,
25,PRED,12,1.0913464723423556,1,images/picture_2.png,images/picture_1.png,0,"[11.733433509789464, 11.733433509789462]",11.733433509789464,11.733433509789462,images/picture_2.png,1,"[11.733433509789462, -11.733433509789466]",11.733433509789462,-11.733433509789464,images/picture_3.png,2,"[-11.733433509789462, 11.733433509789464]",-11.733433509789462,11.733433509789464,0,1,1,1.0913464723423556,2.091346472342356,0.9086535276576444,3.0,1,1.841346472342356,0,4.0,3.0,1,2,2,0,2,0,0,8,8,7,,,,,,,357.177166959038,357.177166959038,358.17764183389954,359.03043816704303,359.2638735419605,359.2638735419605,359.2638735419605,360.1776264999062,360.1776264999062,360.1776264999062,360.1776264999062,361.22398924990557,200005,004,2023-04-04_11h23.56.328,DMS_et_12-36,2022.2.4,None,
,,,,,,,,,,,,,,,,,,,,,,,,,,,,,,,,,,,2,0,2,0,,,,,,,,,361.22398924990557,373.24262512498535,,,,,,,,,,,,,200005,004,2023-04-04_11h23.56.328,DMS_et_12-36,2022.2.4,None,
35,UNPRED,12,1.0913464723423556,0,images/picture_1.png,images/picture_1.png,0,"[-11.733433509789462, 11.733433509789464]",-11.733433509789462,11.733433509789464,images/picture_2.png,1,"[-11.733433509789466, -11.733433509789462]",-11.733433509789464,-11.733433509789462,images/picture_3.png,2,"[11.733433509789464, 11.733433509789462]",11.733433509789464,11.733433509789462,0,1,1,1.0913464723423556,2.091346472342356,0.9086535276576444,3.0,1,1.841346472342356,0,4.0,3.0,1,2,3,0,3,0,0,0,0,8,,,,,,,373.24262512498535,373.24262512498535,374.24476954201236,375.09658183390275,375.33054283401,375.33054283401,375.33054283401,376.2443684588652,376.2443684588652,376.2443684588652,376.2443684588652,377.2436912918929,200005,004,2023-04-04_11h23.56.328,DMS_et_12-36,2022.2.4,None,
29,UNPRED,12,1.0913464723423556,0,images/picture_1.png,images/picture_1.png,0,"[-11.733433509789462, 11.733433509789464]",-11.733433509789462,11.733433509789464,images/picture_2.png,1,"[-11.733433509789466, -11.733433509789462]",-11.733433509789464,-11.733433509789462,images/picture_3.png,2,"[11.733433509789462, -11.733433509789466]",11.733433509789462,-11.733433509789464,0,1,1,1.0913464723423556,2.091346472342356,0.9086535276576444,3.0,1,1.841346472342356,0,4.0,3.0,1,2,3,0,3,0,0,1,1,2,,,,,,,377.2436912918929,377.2436912918929,378.24421616690233,379.0970292920247,379.33043562504463,379.33043562504463,379.33043562504463,380.24418783397414,380.24418783397414,380.24418783397414,380.24418783397414,381.24398904200643,200005,004,2023-04-04_11h23.56.328,DMS_et_12-36,2022.2.4,None,
27,UNPRED,12,1.0913464723423556,1,images/picture_2.png,images/picture_1.png,0,"[-11.733433509789462, 11.733433509789464]",-11.733433509789462,11.733433509789464,images/picture_2.png,1,"[-11.733433509789466, -11.733433509789462]",-11.733433509789464,-11.733433509789462,images/picture_3.png,2,"[11.733433509789464, 11.733433509789462]",11.733433509789464,11.733433509789462,0,1,1,1.0913464723423556,2.091346472342356,0.9086535276576444,3.0,1,1.841346472342356,0,4.0,3.0,1,2,3,0,3,0,0,2,2,0,,,,,,,381.24398904200643,381.24398904200643,382.24434379208833,383.096898333868,383.33034841693006,383.33034841693006,383.33034841693006,384.24436508398503,384.24436508398503,384.24436508398503,384.24436508398503,385.26331258402206,200005,004,2023-04-04_11h23.56.328,DMS_et_12-36,2022.2.4,None,
32,UNPRED,12,1.0913464723423556,2,images/picture_3.png,images/picture_1.png,0,"[11.733433509789464, 11.733433509789462]",11.733433509789464,11.733433509789462,images/picture_2.png,1,"[11.733433509789462, -11.733433509789466]",11.733433509789462,-11.733433509789464,images/picture_3.png,2,"[-11.733433509789462, 11.733433509789464]",-11.733433509789462,11.733433509789464,0,1,1,1.0913464723423556,2.091346472342356,0.9086535276576444,3.0,1,1.841346472342356,0,4.0,3.0,1,2,3,0,3,0,0,3,3,5,,,,,,,385.26331258402206,385.26331258402206,386.2776562499348,387.1109007089399,387.3302469169721,387.3302469169721,387.3302469169721,388.2444517919794,388.2444517919794,388.2444517919794,388.2444517919794,389.24403866706416,200005,004,2023-04-04_11h23.56.328,DMS_et_12-36,2022.2.4,None,
33,UNPRED,12,1.0913464723423556,1,images/picture_2.png,images/picture_1.png,0,"[11.733433509789464, 11.733433509789462]",11.733433509789464,11.733433509789462,images/picture_2.png,1,"[11.733433509789462, -11.733433509789466]",11.733433509789462,-11.733433509789464,images/picture_3.png,2,"[-11.733433509789466, -11.733433509789462]",-11.733433509789464,-11.733433509789462,0,1,1,1.0913464723423556,2.091346472342356,0.9086535276576444,3.0,1,1.841346472342356,0,4.0,3.0,1,2,3,0,3,0,0,4,4,6,,,,,,,389.24403866706416,389.24403866706416,390.2442439170554,391.0963895418681,391.3295632500667,391.3295632500667,391.3295632500667,392.2441909168847,392.2441909168847,392.2441909168847,392.2441909168847,393.2438607090153,200005,004,2023-04-04_11h23.56.328,DMS_et_12-36,2022.2.4,None,
31,UNPRED,12,1.0913464723423556,1,images/picture_2.png,images/picture_1.png,0,"[-11.733433509789466, -11.733433509789462]",-11.733433509789464,-11.733433509789462,images/picture_2.png,1,"[-11.733433509789462, 11.733433509789464]",-11.733433509789462,11.733433509789464,images/picture_3.png,2,"[11.733433509789462, -11.733433509789466]",11.733433509789462,-11.733433509789464,0,1,1,1.0913464723423556,2.091346472342356,0.9086535276576444,3.0,1,1.841346472342356,0,4.0,3.0,1,2,3,0,3,0,0,5,5,4,,,,,,,393.2438607090153,393.2438607090153,394.24441445898265,395.09731974988244,395.330402249936,395.330402249936,395.330402249936,396.2443933750037,396.2443933750037,396.2443933750037,396.2443933750037,397.24378066696227,200005,004,2023-04-04_11h23.56.328,DMS_et_12-36,2022.2.4,None,
34,UNPRED,12,1.0913464723423556,1,images/picture_2.png,images/picture_1.png,0,"[11.733433509789464, 11.733433509789462]",11.733433509789464,11.733433509789462,images/picture_2.png,1,"[-11.733433509789466, -11.733433509789462]",-11.733433509789464,-11.733433509789462,images/picture_3.png,2,"[11.733433509789462, -11.733433509789466]",11.733433509789462,-11.733433509789464,0,1,1,1.0913464723423556,2.091346472342356,0.9086535276576444,3.0,1,1.841346472342356,0,4.0,3.0,1,2,3,0,3,0,0,6,6,7,,,,,,,397.24378066696227,397.24378066696227,398.2441586670466,399.097129791975,399.3303117500618,399.3303117500618,399.3303117500618,400.2443897500634,400.2443897500634,400.2443897500634,400.2443897500634,401.2439481250476,200005,004,2023-04-04_11h23.56.328,DMS_et_12-36,2022.2.4,None,
30,UNPRED,12,1.0913464723423556,0,images/picture_1.png,images/picture_1.png,0,"[-11.733433509789466, -11.733433509789462]",-11.733433509789464,-11.733433509789462,images/picture_2.png,1,"[-11.733433509789462, 11.733433509789464]",-11.733433509789462,11.733433509789464,images/picture_3.png,2,"[11.733433509789464, 11.733433509789462]",11.733433509789464,11.733433509789462,0,1,1,1.0913464723423556,2.091346472342356,0.9086535276576444,3.0,1,1.841346472342356,0,4.0,3.0,1,2,3,0,3,0,0,7,7,3,,,,,,,401.2439481250476,401.2439481250476,402.24417145899497,403.0970528339967,403.3310878339689,403.3310878339689,403.3310878339689,404.24473687494174,404.24473687494174,404.24473687494174,404.24473687494174,405.24415212497115,200005,004,2023-04-04_11h23.56.328,DMS_et_12-36,2022.2.4,None,
28,UNPRED,12,1.0913464723423556,1,images/picture_2.png,images/picture_1.png,0,"[11.733433509789462, -11.733433509789466]",11.733433509789462,-11.733433509789464,images/picture_2.png,1,"[-11.733433509789462, 11.733433509789464]",-11.733433509789462,11.733433509789464,images/picture_3.png,2,"[-11.733433509789466, -11.733433509789462]",-11.733433509789464,-11.733433509789462,0,1,1,1.0913464723423556,2.091346472342356,0.9086535276576444,3.0,1,1.841346472342356,0,4.0,3.0,1,2,3,0,3,0,0,8,8,1,,,,,,,405.24415212497115,405.24415212497115,406.2442127089016,407.09734099986963,407.33073387504555,407.33073387504555,407.33073387504555,408.2444344589021,408.2444344589021,408.2444344589021,408.2444344589021,409.2960754169617,200005,004,2023-04-04_11h23.56.328,DMS_et_12-36,2022.2.4,None,
,,,,,,,,,,,,,,,,,,,,,,,,,,,,,,,,,,,3,0,3,0,,,,,,,,,409.2960754169617,421.33063691691495,,,,,,,,,,,,,200005,004,2023-04-04_11h23.56.328,DMS_et_12-36,2022.2.4,None,
38,PRED,12,1.0913464723423556,0,images/picture_1.png,images/picture_1.png,0,"[11.733433509789462, -11.733433509789466]",11.733433509789462,-11.733433509789464,images/picture_2.png,1,"[-11.733433509789466, -11.733433509789462]",-11.733433509789464,-11.733433509789462,images/picture_3.png,2,"[11.733433509789464, 11.733433509789462]",11.733433509789464,11.733433509789462,0,1,1,1.0913464723423556,2.091346472342356,0.9086535276576444,3.0,1,1.841346472342356,0,4.0,3.0,1,2,4,0,4,0,0,0,0,2,,,,,,,421.33063691691495,421.33063691691495,422.3440826248843,423.17766999988817,423.41107945889235,423.41107945889235,423.41107945889235,424.3306064589415,424.3306064589415,424.3306064589415,424.3306064589415,425.3437476248946,200005,004,2023-04-04_11h23.56.328,DMS_et_12-36,2022.2.4,None,
42,PRED,12,1.0913464723423556,0,images/picture_1.png,images/picture_1.png,0,"[11.733433509789462, -11.733433509789466]",11.733433509789462,-11.733433509789464,images/picture_2.png,1,"[11.733433509789464, 11.733433509789462]",11.733433509789464,11.733433509789462,images/picture_3.png,2,"[-11.733433509789466, -11.733433509789462]",-11.733433509789464,-11.733433509789462,0,1,1,1.0913464723423556,2.091346472342356,0.9086535276576444,3.0,1,1.841346472342356,0,4.0,3.0,1,2,4,0,4,0,0,1,1,6,,,,,,,425.3437476248946,425.3437476248946,426.3443535838742,427.1972847089637,427.43035049992613,427.43035049992613,427.43035049992613,428.34436679189093,428.34436679189093,428.34436679189093,428.34436679189093,429.343776792055,200005,004,2023-04-04_11h23.56.328,DMS_et_12-36,2022.2.4,None,
40,PRED,12,1.0913464723423556,0,images/picture_1.png,images/picture_1.png,0,"[11.733433509789462, -11.733433509789466]",11.733433509789462,-11.733433509789464,images/picture_2.png,1,"[11.733433509789464, 11.733433509789462]",11.733433509789464,11.733433509789462,images/picture_3.png,2,"[-11.733433509789462, 11.733433509789464]",-11.733433509789462,11.733433509789464,0,1,1,1.0913464723423556,2.091346472342356,0.9086535276576444,3.0,1,1.841346472342356,0,4.0,3.0,1,2,4,0,4,0,0,2,2,4,,,,,,,429.343776792055,429.343776792055,430.3443620840553,431.19685029191896,431.43061099993065,431.43061099993065,431.43061099993065,432.34414791688323,432.34414791688323,432.34414791688323,432.34414791688323,433.3437892498914,200005,004,2023-04-04_11h23.56.328,DMS_et_12-36,2022.2.4,None,
44,PRED,12,1.0913464723423556,0,images/picture_1.png,images/picture_1.png,0,"[11.733433509789464, 11.733433509789462]",11.733433509789464,11.733433509789462,images/picture_2.png,1,"[-11.733433509789462, 11.733433509789464]",-11.733433509789462,11.733433509789464,images/picture_3.png,2,"[-11.733433509789466, -11.733433509789462]",-11.733433509789464,-11.733433509789462,0,1,1,1.0913464723423556,2.091346472342356,0.9086535276576444,3.0,1,1.841346472342356,0,4.0,3.0,1,2,4,0,4,0,0,3,3,8,,,,,,,433.3437892498914,433.3437892498914,434.3445684169419,435.1970310420729,435.4304595000576,435.4304595000576,435.4304595000576,436.3444037500303,436.3444037500303,436.3444037500303,436.3444037500303,437.34374916693196,200005,004,2023-04-04_11h23.56.328,DMS_et_12-36,2022.2.4,None,
39,PRED,12,1.0913464723423556,0,images/picture_1.png,images/picture_1.png,0,"[-11.733433509789466, -11.733433509789462]",-11.733433509789464,-11.733433509789462,images/picture_2.png,1,"[11.733433509789464, 11.733433509789462]",11.733433509789464,11.733433509789462,images/picture_3.png,2,"[-11.733433509789462, 11.733433509789464]",-11.733433509789462,11.733433509789464,0,1,1,1.0913464723423556,2.091346472342356,0.9086535276576444,3.0,1,1.841346472342356,0,4.0,3.0,1,2,4,0,4,0,0,4,4,3,,,,,,,437.34374916693196,437.34374916693196,438.34440329205245,439.19689683406614,439.430560000008,439.430560000008,439.430560000008,440.3443885000888,440.3443885000888,440.3443885000888,440.3443885000888,441.34378900006413,200005,004,2023-04-04_11h23.56.328,DMS_et_12-36,2022.2.4,None,
43,PRED,12,1.0913464723423556,0,images/picture_1.png,images/picture_1.png,0,"[11.733433509789462, -11.733433509789466]",11.733433509789462,-11.733433509789464,images/picture_2.png,1,"[-11.733433509789466, -11.733433509789462]",-11.733433509789464,-11.733433509789462,images/picture_3.png,2,"[-11.733433509789462, 11.733433509789464]",-11.733433509789462,11.733433509789464,0,1,1,1.0913464723423556,2.091346472342356,0.9086535276576444,3.0,1,1.841346472342356,0,4.0,3.0,1,2,4,0,4,0,0,5,5,7,,,,,,,441.34378900006413,441.34378900006413,442.3441471669357,443.1962511250749,443.43099445896223,443.43099445896223,443.43099445896223,444.3444276249502,444.3444276249502,444.3444276249502,444.3444276249502,445.34379899990745,200005,004,2023-04-04_11h23.56.328,DMS_et_12-36,2022.2.4,None,
41,PRED,12,1.0913464723423556,0,images/picture_1.png,images/picture_1.png,0,"[-11.733433509789466, -11.733433509789462]",-11.733433509789464,-11.733433509789462,images/picture_2.png,1,"[11.733433509789464, 11.733433509789462]",11.733433509789464,11.733433509789462,images/picture_3.png,2,"[11.733433509789462, -11.733433509789466]",11.733433509789462,-11.733433509789464,0,1,1,1.0913464723423556,2.091346472342356,0.9086535276576444,3.0,1,1.841346472342356,0,4.0,3.0,1,2,4,0,4,0,0,6,6,5,,,,,,,445.34379899990745,445.34379899990745,446.3443929590285,447.19737287494354,447.43050841707736,447.43050841707736,447.43050841707736,448.3444167498965,448.3444167498965,448.3444167498965,448.3444167498965,449.34380262508057,200005,004,2023-04-04_11h23.56.328,DMS_et_12-36,2022.2.4,None,
36,PRED,12,1.0913464723423556,0,images/picture_1.png,images/picture_1.png,0,"[-11.733433509789462, 11.733433509789464]",-11.733433509789462,11.733433509789464,images/picture_2.png,1,"[11.733433509789462, -11.733433509789466]",11.733433509789462,-11.733433509789464,images/picture_3.png,2,"[11.733433509789464, 11.733433509789462]",11.733433509789464,11.733433509789462,0,1,1,1.0913464723423556,2.091346472342356,0.9086535276576444,3.0,1,1.841346472342356,0,4.0,3.0,1,2,4,0,4,0,0,7,7,0,,,,,,,449.34380262508057,449.34380262508057,450.34443575004116,451.1970347499009,451.4304207919631,451.4304207919631,451.4304207919631,452.3440733340103,452.3440733340103,452.3440733340103,452.3440733340103,453.3441361670848,200005,004,2023-04-04_11h23.56.328,DMS_et_12-36,2022.2.4,None,
37,PRED,12,1.0913464723423556,0,images/picture_1.png,images/picture_1.png,0,"[-11.733433509789462, 11.733433509789464]",-11.733433509789462,11.733433509789464,images/picture_2.png,1,"[11.733433509789464, 11.733433509789462]",11.733433509789464,11.733433509789462,images/picture_3.png,2,"[11.733433509789462, -11.733433509789466]",11.733433509789462,-11.733433509789464,0,1,1,1.0913464723423556,2.091346472342356,0.9086535276576444,3.0,1,1.841346472342356,0,4.0,3.0,1,2,4,0,4,0,0,8,8,1,,,,,,,453.3441361670848,453.3441361670848,454.3443615420256,455.1972479589749,455.4303840419743,455.4303840419743,455.4303840419743,456.34447129187174,456.34447129187174,456.34447129187174,456.34447129187174,457.405275166966,200005,004,2023-04-04_11h23.56.328,DMS_et_12-36,2022.2.4,None,
,,,,,,,,,,,,,,,,,,,,,,,,,,,,,,,,,,,4,0,4,0,,,,,,,,,457.405275166966,469.43179141706787,,,,,,,,,,,,,200005,004,2023-04-04_11h23.56.328,DMS_et_12-36,2022.2.4,None,
50,UNPRED,12,1.0913464723423556,1,images/picture_2.png,images/picture_1.png,0,"[-11.733433509789466, -11.733433509789462]",-11.733433509789464,-11.733433509789462,images/picture_2.png,1,"[-11.733433509789462, 11.733433509789464]",-11.733433509789462,11.733433509789464,images/picture_3.png,2,"[11.733433509789462, -11.733433509789466]",11.733433509789462,-11.733433509789464,0,1,1,1.0913464723423556,2.091346472342356,0.9086535276576444,3.0,1,1.841346472342356,0,4.0,3.0,1,2,5,0,5,0,0,0,0,5,,,,,,,469.43179141706787,469.43179141706787,470.4444287919905,471.277482500067,471.51112199993804,471.51112199993804,471.51112199993804,472.43053233390674,472.43053233390674,472.43053233390674,472.43053233390674,473.44405191694386,200005,004,2023-04-04_11h23.56.328,DMS_et_12-36,2022.2.4,None,
48,UNPRED,12,1.0913464723423556,1,images/picture_2.png,images/picture_1.png,0,"[11.733433509789464, 11.733433509789462]",11.733433509789464,11.733433509789462,images/picture_2.png,1,"[-11.733433509789462, 11.733433509789464]",-11.733433509789462,11.733433509789464,images/picture_3.png,2,"[11.733433509789462, -11.733433509789466]",11.733433509789462,-11.733433509789464,0,1,1,1.0913464723423556,2.091346472342356,0.9086535276576444,3.0,1,1.841346472342356,0,4.0,3.0,1,2,5,0,5,0,0,1,1,3,,,,,,,473.44405191694386,473.44405191694386,474.4444328339305,475.29725766694173,475.5305861670058,475.5305861670058,475.5305861670058,476.4445565000642,476.4445565000642,476.4445565000642,476.4445565000642,477.4432826670818,200005,004,2023-04-04_11h23.56.328,DMS_et_12-36,2022.2.4,None,
52,UNPRED,12,1.0913464723423556,0,images/picture_1.png,images/picture_1.png,0,"[11.733433509789462, -11.733433509789466]",11.733433509789462,-11.733433509789464,images/picture_2.png,1,"[-11.733433509789462, 11.733433509789464]",-11.733433509789462,11.733433509789464,images/picture_3.png,2,"[11.733433509789464, 11.733433509789462]",11.733433509789464,11.733433509789462,0,1,1,1.0913464723423556,2.091346472342356,0.9086535276576444,3.0,1,1.841346472342356,0,4.0,3.0,1,2,5,0,5,0,0,2,2,7,,,,,,,477.4432826670818,477.4432826670818,478.44441879191436,479.2972877919674,479.5305213748943,479.5305213748943,479.5305213748943,480.4443995419424,480.4443995419424,480.4443995419424,480.4443995419424,481.46327108400874,200005,004,2023-04-04_11h23.56.328,DMS_et_12-36,2022.2.4,None,
45,UNPRED,12,1.0913464723423556,2,images/picture_3.png,images/picture_1.png,0,"[11.733433509789464, 11.733433509789462]",11.733433509789464,11.733433509789462,images/picture_2.png,1,"[-11.733433509789462, 11.733433509789464]",-11.733433509789462,11.733433509789464,images/picture_3.png,2,"[11.733433509789462, -11.733433509789466]",11.733433509789462,-11.733433509789464,0,1,1,1.0913464723423556,2.091346472342356,0.9086535276576444,3.0,1,1.841346472342356,0,4.0,3.0,1,2,5,0,5,0,0,3,3,0,,,,,,,481.46327108400874,481.46327108400874,482.47783270897344,483.3107512919232,483.52977120899595,483.52977120899595,483.52977120899595,484.4444450000301,484.4444450000301,484.4444450000301,484.4444450000301,485.44481166708283,200005,004,2023-04-04_11h23.56.328,DMS_et_12-36,2022.2.4,None,
49,UNPRED,12,1.0913464723423556,1,images/picture_2.png,images/picture_1.png,0,"[-11.733433509789462, 11.733433509789464]",-11.733433509789462,11.733433509789464,images/picture_2.png,1,"[11.733433509789464, 11.733433509789462]",11.733433509789464,11.733433509789462,images/picture_3.png,2,"[11.733433509789462, -11.733433509789466]",11.733433509789462,-11.733433509789464,0,1,1,1.0913464723423556,2.091346472342356,0.9086535276576444,3.0,1,1.841346472342356,0,4.0,3.0,1,2,5,0,5,0,0,4,4,4,,,,,,,485.44481166708283,485.44481166708283,486.4440193339251,487.2974193340633,487.53069670894183,487.53069670894183,487.53069670894183,488.4444838750642,488.4444838750642,488.4444838750642,488.4444838750642,489.44337187497877,200005,004,2023-04-04_11h23.56.328,DMS_et_12-36,2022.2.4,None,
47,UNPRED,12,1.0913464723423556,0,images/picture_1.png,images/picture_1.png,0,"[-11.733433509789462, 11.733433509789464]",-11.733433509789462,11.733433509789464,images/picture_2.png,1,"[11.733433509789462, -11.733433509789466]",11.733433509789462,-11.733433509789464,images/picture_3.png,2,"[11.733433509789464, 11.733433509789462]",11.733433509789464,11.733433509789462,0,1,1,1.0913464723423556,2.091346472342356,0.9086535276576444,3.0,1,1.841346472342356,0,4.0,3.0,1,2,5,0,5,0,0,5,5,2,,,,,,,489.44337187497877,489.44337187497877,490.44440887495875,491.29702479206026,491.52979879197665,491.52979879197665,491.52979879197665,492.44450149987824,492.44450149987824,492.44450149987824,492.44450149987824,493.4630579170771,200005,004,2023-04-04_11h23.56.328,DMS_et_12-36,2022.2.4,None,
51,UNPRED,12,1.0913464723423556,2,images/picture_3.png,images/picture_1.png,0,"[-11.733433509789466, -11.733433509789462]",-11.733433509789464,-11.733433509789462,images/picture_2.png,1,"[11.733433509789464, 11.733433509789462]",11.733433509789464,11.733433509789462,images/picture_3.png,2,"[11.733433509789462, -11.733433509789466]",11.733433509789462,-11.733433509789464,0,1,1,1.0913464723423556,2.091346472342356,0.9086535276576444,3.0,1,1.841346472342356,0,4.0,3.0,1,2,5,0,5,0,0,6,6,6,,,,,,,493.4630579170771,493.4630579170771,494.4773671668954,495.3111160839908,495.5299280839972,495.5299280839972,495.5299280839972,496.44450074993074,496.44450074993074,496.44450074993074,496.44450074993074,497.44428525003605,200005,004,2023-04-04_11h23.56.328,DMS_et_12-36,2022.2.4,None,
46,UNPRED,12,1.0913464723423556,0,images/picture_1.png,images/picture_1.png,0,"[-11.733433509789466, -11.733433509789462]",-11.733433509789464,-11.733433509789462,images/picture_2.png,1,"[-11.733433509789462, 11.733433509789464]",-11.733433509789462,11.733433509789464,images/picture_3.png,2,"[11.733433509789464, 11.733433509789462]",11.733433509789464,11.733433509789462,0,1,1,1.0913464723423556,2.091346472342356,0.9086535276576444,3.0,1,1.841346472342356,0,4.0,3.0,1,2,5,0,5,0,0,7,7,1,,,,,,,497.44428525003605,497.44428525003605,498.4446639169473,499.2972108749673,499.5306804589927,499.5306804589927,499.5306804589927,500.4444931668695,500.4444931668695,500.4444931668695,500.4444931668695,501.44395900005475,200005,004,2023-04-04_11h23.56.328,DMS_et_12-36,2022.2.4,None,
53,UNPRED,12,1.0913464723423556,0,images/picture_1.png,images/picture_1.png,0,"[-11.733433509789466, -11.733433509789462]",-11.733433509789464,-11.733433509789462,images/picture_2.png,1,"[-11.733433509789462, 11.733433509789464]",-11.733433509789462,11.733433509789464,images/picture_3.png,2,"[11.733433509789464, 11.733433509789462]",11.733433509789464,11.733433509789462,0,1,1,1.0913464723423556,2.091346472342356,0.9086535276576444,3.0,1,1.841346472342356,0,4.0,3.0,1,2,5,0,5,0,0,8,8,8,,,,,,,501.44395900005475,501.44395900005475,502.4444437918719,503.2970408340916,503.5303389590699,503.5303389590699,503.5303389590699,504.4441912090406,504.4441912090406,504.4441912090406,504.4441912090406,505.58653129194863,200005,004,2023-04-04_11h23.56.328,DMS_et_12-36,2022.2.4,None,
,,,,,,,,,,,,,,,,,,,,,,,,,,,,,,,,,,,5,0,5,0,,,,,,,,,505.58653129194863,517.6224011250306,,,,,,,,,,,,,200005,004,2023-04-04_11h23.56.328,DMS_et_12-36,2022.2.4,None,
61,PRED,12,1.0913464723423556,2,images/picture_3.png,images/picture_1.png,0,"[11.733433509789462, -11.733433509789466]",11.733433509789462,-11.733433509789464,images/picture_2.png,1,"[-11.733433509789462, 11.733433509789464]",-11.733433509789462,11.733433509789464,images/picture_3.png,2,"[-11.733433509789466, -11.733433509789462]",-11.733433509789464,-11.733433509789462,0,1,1,1.0913464723423556,2.091346472342356,0.9086535276576444,3.0,1,1.841346472342356,0,4.0,3.0,1,2,6,0,6,0,0,0,0,7,,,,,,,517.6224011250306,517.6224011250306,518.630506916903,519.4774869999383,519.6976172090508,519.6976172090508,519.6976172090508,520.6109565838706,520.6109565838706,520.6109565838706,520.6109565838706,521.6300211669877,200005,004,2023-04-04_11h23.56.328,DMS_et_12-36,2022.2.4,None,
56,PRED,12,1.0913464723423556,2,images/picture_3.png,images/picture_1.png,0,"[-11.733433509789462, 11.733433509789464]",-11.733433509789462,11.733433509789464,images/picture_2.png,1,"[-11.733433509789466, -11.733433509789462]",-11.733433509789464,-11.733433509789462,images/picture_3.png,2,"[11.733433509789462, -11.733433509789466]",11.733433509789462,-11.733433509789464,0,1,1,1.0913464723423556,2.091346472342356,0.9086535276576444,3.0,1,1.841346472342356,0,4.0,3.0,1,2,6,0,6,0,0,1,1,2,,,,,,,521.6300211669877,521.6300211669877,522.6443052499089,523.477709250059,523.6968107500579,523.6968107500579,523.6968107500579,524.6104973340407,524.6104973340407,524.6104973340407,524.6104973340407,525.6295422499534,200005,004,2023-04-04_11h23.56.328,DMS_et_12-36,2022.2.4,None,
54,PRED,12,1.0913464723423556,2,images/picture_3.png,images/picture_1.png,0,"[11.733433509789462, -11.733433509789466]",11.733433509789462,-11.733433509789464,images/picture_2.png,1,"[11.733433509789464, 11.733433509789462]",11.733433509789464,11.733433509789462,images/picture_3.png,2,"[-11.733433509789466, -11.733433509789462]",-11.733433509789464,-11.733433509789462,0,1,1,1.0913464723423556,2.091346472342356,0.9086535276576444,3.0,1,1.841346472342356,0,4.0,3.0,1,2,6,0,6,0,0,2,2,0,,,,,,,525.6295422499534,525.6295422499534,526.6441161250696,527.4775990420021,527.6969870000612,527.6969870000612,527.6969870000612,528.6108738339972,528.6108738339972,528.6108738339972,528.6108738339972,529.6297685839236,200005,004,2023-04-04_11h23.56.328,DMS_et_12-36,2022.2.4,None,
59,PRED,12,1.0913464723423556,2,images/picture_3.png,images/picture_1.png,0,"[-11.733433509789466, -11.733433509789462]",-11.733433509789464,-11.733433509789462,images/picture_2.png,1,"[11.733433509789464, 11.733433509789462]",11.733433509789464,11.733433509789462,images/picture_3.png,2,"[-11.733433509789462, 11.733433509789464]",-11.733433509789462,11.733433509789464,0,1,1,1.0913464723423556,2.091346472342356,0.9086535276576444,3.0,1,1.841346472342356,0,4.0,3.0,1,2,6,0,6,0,0,3,3,5,,,,,,,529.6297685839236,529.6297685839236,530.6441839588806,531.4776009588968,531.6970648339484,531.6970648339484,531.6970648339484,532.6108639589511,532.6108639589511,532.6108639589511,532.6108639589511,533.6307783338707,200005,004,2023-04-04_11h23.56.328,DMS_et_12-36,2022.2.4,None,
62,PRED,12,1.0913464723423556,2,images/picture_3.png,images/picture_1.png,0,"[-11.733433509789462, 11.733433509789464]",-11.733433509789462,11.733433509789464,images/picture_2.png,1,"[-11.733433509789466, -11.733433509789462]",-11.733433509789464,-11.733433509789462,images/picture_3.png,2,"[11.733433509789464, 11.733433509789462]",11.733433509789464,11.733433509789462,0,1,1,1.0913464723423556,2.091346472342356,0.9086535276576444,3.0,1,1.841346472342356,0,4.0,3.0,1,2,6,0,6,0,0,4,4,8,,,,,,,533.6307783338707,533.6307783338707,534.6440039169975,535.4774572090246,535.6961497499142,535.6961497499142,535.6961497499142,536.610902458895,536.610902458895,536.610902458895,536.610902458895,537.6296835420653,200005,004,2023-04-04_11h23.56.328,DMS_et_12-36,2022.2.4,None,
60,PRED,12,1.0913464723423556,2,images/picture_3.png,images/picture_1.png,0,"[11.733433509789462, -11.733433509789466]",11.733433509789462,-11.733433509789464,images/picture_2.png,1,"[-11.733433509789462, 11.733433509789464]",-11.733433509789462,11.733433509789464,images/picture_3.png,2,"[11.733433509789464, 11.733433509789462]",11.733433509789464,11.733433509789462,0,1,1,1.0913464723423556,2.091346472342356,0.9086535276576444,3.0,1,1.841346472342356,0,4.0,3.0,1,2,6,0,6,0,0,5,5,6,,,,,,,537.6296835420653,537.6296835420653,538.6441998339724,539.4773953340482,539.6967863340396,539.6967863340396,539.6967863340396,540.6109787500463,540.6109787500463,540.6109787500463,540.6109787500463,541.6295482090209,200005,004,2023-04-04_11h23.56.328,DMS_et_12-36,2022.2.4,None,
57,PRED,12,1.0913464723423556,2,images/picture_3.png,images/picture_1.png,0,"[11.733433509789464, 11.733433509789462]",11.733433509789464,11.733433509789462,images/picture_2.png,1,"[-11.733433509789466, -11.733433509789462]",-11.733433509789464,-11.733433509789462,images/picture_3.png,2,"[11.733433509789462, -11.733433509789466]",11.733433509789462,-11.733433509789464,0,1,1,1.0913464723423556,2.091346472342356,0.9086535276576444,3.0,1,1.841346472342356,0,4.0,3.0,1,2,6,0,6,0,0,6,6,3,,,,,,,541.6295482090209,541.6295482090209,542.6441688749474,543.4773878338747,543.6970490000676,543.6970490000676,543.6970490000676,544.6109123749193,544.6109123749193,544.6109123749193,544.6109123749193,545.6294687499758,200005,004,2023-04-04_11h23.56.328,DMS_et_12-36,2022.2.4,None,
55,PRED,12,1.0913464723423556,2,images/picture_3.png,images/picture_1.png,0,"[11.733433509789462, -11.733433509789466]",11.733433509789462,-11.733433509789464,images/picture_2.png,1,"[-11.733433509789466, -11.733433509789462]",-11.733433509789464,-11.733433509789462,images/picture_3.png,2,"[11.733433509789464, 11.733433509789462]",11.733433509789464,11.733433509789462,0,1,1,1.0913464723423556,2.091346472342356,0.9086535276576444,3.0,1,1.841346472342356,0,4.0,3.0,1,2,6,0,6,0,0,7,7,1,,,,,,,545.6294687499758,545.6294687499758,546.6444143750705,547.4772068338934,547.6968931669835,547.6968931669835,547.6968931669835,548.6108600839507,548.6108600839507,548.6108600839507,548.6108600839507,549.6302256670315,200005,004,2023-04-04_11h23.56.328,DMS_et_12-36,2022.2.4,None,
58,PRED,12,1.0913464723423556,2,images/picture_3.png,images/picture_1.png,0,"[11.733433509789464, 11.733433509789462]",11.733433509789464,11.733433509789462,images/picture_2.png,1,"[-11.733433509789466, -11.733433509789462]",-11.733433509789464,-11.733433509789462,images/picture_3.png,2,"[11.733433509789462, -11.733433509789466]",11.733433509789462,-11.733433509789464,0,1,1,1.0913464723423556,2.091346472342356,0.9086535276576444,3.0,1,1.841346472342356,0,4.0,3.0,1,2,6,0,6,0,0,8,8,4,,,,,,,549.6302256670315,549.6302256670315,550.6441421669442,551.4775195000693,551.6970996249001,551.6970996249001,551.6970996249001,552.6112206669059,552.6112206669059,552.6112206669059,552.6112206669059,553.6938908749726,200005,004,2023-04-04_11h23.56.328,DMS_et_12-36,2022.2.4,None,
,,,,,,,,,,,,,,,,,,,,,,,,,,,,,,,,,,,6,0,6,0,,,,,,,,,553.6938908749726,565.7004932919517,,,,,,,,,,,,,200005,004,2023-04-04_11h23.56.328,DMS_et_12-36,2022.2.4,None,
69,UNPRED,12,1.0913464723423556,0,images/picture_1.png,images/picture_1.png,0,"[11.733433509789462, -11.733433509789466]",11.733433509789462,-11.733433509789464,images/picture_2.png,1,"[-11.733433509789462, 11.733433509789464]",-11.733433509789462,11.733433509789464,images/picture_3.png,2,"[-11.733433509789466, -11.733433509789462]",-11.733433509789464,-11.733433509789462,0,1,1,1.0913464723423556,2.091346472342356,0.9086535276576444,3.0,1,1.841346472342356,0,4.0,3.0,1,2,7,0,7,0,0,0,0,6,,,,,,,565.7004932919517,565.7004932919517,566.7107104170136,567.544412584044,567.7962812089827,567.7962812089827,567.7962812089827,568.6968603748828,568.7108446250204,568.7108446250204,568.7108446250204,569.7114602499641,200005,004,2023-04-04_11h23.56.328,DMS_et_12-36,2022.2.4,None,
65,UNPRED,12,1.0913464723423556,1,images/picture_2.png,images/picture_1.png,0,"[11.733433509789464, 11.733433509789462]",11.733433509789464,11.733433509789462,images/picture_2.png,1,"[-11.733433509789466, -11.733433509789462]",-11.733433509789464,-11.733433509789462,images/picture_3.png,2,"[11.733433509789462, -11.733433509789466]",11.733433509789462,-11.733433509789464,0,1,1,1.0913464723423556,2.091346472342356,0.9086535276576444,3.0,1,1.841346472342356,0,4.0,3.0,1,2,7,0,7,0,0,1,1,2,,,,,,,569.7114602499641,569.7114602499641,570.7108683749102,571.5633446669672,571.7969070419203,571.7969070419203,571.7969070419203,572.7107253340073,572.7107253340073,572.7107253340073,572.7107253340073,573.7295041668694,200005,004,2023-04-04_11h23.56.328,DMS_et_12-36,2022.2.4,None,
71,UNPRED,12,1.0913464723423556,2,images/picture_3.png,images/picture_1.png,0,"[-11.733433509789466, -11.733433509789462]",-11.733433509789464,-11.733433509789462,images/picture_2.png,1,"[-11.733433509789462, 11.733433509789464]",-11.733433509789462,11.733433509789464,images/picture_3.png,2,"[11.733433509789462, -11.733433509789466]",11.733433509789462,-11.733433509789464,0,1,1,1.0913464723423556,2.091346472342356,0.9086535276576444,3.0,1,1.841346472342356,0,4.0,3.0,1,2,7,0,7,0,0,2,2,8,,,,,,,573.7295041668694,573.7295041668694,574.7439127499238,575.5771599998698,575.7959264589008,575.7959264589008,575.7959264589008,576.7108355839737,576.7108355839737,576.7108355839737,576.7108355839737,577.7294132499956,200005,004,2023-04-04_11h23.56.328,DMS_et_12-36,2022.2.4,None,
63,UNPRED,12,1.0913464723423556,1,images/picture_2.png,images/picture_1.png,0,"[-11.733433509789466, -11.733433509789462]",-11.733433509789464,-11.733433509789462,images/picture_2.png,1,"[11.733433509789464, 11.733433509789462]",11.733433509789464,11.733433509789462,images/picture_3.png,2,"[-11.733433509789462, 11.733433509789464]",-11.733433509789462,11.733433509789464,0,1,1,1.0913464723423556,2.091346472342356,0.9086535276576444,3.0,1,1.841346472342356,0,4.0,3.0,1,2,7,0,7,0,0,3,3,0,,,,,,,577.7294132499956,577.7294132499956,578.7441452499479,579.577371875057,579.7973083339166,579.7973083339166,579.7973083339166,580.7109144590795,580.7109144590795,580.7109144590795,580.7109144590795,581.7110080840066,200005,004,2023-04-04_11h23.56.328,DMS_et_12-36,2022.2.4,None,
67,UNPRED,12,1.0913464723423556,0,images/picture_1.png,images/picture_1.png,0,"[11.733433509789464, 11.733433509789462]",11.733433509789464,11.733433509789462,images/picture_2.png,1,"[-11.733433509789462, 11.733433509789464]",-11.733433509789462,11.733433509789464,images/picture_3.png,2,"[11.733433509789462, -11.733433509789466]",11.733433509789462,-11.733433509789464,0,1,1,1.0913464723423556,2.091346472342356,0.9086535276576444,3.0,1,1.841346472342356,0,4.0,3.0,1,2,7,0,7,0,0,4,4,4,,,,,,,581.7110080840066,581.7110080840066,582.7107004590798,583.5635275000241,583.797599124955,583.797599124955,583.797599124955,584.7108433749527,584.7108433749527,584.7108433749527,584.7108433749527,585.7103739590384,200005,004,2023-04-04_11h23.56.328,DMS_et_12-36,2022.2.4,None,
64,UNPRED,12,1.0913464723423556,1,images/picture_2.png,images/picture_1.png,0,"[11.733433509789464, 11.733433509789462]",11.733433509789464,11.733433509789462,images/picture_2.png,1,"[11.733433509789462, -11.733433509789466]",11.733433509789462,-11.733433509789464,images/picture_3.png,2,"[-11.733433509789462, 11.733433509789464]",-11.733433509789462,11.733433509789464,0,1,1,1.0913464723423556,2.091346472342356,0.9086535276576444,3.0,1,1.841346472342356,0,4.0,3.0,1,2,7,0,7,0,0,5,5,1,,,,,,,585.7103739590384,585.7103739590384,586.710398041876,587.5634459590074,587.796410708921,587.796410708921,587.796410708921,588.7107760000508,588.7107760000508,588.7107760000508,588.7107760000508,589.7101835838985,200005,004,2023-04-04_11h23.56.328,DMS_et_12-36,2022.2.4,None,
68,UNPRED,12,1.0913464723423556,0,images/picture_1.png,images/picture_1.png,0,"[11.733433509789464, 11.733433509789462]",11.733433509789464,11.733433509789462,images/picture_2.png,1,"[-11.733433509789466, -11.733433509789462]",-11.733433509789464,-11.733433509789462,images/picture_3.png,2,"[-11.733433509789462, 11.733433509789464]",-11.733433509789462,11.733433509789464,0,1,1,1.0913464723423556,2.091346472342356,0.9086535276576444,3.0,1,1.841346472342356,0,4.0,3.0,1,2,7,0,7,0,0,6,6,5,,,,,,,589.7101835838985,589.7101835838985,590.7106773750857,591.5627255840227,591.7972927498631,591.7972927498631,591.7972927498631,592.7106898340862,592.7106898340862,592.7106898340862,592.7106898340862,593.710224499926,200005,004,2023-04-04_11h23.56.328,DMS_et_12-36,2022.2.4,None,
66,UNPRED,12,1.0913464723423556,0,images/picture_1.png,images/picture_1.png,0,"[-11.733433509789466, -11.733433509789462]",-11.733433509789464,-11.733433509789462,images/picture_2.png,1,"[-11.733433509789462, 11.733433509789464]",-11.733433509789462,11.733433509789464,images/picture_3.png,2,"[11.733433509789464, 11.733433509789462]",11.733433509789464,11.733433509789462,0,1,1,1.0913464723423556,2.091346472342356,0.9086535276576444,3.0,1,1.841346472342356,0,4.0,3.0,1,2,7,0,7,0,0,7,7,3,,,,,,,593.710224499926,593.710224499926,594.7109264999162,595.5637236249167,595.7974567089695,595.7974567089695,595.7974567089695,596.7105227089487,596.7105227089487,596.7105227089487,596.7105227089487,597.710681208875,200005,004,2023-04-04_11h23.56.328,DMS_et_12-36,2022.2.4,None,
70,UNPRED,12,1.0913464723423556,1,images/picture_2.png,images/picture_1.png,0,"[-11.733433509789466, -11.733433509789462]",-11.733433509789464,-11.733433509789462,images/picture_2.png,1,"[11.733433509789464, 11.733433509789462]",11.733433509789464,11.733433509789462,images/picture_3.png,2,"[11.733433509789462, -11.733433509789466]",11.733433509789462,-11.733433509789464,0,1,1,1.0913464723423556,2.091346472342356,0.9086535276576444,3.0,1,1.841346472342356,0,4.0,3.0,1,2,7,0,7,0,0,8,8,7,,,,,,,597.710681208875,597.710681208875,598.7106525839772,599.5633859999944,599.7967397919856,599.7967397919856,599.7967397919856,600.710743292002,600.710743292002,600.710743292002,600.710743292002,601.7989502090495,200005,004,2023-04-04_11h23.56.328,DMS_et_12-36,2022.2.4,None,
,,,,,,,,,,,,,,,,,,,,,,,,,,,,,,,,,,,7,0,7,0,,,,,,,,,601.7989502090495,613.8335869589355,,,,,,,,,,,,,200005,004,2023-04-04_11h23.56.328,DMS_et_12-36,2022.2.4,None,
80,PRED,12,1.0913464723423556,1,images/picture_2.png,images/picture_1.png,0,"[11.733433509789464, 11.733433509789462]",11.733433509789464,11.733433509789462,images/picture_2.png,1,"[-11.733433509789462, 11.733433509789464]",-11.733433509789462,11.733433509789464,images/picture_3.png,2,"[11.733433509789462, -11.733433509789466]",11.733433509789462,-11.733433509789464,0,1,1,1.0913464723423556,2.091346472342356,0.9086535276576444,3.0,1,1.841346472342356,0,4.0,3.0,1,2,8,0,8,0,0,0,0,8,,,,,,,613.8335869589355,613.8335869589355,614.8442324169446,615.6775576248765,615.9300630840007,615.9300630840007,615.9300630840007,616.8294564590324,616.843723667087,616.843723667087,616.843723667087,617.8442242920864,200005,004,2023-04-04_11h23.56.328,DMS_et_12-36,2022.2.4,None,
72,PRED,12,1.0913464723423556,1,images/picture_2.png,images/picture_1.png,0,"[11.733433509789464, 11.733433509789462]",11.733433509789464,11.733433509789462,images/picture_2.png,1,"[-11.733433509789462, 11.733433509789464]",-11.733433509789462,11.733433509789464,images/picture_3.png,2,"[11.733433509789462, -11.733433509789466]",11.733433509789462,-11.733433509789464,0,1,1,1.0913464723423556,2.091346472342356,0.9086535276576444,3.0,1,1.841346472342356,0,4.0,3.0,1,2,8,0,8,0,0,1,1,0,,,,,,,617.8442242920864,617.8442242920864,618.8439152920619,619.6973823339213,619.9305743749719,619.9305743749719,619.9305743749719,620.8441561248619,620.8441561248619,620.8441561248619,620.8441561248619,621.8434562920593,200005,004,2023-04-04_11h23.56.328,DMS_et_12-36,2022.2.4,None,
78,PRED,12,1.0913464723423556,1,images/picture_2.png,images/picture_1.png,0,"[-11.733433509789466, -11.733433509789462]",-11.733433509789464,-11.733433509789462,images/picture_2.png,1,"[11.733433509789464, 11.733433509789462]",11.733433509789464,11.733433509789462,images/picture_3.png,2,"[-11.733433509789462, 11.733433509789464]",-11.733433509789462,11.733433509789464,0,1,1,1.0913464723423556,2.091346472342356,0.9086535276576444,3.0,1,1.841346472342356,0,4.0,3.0,1,2,8,0,8,0,0,2,2,6,,,,,,,621.8434562920593,621.8434562920593,622.8441092919093,623.6970043340698,623.9305662089027,623.9305662089027,623.9305662089027,624.8439574590884,624.8439574590884,624.8439574590884,624.8439574590884,625.8435451248661,200005,004,2023-04-04_11h23.56.328,DMS_et_12-36,2022.2.4,None,
74,PRED,12,1.0913464723423556,1,images/picture_2.png,images/picture_1.png,0,"[-11.733433509789466, -11.733433509789462]",-11.733433509789464,-11.733433509789462,images/picture_2.png,1,"[11.733433509789464, 11.733433509789462]",11.733433509789464,11.733433509789462,images/picture_3.png,2,"[-11.733433509789462, 11.733433509789464]",-11.733433509789462,11.733433509789464,0,1,1,1.0913464723423556,2.091346472342356,0.9086535276576444,3.0,1,1.841346472342356,0,4.0,3.0,1,2,8,0,8,0,0,3,3,2,,,,,,,625.8435451248661,625.8435451248661,626.8439898749348,627.696118166903,627.9296655000653,627.9296655000653,627.9296655000653,628.8441677088849,628.8441677088849,628.8441677088849,628.8441677088849,629.8434910420328,200005,004,2023-04-04_11h23.56.328,DMS_et_12-36,2022.2.4,None,
76,PRED,12,1.0913464723423556,1,images/picture_2.png,images/picture_1.png,0,"[-11.733433509789466, -11.733433509789462]",-11.733433509789464,-11.733433509789462,images/picture_2.png,1,"[11.733433509789464, 11.733433509789462]",11.733433509789464,11.733433509789462,images/picture_3.png,2,"[-11.733433509789462, 11.733433509789464]",-11.733433509789462,11.733433509789464,0,1,1,1.0913464723423556,2.091346472342356,0.9086535276576444,3.0,1,1.841346472342356,0,4.0,3.0,1,2,8,0,8,0,0,4,4,4,,,,,,,629.8434910420328,629.8434910420328,630.843979917001,631.6968973339535,631.9302954589948,631.9302954589948,631.9302954589948,632.8441233339254,632.8441233339254,632.8441233339254,632.8441233339254,633.8434353750199,200005,004,2023-04-04_11h23.56.328,DMS_et_12-36,2022.2.4,None,
79,PRED,12,1.0913464723423556,1,images/picture_2.png,images/picture_1.png,0,"[-11.733433509789466, -11.733433509789462]",-11.733433509789464,-11.733433509789462,images/picture_2.png,1,"[11.733433509789462, -11.733433509789466]",11.733433509789462,-11.733433509789464,images/picture_3.png,2,"[-11.733433509789462, 11.733433509789464]",-11.733433509789462,11.733433509789464,0,1,1,1.0913464723423556,2.091346472342356,0.9086535276576444,3.0,1,1.841346472342356,0,4.0,3.0,1,2,8,0,8,0,0,5,5,7,,,,,,,633.8434353750199,633.8434353750199,634.8441216249485,635.6966148340143,635.9302125840914,635.9302125840914,635.9302125840914,636.8441048339009,636.8441048339009,636.8441048339009,636.8441048339009,637.8437917090487,200005,004,2023-04-04_11h23.56.328,DMS_et_12-36,2022.2.4,None,
75,PRED,12,1.0913464723423556,1,images/picture_2.png,images/picture_1.png,0,"[11.733433509789464, 11.733433509789462]",11.733433509789464,11.733433509789462,images/picture_2.png,1,"[-11.733433509789462, 11.733433509789464]",-11.733433509789462,11.733433509789464,images/picture_3.png,2,"[-11.733433509789466, -11.733433509789462]",-11.733433509789464,-11.733433509789462,0,1,1,1.0913464723423556,2.091346472342356,0.9086535276576444,3.0,1,1.841346472342356,0,4.0,3.0,1,2,8,0,8,0,0,6,6,3,,,,,,,637.8437917090487,637.8437917090487,638.8439084999263,639.6969804170076,639.9299517499749,639.9299517499749,639.9299517499749,640.8441929589026,640.8441929589026,640.8441929589026,640.8441929589026,641.8436172090005,200005,004,2023-04-04_11h23.56.328,DMS_et_12-36,2022.2.4,None,
77,PRED,12,1.0913464723423556,1,images/picture_2.png,images/picture_1.png,0,"[11.733433509789462, -11.733433509789466]",11.733433509789462,-11.733433509789464,images/picture_2.png,1,"[-11.733433509789466, -11.733433509789462]",-11.733433509789464,-11.733433509789462,images/picture_3.png,2,"[-11.733433509789462, 11.733433509789464]",-11.733433509789462,11.733433509789464,0,1,1,1.0913464723423556,2.091346472342356,0.9086535276576444,3.0,1,1.841346472342356,0,4.0,3.0,1,2,8,0,8,0,0,7,7,5,,,,,,,641.8436172090005,641.8436172090005,642.84389916691,643.6974859999027,643.9295549590606,643.9295549590606,643.9295549590606,644.8439569999464,644.8439569999464,644.8439569999464,644.8439569999464,645.8434546249919,200005,004,2023-04-04_11h23.56.328,DMS_et_12-36,2022.2.4,None,
73,PRED,12,1.0913464723423556,1,images/picture_2.png,images/picture_1.png,0,"[-11.733433509789462, 11.733433509789464]",-11.733433509789462,11.733433509789464,images/picture_2.png,1,"[11.733433509789464, 11.733433509789462]",11.733433509789464,11.733433509789462,images/picture_3.png,2,"[-11.733433509789466, -11.733433509789462]",-11.733433509789464,-11.733433509789462,0,1,1,1.0913464723423556,2.091346472342356,0.9086535276576444,3.0,1,1.841346472342356,0,4.0,3.0,1,2,8,0,8,0,0,8,8,1,,,,,,,645.8434546249919,645.8434546249919,646.8439336670563,647.6957912088837,647.9294699169695,647.9294699169695,647.9294699169695,648.8441462500487,648.8441462500487,648.8441462500487,648.8441462500487,649.9391683340073,200005,004,2023-04-04_11h23.56.328,DMS_et_12-36,2022.2.4,None,
,,,,,,,,,,,,,,,,,,,,,,,,,,,,,,,,,,,8,0,8,0,,,,,,,,,649.9391683340073,661.9664820418693,,,,,,,,,,,,,200005,004,2023-04-04_11h23.56.328,DMS_et_12-36,2022.2.4,None,
84,UNPRED,12,1.0913464723423556,1,images/picture_2.png,images/picture_1.png,0,"[-11.733433509789462, 11.733433509789464]",-11.733433509789462,11.733433509789464,images/picture_2.png,1,"[-11.733433509789466, -11.733433509789462]",-11.733433509789464,-11.733433509789462,images/picture_3.png,2,"[11.733433509789464, 11.733433509789462]",11.733433509789464,11.733433509789462,0,1,1,1.0913464723423556,2.091346472342356,0.9086535276576444,3.0,1,1.841346472342356,0,4.0,3.0,1,2,9,0,9,0,0,0,0,3,,,,,,,661.9664820418693,661.9664820418693,662.9775590419304,663.8107552919537,664.0635473749135,664.0635473749135,664.0635473749135,664.9636212498881,664.9773712090682,664.9773712090682,664.9773712090682,665.9769382919185,200005,004,2023-04-04_11h23.56.328,DMS_et_12-36,2022.2.4,None,
86,UNPRED,12,1.0913464723423556,0,images/picture_1.png,images/picture_1.png,0,"[-11.733433509789466, -11.733433509789462]",-11.733433509789464,-11.733433509789462,images/picture_2.png,1,"[11.733433509789464, 11.733433509789462]",11.733433509789464,11.733433509789462,images/picture_3.png,2,"[11.733433509789462, -11.733433509789466]",11.733433509789462,-11.733433509789464,0,1,1,1.0913464723423556,2.091346472342356,0.9086535276576444,3.0,1,1.841346472342356,0,4.0,3.0,1,2,9,0,9,0,0,1,1,5,,,,,,,665.9769382919185,665.9769382919185,666.9773274168838,667.8294818750583,668.0628671669401,668.0628671669401,668.0628671669401,668.9770397918765,668.9770397918765,668.9770397918765,668.9770397918765,669.9777954588644,200005,004,2023-04-04_11h23.56.328,DMS_et_12-36,2022.2.4,None,
87,UNPRED,12,1.0913464723423556,1,images/picture_2.png,images/picture_1.png,0,"[-11.733433509789466, -11.733433509789462]",-11.733433509789464,-11.733433509789462,images/picture_2.png,1,"[11.733433509789464, 11.733433509789462]",11.733433509789464,11.733433509789462,images/picture_3.png,2,"[-11.733433509789462, 11.733433509789464]",-11.733433509789462,11.733433509789464,0,1,1,1.0913464723423556,2.091346472342356,0.9086535276576444,3.0,1,1.841346472342356,0,4.0,3.0,1,2,9,0,9,0,0,2,2,6,,,,,,,669.9777954588644,669.9777954588644,670.9773708749563,671.8302194999997,672.0637918340508,672.0637918340508,672.0637918340508,672.977339749923,672.977339749923,672.977339749923,672.977339749923,673.996159958886,200005,004,2023-04-04_11h23.56.328,DMS_et_12-36,2022.2.4,None,
89,UNPRED,12,1.0913464723423556,2,images/picture_3.png,images/picture_1.png,0,"[11.733433509789462, -11.733433509789466]",11.733433509789462,-11.733433509789464,images/picture_2.png,1,"[-11.733433509789462, 11.733433509789464]",-11.733433509789462,11.733433509789464,images/picture_3.png,2,"[11.733433509789464, 11.733433509789462]",11.733433509789464,11.733433509789462,0,1,1,1.0913464723423556,2.091346472342356,0.9086535276576444,3.0,1,1.841346472342356,0,4.0,3.0,1,2,9,0,9,0,0,3,3,8,,,,,,,673.996159958886,673.996159958886,675.010621417081,675.8439407090191,676.0641762500163,676.0641762500163,676.0641762500163,676.9773732500616,676.9773732500616,676.9773732500616,676.9773732500616,677.9968594170641,200005,004,2023-04-04_11h23.56.328,DMS_et_12-36,2022.2.4,None,
83,UNPRED,12,1.0913464723423556,2,images/picture_3.png,images/picture_1.png,0,"[11.733433509789464, 11.733433509789462]",11.733433509789464,11.733433509789462,images/picture_2.png,1,"[-11.733433509789462, 11.733433509789464]",-11.733433509789462,11.733433509789464,images/picture_3.png,2,"[-11.733433509789466, -11.733433509789462]",-11.733433509789464,-11.733433509789462,0,1,1,1.0913464723423556,2.091346472342356,0.9086535276576444,3.0,1,1.841346472342356,0,4.0,3.0,1,2,9,0,9,0,0,4,4,2,,,,,,,677.9968594170641,677.9968594170641,679.0105280838907,679.8439485840499,680.0633725419175,680.0633725419175,680.0633725419175,680.9772009169683,680.9772009169683,680.9772009169683,680.9772009169683,681.9775483340491,200005,004,2023-04-04_11h23.56.328,DMS_et_12-36,2022.2.4,None,
81,UNPRED,12,1.0913464723423556,0,images/picture_1.png,images/picture_1.png,0,"[11.733433509789464, 11.733433509789462]",11.733433509789464,11.733433509789462,images/picture_2.png,1,"[-11.733433509789466, -11.733433509789462]",-11.733433509789464,-11.733433509789462,images/picture_3.png,2,"[11.733433509789462, -11.733433509789466]",11.733433509789462,-11.733433509789464,0,1,1,1.0913464723423556,2.091346472342356,0.9086535276576444,3.0,1,1.841346472342356,0,4.0,3.0,1,2,9,0,9,0,0,5,5,0,,,,,,,681.9775483340491,681.9775483340491,682.9772967500612,683.8301077499054,684.0633107919712,684.0633107919712,684.0633107919712,684.9773649999406,684.9773649999406,684.9773649999406,684.9773649999406,685.9959487090819,200005,004,2023-04-04_11h23.56.328,DMS_et_12-36,2022.2.4,None,
88,UNPRED,12,1.0913464723423556,2,images/picture_3.png,images/picture_1.png,0,"[11.733433509789464, 11.733433509789462]",11.733433509789464,11.733433509789462,images/picture_2.png,1,"[11.733433509789462, -11.733433509789466]",11.733433509789462,-11.733433509789464,images/picture_3.png,2,"[-11.733433509789462, 11.733433509789464]",-11.733433509789462,11.733433509789464,0,1,1,1.0913464723423556,2.091346472342356,0.9086535276576444,3.0,1,1.841346472342356,0,4.0,3.0,1,2,9,0,9,0,0,6,6,7,,,,,,,685.9959487090819,685.9959487090819,687.0106861249078,687.8440403749701,688.0641979170032,688.0641979170032,688.0641979170032,688.9770087499637,688.9770087499637,688.9770087499637,688.9770087499637,689.9961780000012,200005,004,2023-04-04_11h23.56.328,DMS_et_12-36,2022.2.4,None,
85,UNPRED,12,1.0913464723423556,2,images/picture_3.png,images/picture_1.png,0,"[11.733433509789464, 11.733433509789462]",11.733433509789464,11.733433509789462,images/picture_2.png,1,"[-11.733433509789466, -11.733433509789462]",-11.733433509789464,-11.733433509789462,images/picture_3.png,2,"[-11.733433509789462, 11.733433509789464]",-11.733433509789462,11.733433509789464,0,1,1,1.0913464723423556,2.091346472342356,0.9086535276576444,3.0,1,1.841346472342356,0,4.0,3.0,1,2,9,0,9,0,0,7,7,4,,,,,,,689.9961780000012,689.9961780000012,691.0106087920722,691.8439486669376,692.0633587089833,692.0633587089833,692.0633587089833,692.9773478340358,692.9773478340358,692.9773478340358,692.9773478340358,693.9768491249997,200005,004,2023-04-04_11h23.56.328,DMS_et_12-36,2022.2.4,None,
82,UNPRED,12,1.0913464723423556,0,images/picture_1.png,images/picture_1.png,0,"[-11.733433509789462, 11.733433509789464]",-11.733433509789462,11.733433509789464,images/picture_2.png,1,"[11.733433509789464, 11.733433509789462]",11.733433509789464,11.733433509789462,images/picture_3.png,2,"[-11.733433509789466, -11.733433509789462]",-11.733433509789464,-11.733433509789462,0,1,1,1.0913464723423556,2.091346472342356,0.9086535276576444,3.0,1,1.841346472342356,0,4.0,3.0,1,2,9,0,9,0,0,8,8,1,,,,,,,693.9768491249997,693.9768491249997,694.9771729588974,695.8301711250097,696.0635237500537,696.0635237500537,696.0635237500537,696.9773728749715,696.9773728749715,696.9773728749715,696.9773728749715,698.0821479589213,200005,004,2023-04-04_11h23.56.328,DMS_et_12-36,2022.2.4,None,
,,,,,,,,,,,,,,,,,,,,,,,,,,,,,,,,,,,9,0,9,0,,,,,,,,,698.0821479589213,710.1023805839941,,,,,,,,,,,,,200005,004,2023-04-04_11h23.56.328,DMS_et_12-36,2022.2.4,None,
96,PRED,12,1.0913464723423556,1,images/picture_2.png,images/picture_1.png,0,"[11.733433509789462, -11.733433509789466]",11.733433509789462,-11.733433509789464,images/picture_2.png,1,"[-11.733433509789462, 11.733433509789464]",-11.733433509789462,11.733433509789464,images/picture_3.png,2,"[-11.733433509789466, -11.733433509789462]",-11.733433509789464,-11.733433509789462,0,1,1,1.0913464723423556,2.091346472342356,0.9086535276576444,3.0,1,1.841346472342356,0,4.0,3.0,1,2,10,0,10,0,0,0,0,6,,,,,,,710.1023805839941,710.1023805839941,711.1106720420066,711.9439110420644,712.1971311669331,712.1971311669331,712.1971311669331,713.0970230000094,713.1106204169337,713.1106204169337,713.1106204169337,714.110263834009,200005,004,2023-04-04_11h23.56.328,DMS_et_12-36,2022.2.4,None,
95,PRED,12,1.0913464723423556,1,images/picture_2.png,images/picture_1.png,0,"[-11.733433509789462, 11.733433509789464]",-11.733433509789462,11.733433509789464,images/picture_2.png,1,"[11.733433509789462, -11.733433509789466]",11.733433509789462,-11.733433509789464,images/picture_3.png,2,"[11.733433509789464, 11.733433509789462]",11.733433509789464,11.733433509789462,0,1,1,1.0913464723423556,2.091346472342356,0.9086535276576444,3.0,1,1.841346472342356,0,4.0,3.0,1,2,10,0,10,0,0,1,1,5,,,,,,,714.110263834009,714.110263834009,715.110623500077,715.963397125015,716.1962174170185,716.1962174170185,716.1962174170185,717.1106378340628,717.1106378340628,717.1106378340628,717.1106378340628,718.1099565839395,200005,004,2023-04-04_11h23.56.328,DMS_et_12-36,2022.2.4,None,
94,PRED,12,1.0913464723423556,1,images/picture_2.png,images/picture_1.png,0,"[11.733433509789464, 11.733433509789462]",11.733433509789464,11.733433509789462,images/picture_2.png,1,"[11.733433509789462, -11.733433509789466]",11.733433509789462,-11.733433509789464,images/picture_3.png,2,"[-11.733433509789462, 11.733433509789464]",-11.733433509789462,11.733433509789464,0,1,1,1.0913464723423556,2.091346472342356,0.9086535276576444,3.0,1,1.841346472342356,0,4.0,3.0,1,2,10,0,10,0,0,2,2,4,,,,,,,718.1099565839395,718.1099565839395,719.1108256250154,719.9627972499002,720.1959972500335,720.1959972500335,720.1959972500335,721.1106356668752,721.1106356668752,721.1106356668752,721.1106356668752,722.1098465840332,200005,004,2023-04-04_11h23.56.328,DMS_et_12-36,2022.2.4,None,
98,PRED,12,1.0913464723423556,1,images/picture_2.png,images/picture_1.png,0,"[-11.733433509789466, -11.733433509789462]",-11.733433509789464,-11.733433509789462,images/picture_2.png,1,"[11.733433509789464, 11.733433509789462]",11.733433509789464,11.733433509789462,images/picture_3.png,2,"[-11.733433509789462, 11.733433509789464]",-11.733433509789462,11.733433509789464,0,1,1,1.0913464723423556,2.091346472342356,0.9086535276576444,3.0,1,1.841346472342356,0,4.0,3.0,1,2,10,0,10,0,0,3,3,8,,,,,,,722.1098465840332,722.1098465840332,723.1104150840547,723.9636026669759,724.1968254169915,724.1968254169915,724.1968254169915,725.1105585419573,725.1105585419573,725.1105585419573,725.1105585419573,726.1100454169791,200005,004,2023-04-04_11h23.56.328,DMS_et_12-36,2022.2.4,None,
97,PRED,12,1.0913464723423556,1,images/picture_2.png,images/picture_1.png,0,"[11.733433509789462, -11.733433509789466]",11.733433509789462,-11.733433509789464,images/picture_2.png,1,"[-11.733433509789466, -11.733433509789462]",-11.733433509789464,-11.733433509789462,images/picture_3.png,2,"[11.733433509789464, 11.733433509789462]",11.733433509789464,11.733433509789462,0,1,1,1.0913464723423556,2.091346472342356,0.9086535276576444,3.0,1,1.841346472342356,0,4.0,3.0,1,2,10,0,10,0,0,4,4,7,,,,,,,726.1100454169791,726.1100454169791,727.1106385840103,727.9634854588658,728.1966983340681,728.1966983340681,728.1966983340681,729.1106442089658,729.1106442089658,729.1106442089658,729.1106442089658,730.110400167061,200005,004,2023-04-04_11h23.56.328,DMS_et_12-36,2022.2.4,None,
91,PRED,12,1.0913464723423556,1,images/picture_2.png,images/picture_1.png,0,"[-11.733433509789466, -11.733433509789462]",-11.733433509789464,-11.733433509789462,images/picture_2.png,1,"[11.733433509789462, -11.733433509789466]",11.733433509789462,-11.733433509789464,images/picture_3.png,2,"[-11.733433509789462, 11.733433509789464]",-11.733433509789462,11.733433509789464,0,1,1,1.0913464723423556,2.091346472342356,0.9086535276576444,3.0,1,1.841346472342356,0,4.0,3.0,1,2,10,0,10,0,0,5,5,1,,,,,,,730.110400167061,730.110400167061,731.1107162919361,731.963506833883,732.1968122089747,732.1968122089747,732.1968122089747,733.110677416902,733.110677416902,733.110677416902,733.110677416902,734.1100392499939,200005,004,2023-04-04_11h23.56.328,DMS_et_12-36,2022.2.4,None,
93,PRED,12,1.0913464723423556,1,images/picture_2.png,images/picture_1.png,0,"[11.733433509789462, -11.733433509789466]",11.733433509789462,-11.733433509789464,images/picture_2.png,1,"[-11.733433509789462, 11.733433509789464]",-11.733433509789462,11.733433509789464,images/picture_3.png,2,"[11.733433509789464, 11.733433509789462]",11.733433509789464,11.733433509789462,0,1,1,1.0913464723423556,2.091346472342356,0.9086535276576444,3.0,1,1.841346472342356,0,4.0,3.0,1,2,10,0,10,0,0,6,6,3,,,,,,,734.1100392499939,734.1100392499939,735.1101594590582,735.9636232089251,736.1969451669138,736.1969451669138,736.1969451669138,737.110668834066,737.110668834066,737.110668834066,737.110668834066,738.1101527500432,200005,004,2023-04-04_11h23.56.328,DMS_et_12-36,2022.2.4,None,
92,PRED,12,1.0913464723423556,1,images/picture_2.png,images/picture_1.png,0,"[-11.733433509789466, -11.733433509789462]",-11.733433509789464,-11.733433509789462,images/picture_2.png,1,"[11.733433509789464, 11.733433509789462]",11.733433509789464,11.733433509789462,images/picture_3.png,2,"[-11.733433509789462, 11.733433509789464]",-11.733433509789462,11.733433509789464,0,1,1,1.0913464723423556,2.091346472342356,0.9086535276576444,3.0,1,1.841346472342356,0,4.0,3.0,1,2,10,0,10,0,0,7,7,2,,,,,,,738.1101527500432,738.1101527500432,739.1105949170887,739.9623290000018,740.1960726249963,740.1960726249963,740.1960726249963,741.1103224589024,741.1103224589024,741.1103224589024,741.1103224589024,742.1102826669812,200005,004,2023-04-04_11h23.56.328,DMS_et_12-36,2022.2.4,None,
90,PRED,12,1.0913464723423556,1,images/picture_2.png,images/picture_1.png,0,"[-11.733433509789466, -11.733433509789462]",-11.733433509789464,-11.733433509789462,images/picture_2.png,1,"[11.733433509789464, 11.733433509789462]",11.733433509789464,11.733433509789462,images/picture_3.png,2,"[11.733433509789462, -11.733433509789466]",11.733433509789462,-11.733433509789464,0,1,1,1.0913464723423556,2.091346472342356,0.9086535276576444,3.0,1,1.841346472342356,0,4.0,3.0,1,2,10,0,10,0,0,8,8,0,,,,,,,742.1102826669812,742.1102826669812,743.1107070420403,743.9636886669323,744.196741374908,744.196741374908,744.196741374908,745.1104884999804,745.1104884999804,745.1104884999804,745.1104884999804,746.2273587500677,200005,004,2023-04-04_11h23.56.328,DMS_et_12-36,2022.2.4,None,
,,,,,,,,,,,,,,,,,,,,,,,,,,,,,,,,,,,10,0,10,0,,,,,,,,,746.2273587500677,758.2589315420482,,,,,,,,,,,,,200005,004,2023-04-04_11h23.56.328,DMS_et_12-36,2022.2.4,None,
101,UNPRED,12,1.0913464723423556,2,images/picture_3.png,images/picture_1.png,0,"[11.733433509789464, 11.733433509789462]",11.733433509789464,11.733433509789462,images/picture_2.png,1,"[-11.733433509789462, 11.733433509789464]",-11.733433509789462,11.733433509789464,images/picture_3.png,2,"[-11.733433509789466, -11.733433509789462]",-11.733433509789464,-11.733433509789462,0,1,1,1.0913464723423556,2.091346472342356,0.9086535276576444,3.0,1,1.841346472342356,0,4.0,3.0,1,2,11,0,11,0,0,0,0,2,,,,,,,758.2589315420482,758.2589315420482,759.2634322920348,760.1105201249011,760.3436639169231,760.3436639169231,760.3436639169231,761.2436393338721,761.2625822499394,761.2625822499394,761.2625822499394,762.2627604170702,200005,004,2023-04-04_11h23.56.328,DMS_et_12-36,2022.2.4,None,
107,UNPRED,12,1.0913464723423556,2,images/picture_3.png,images/picture_1.png,0,"[-11.733433509789466, -11.733433509789462]",-11.733433509789464,-11.733433509789462,images/picture_2.png,1,"[11.733433509789462, -11.733433509789466]",11.733433509789462,-11.733433509789464,images/picture_3.png,2,"[11.733433509789464, 11.733433509789462]",11.733433509789464,11.733433509789462,0,1,1,1.0913464723423556,2.091346472342356,0.9086535276576444,3.0,1,1.841346472342356,0,4.0,3.0,1,2,11,0,11,0,0,1,1,8,,,,,,,762.2627604170702,762.2627604170702,763.2772580839228,764.110561874928,764.3299845000729,764.3299845000729,764.3299845000729,765.2441673749126,765.2441673749126,765.2441673749126,765.2441673749126,766.2629331669305,200005,004,2023-04-04_11h23.56.328,DMS_et_12-36,2022.2.4,None,
102,UNPRED,12,1.0913464723423556,2,images/picture_3.png,images/picture_1.png,0,"[11.733433509789464, 11.733433509789462]",11.733433509789464,11.733433509789462,images/picture_2.png,1,"[11.733433509789462, -11.733433509789466]",11.733433509789462,-11.733433509789464,images/picture_3.png,2,"[-11.733433509789462, 11.733433509789464]",-11.733433509789462,11.733433509789464,0,1,1,1.0913464723423556,2.091346472342356,0.9086535276576444,3.0,1,1.841346472342356,0,4.0,3.0,1,2,11,0,11,0,0,2,2,3,,,,,,,766.2629331669305,766.2629331669305,767.2772681249771,768.1106114999857,768.3306789589114,768.3306789589114,768.3306789589114,769.2439294168726,769.2439294168726,769.2439294168726,769.2439294168726,770.2629891249817,200005,004,2023-04-04_11h23.56.328,DMS_et_12-36,2022.2.4,None,
106,UNPRED,12,1.0913464723423556,2,images/picture_3.png,images/picture_1.png,0,"[-11.733433509789466, -11.733433509789462]",-11.733433509789464,-11.733433509789462,images/picture_2.png,1,"[-11.733433509789462, 11.733433509789464]",-11.733433509789462,11.733433509789464,images/picture_3.png,2,"[11.733433509789462, -11.733433509789466]",11.733433509789462,-11.733433509789464,0,1,1,1.0913464723423556,2.091346472342356,0.9086535276576444,3.0,1,1.841346472342356,0,4.0,3.0,1,2,11,0,11,0,0,3,3,7,,,,,,,770.2629891249817,770.2629891249817,771.2769815418869,772.1103515420109,772.3300712499768,772.3300712499768,772.3300712499768,773.2440077089705,773.2440077089705,773.2440077089705,773.2440077089705,774.263854333898,200005,004,2023-04-04_11h23.56.328,DMS_et_12-36,2022.2.4,None,
105,UNPRED,12,1.0913464723423556,0,images/picture_1.png,images/picture_1.png,0,"[11.733433509789464, 11.733433509789462]",11.733433509789464,11.733433509789462,images/picture_2.png,1,"[-11.733433509789466, -11.733433509789462]",-11.733433509789464,-11.733433509789462,images/picture_3.png,2,"[11.733433509789462, -11.733433509789466]",11.733433509789462,-11.733433509789464,0,1,1,1.0913464723423556,2.091346472342356,0.9086535276576444,3.0,1,1.841346472342356,0,4.0,3.0,1,2,11,0,11,0,0,4,4,6,,,,,,,774.263854333898,774.263854333898,775.2771947500296,776.1105810420122,776.3300956250168,776.3300956250168,776.3300956250168,777.2439032499678,777.2439032499678,777.2439032499678,777.2439032499678,778.2433410000522,200005,004,2023-04-04_11h23.56.328,DMS_et_12-36,2022.2.4,None,
104,UNPRED,12,1.0913464723423556,0,images/picture_1.png,images/picture_1.png,0,"[11.733433509789462, -11.733433509789466]",11.733433509789462,-11.733433509789464,images/picture_2.png,1,"[11.733433509789464, 11.733433509789462]",11.733433509789464,11.733433509789462,images/picture_3.png,2,"[-11.733433509789462, 11.733433509789464]",-11.733433509789462,11.733433509789464,0,1,1,1.0913464723423556,2.091346472342356,0.9086535276576444,3.0,1,1.841346472342356,0,4.0,3.0,1,2,11,0,11,0,0,5,5,5,,,,,,,778.2433410000522,778.2433410000522,779.243694917066,780.0972949168645,780.330069999909,780.330069999909,780.330069999909,781.2437193340156,781.2437193340156,781.2437193340156,781.2437193340156,782.2625332919415,200005,004,2023-04-04_11h23.56.328,DMS_et_12-36,2022.2.4,None,
99,UNPRED,12,1.0913464723423556,2,images/picture_3.png,images/picture_1.png,0,"[11.733433509789462, -11.733433509789466]",11.733433509789462,-11.733433509789464,images/picture_2.png,1,"[11.733433509789464, 11.733433509789462]",11.733433509789464,11.733433509789462,images/picture_3.png,2,"[-11.733433509789462, 11.733433509789464]",-11.733433509789462,11.733433509789464,0,1,1,1.0913464723423556,2.091346472342356,0.9086535276576444,3.0,1,1.841346472342356,0,4.0,3.0,1,2,11,0,11,0,0,6,6,0,,,,,,,782.2625332919415,782.2625332919415,783.2771887090057,784.110569417011,784.3300867090002,784.3300867090002,784.3300867090002,785.2439189590514,785.2439189590514,785.2439189590514,785.2439189590514,786.26273670909,200005,004,2023-04-04_11h23.56.328,DMS_et_12-36,2022.2.4,None,
103,UNPRED,12,1.0913464723423556,2,images/picture_3.png,images/picture_1.png,0,"[11.733433509789462, -11.733433509789466]",11.733433509789462,-11.733433509789464,images/picture_2.png,1,"[-11.733433509789466, -11.733433509789462]",-11.733433509789464,-11.733433509789462,images/picture_3.png,2,"[11.733433509789464, 11.733433509789462]",11.733433509789464,11.733433509789462,0,1,1,1.0913464723423556,2.091346472342356,0.9086535276576444,3.0,1,1.841346472342356,0,4.0,3.0,1,2,11,0,11,0,0,7,7,4,,,,,,,786.26273670909,786.26273670909,787.2773095839657,788.1104552089237,788.329872084083,788.329872084083,788.329872084083,789.2437112499028,789.2437112499028,789.2437112499028,789.2437112499028,790.2630788749084,200005,004,2023-04-04_11h23.56.328,DMS_et_12-36,2022.2.4,None,
100,UNPRED,12,1.0913464723423556,1,images/picture_2.png,images/picture_1.png,0,"[11.733433509789464, 11.733433509789462]",11.733433509789464,11.733433509789462,images/picture_2.png,1,"[-11.733433509789462, 11.733433509789464]",-11.733433509789462,11.733433509789464,images/picture_3.png,2,"[-11.733433509789466, -11.733433509789462]",-11.733433509789464,-11.733433509789462,0,1,1,1.0913464723423556,2.091346472342356,0.9086535276576444,3.0,1,1.841346472342356,0,4.0,3.0,1,2,11,0,11,0,0,8,8,1,,,,,,,790.2630788749084,790.2630788749084,791.277283417061,792.1102071669884,792.3293972089887,792.3293972089887,792.3293972089887,793.2438971670344,793.2438971670344,793.2438971670344,793.2438971670344,794.4465997500811,200005,004,2023-04-04_11h23.56.328,DMS_et_12-36,2022.2.4,None,
,,,,,,,,,,,,,,,,,,,,,,,,,,,,,,,,,,,11,0,11,0,,,,,,,,,794.4465997500811,806.5788886670489,,,,,,,,,,,,,200005,004,2023-04-04_11h23.56.328,DMS_et_12-36,2022.2.4,None,
,,,,,,,,,,,,,,,,,,,,,,,,,,,,,,,,,,,,,,,,,,,,,,,806.5788886670489,819.1086815418676,,,,,,,,,,,,,,,,,,,
