trial_count,blockType,blockNum,delay_time,stimImage_i,stimImage,responseImage1,responseImage1_i,responseImage1_pos,responseImage1_X,responseImage1_Y,responseImage2,responseImage2_i,responseImage2_pos,responseImage2_X,responseImage2_Y,responseImage3,responseImage3_i,responseImage3_pos,responseImage3_X,responseImage3_Y,cue_onset,cue_dur,delay_onset,delay_dur,resp_onset,resp_dur,rest_onset,rest_dur,circle_dur,circle_onset,total_dur,cross_onset,cross_dur,delay_resp_period,blocks.thisRepN,blocks.thisTrialN,blocks.thisN,blocks.thisIndex,trials.thisRepN,trials.thisTrialN,trials.thisN,trials.thisIndex,key_resp.started,text.started,key_resp.keys,key_resp.rt,text_2.started,text_2.stopped,sample.started,Delay.started,sample.stopped,Delay.stopped,Response_1.started,Response_2.started,Response_3.started,Response_1.stopped,Response_2.stopped,Response_3.stopped,polygon.started,polygon.stopped,participant,session,date,expName,psychopyVersion,frameRate,
,,,,,,,,,,,,,,,,,,,,,,,,,,,,,,,,,,,,,,,,,,,49.48863916701521,49.48863916701521,t,71.06658045900986,,,,,,,,,,,,,,,200008,004,2023-04-14_11h10.19.403,DMS_et_12-36,2022.2.4,None,
8,PRED,12,0.8381469209486567,2,images/picture_3.png,images/picture_1.png,0,"[11.733433509789462, -11.733433509789466]",11.733433509789462,-11.733433509789464,images/picture_2.png,1,"[-11.733433509789466, -11.733433509789462]",-11.733433509789464,-11.733433509789462,images/picture_3.png,2,"[-11.733433509789462, 11.733433509789464]",-11.733433509789462,11.733433509789464,0,1,1,0.8381469209486567,1.8381469209486567,1.1618530790513433,3.0,1,1.5881469209486567,0,4.0,3.0,1,2,0,0,0,0,0,0,0,8,,,,,121.06568195900763,133.1008819169947,133.1008819169947,133.1008819169947,134.1015285839967,134.70149266699445,134.92112554199412,134.92112554199412,134.92112554199412,136.08781720901607,136.08781720901607,136.08781720901607,136.08781720901607,137.12008504199912,200008,004,2023-04-14_11h10.19.403,DMS_et_12-36,2022.2.4,None,
0,PRED,12,0.8381469209486567,2,images/picture_3.png,images/picture_1.png,0,"[-11.733433509789462, 11.733433509789464]",-11.733433509789462,11.733433509789464,images/picture_2.png,1,"[-11.733433509789466, -11.733433509789462]",-11.733433509789464,-11.733433509789462,images/picture_3.png,2,"[11.733433509789464, 11.733433509789462]",11.733433509789464,11.733433509789462,0,1,1,0.8381469209486567,1.8381469209486567,1.1618530790513433,3.0,1,1.5881469209486567,0,4.0,3.0,1,2,0,0,0,0,0,1,1,0,,,,,,,137.12008504199912,137.12008504199912,138.13489000001573,138.72060037500341,138.9347838750109,138.9347838750109,138.9347838750109,140.10148295899853,140.10148295899853,140.10148295899853,140.10148295899853,141.1020558339951,200008,004,2023-04-14_11h10.19.403,DMS_et_12-36,2022.2.4,None,
4,PRED,12,0.8381469209486567,2,images/picture_3.png,images/picture_1.png,0,"[11.733433509789462, -11.733433509789466]",11.733433509789462,-11.733433509789464,images/picture_2.png,1,"[-11.733433509789462, 11.733433509789464]",-11.733433509789462,11.733433509789464,images/picture_3.png,2,"[11.733433509789464, 11.733433509789462]",11.733433509789464,11.733433509789462,0,1,1,0.8381469209486567,1.8381469209486567,1.1618530790513433,3.0,1,1.5881469209486567,0,4.0,3.0,1,2,0,0,0,0,0,2,2,4,,,,,,,141.1020558339951,141.1020558339951,142.10146708399407,142.7014867500111,142.93494120900868,142.93494120900868,142.93494120900868,144.10148058400955,144.10148058400955,144.10148058400955,144.10148058400955,145.1208634590148,200008,004,2023-04-14_11h10.19.403,DMS_et_12-36,2022.2.4,None,
3,PRED,12,0.8381469209486567,2,images/picture_3.png,images/picture_1.png,0,"[-11.733433509789466, -11.733433509789462]",-11.733433509789464,-11.733433509789462,images/picture_2.png,1,"[11.733433509789462, -11.733433509789466]",11.733433509789462,-11.733433509789464,images/picture_3.png,2,"[11.733433509789464, 11.733433509789462]",11.733433509789464,11.733433509789462,0,1,1,0.8381469209486567,1.8381469209486567,1.1618530790513433,3.0,1,1.5881469209486567,0,4.0,3.0,1,2,0,0,0,0,0,3,3,3,,,,,,,145.1208634590148,145.1208634590148,146.13476879199152,146.7216291250079,146.93476104200818,146.93476104200818,146.93476104200818,148.10152629201184,148.10152629201184,148.10152629201184,148.10152629201184,149.12017633399228,200008,004,2023-04-14_11h10.19.403,DMS_et_12-36,2022.2.4,None,
6,PRED,12,0.8381469209486567,2,images/picture_3.png,images/picture_1.png,0,"[11.733433509789462, -11.733433509789466]",11.733433509789462,-11.733433509789464,images/picture_2.png,1,"[-11.733433509789466, -11.733433509789462]",-11.733433509789464,-11.733433509789462,images/picture_3.png,2,"[11.733433509789464, 11.733433509789462]",11.733433509789464,11.733433509789462,0,1,1,0.8381469209486567,1.8381469209486567,1.1618530790513433,3.0,1,1.5881469209486567,0,4.0,3.0,1,2,0,0,0,0,0,4,4,6,,,,,,,149.12017633399228,149.12017633399228,150.1349752919923,150.7206966250087,150.93452987499768,150.93452987499768,150.93452987499768,152.10146587499185,152.10146587499185,152.10146587499185,152.10146587499185,153.120160209015,200008,004,2023-04-14_11h10.19.403,DMS_et_12-36,2022.2.4,None,
2,PRED,12,0.8381469209486567,2,images/picture_3.png,images/picture_1.png,0,"[11.733433509789462, -11.733433509789466]",11.733433509789462,-11.733433509789464,images/picture_2.png,1,"[-11.733433509789466, -11.733433509789462]",-11.733433509789464,-11.733433509789462,images/picture_3.png,2,"[-11.733433509789462, 11.733433509789464]",-11.733433509789462,11.733433509789464,0,1,1,0.8381469209486567,1.8381469209486567,1.1618530790513433,3.0,1,1.5881469209486567,0,4.0,3.0,1,2,0,0,0,0,0,5,5,2,,,,,,,153.120160209015,153.120160209015,154.13498995901318,154.721745250019,154.93491966699366,154.93491966699366,154.93491966699366,156.10151295899414,156.10151295899414,156.10151295899414,156.10151295899414,157.12054662499577,200008,004,2023-04-14_11h10.19.403,DMS_et_12-36,2022.2.4,None,
5,PRED,12,0.8381469209486567,2,images/picture_3.png,images/picture_1.png,0,"[-11.733433509789462, 11.733433509789464]",-11.733433509789462,11.733433509789464,images/picture_2.png,1,"[-11.733433509789466, -11.733433509789462]",-11.733433509789464,-11.733433509789462,images/picture_3.png,2,"[11.733433509789464, 11.733433509789462]",11.733433509789464,11.733433509789462,0,1,1,0.8381469209486567,1.8381469209486567,1.1618530790513433,3.0,1,1.5881469209486567,0,4.0,3.0,1,2,0,0,0,0,0,6,6,5,,,,,,,157.12054662499577,157.12054662499577,158.13480483400053,158.72118208400207,158.93483370900503,158.93483370900503,158.93483370900503,160.10150783401332,160.10150783401332,160.10150783401332,160.10150783401332,161.10156624999945,200008,004,2023-04-14_11h10.19.403,DMS_et_12-36,2022.2.4,None,
1,PRED,12,0.8381469209486567,2,images/picture_3.png,images/picture_1.png,0,"[11.733433509789464, 11.733433509789462]",11.733433509789464,11.733433509789462,images/picture_2.png,1,"[-11.733433509789462, 11.733433509789464]",-11.733433509789462,11.733433509789464,images/picture_3.png,2,"[11.733433509789462, -11.733433509789466]",11.733433509789462,-11.733433509789464,0,1,1,0.8381469209486567,1.8381469209486567,1.1618530790513433,3.0,1,1.5881469209486567,0,4.0,3.0,1,2,0,0,0,0,0,7,7,1,,,,,,,161.10156624999945,161.10156624999945,162.1015339170117,162.70156350001344,162.93500295901322,162.93500295901322,162.93500295901322,164.10150262500974,164.10150262500974,164.10150262500974,164.10150262500974,165.12104354199255,200008,004,2023-04-14_11h10.19.403,DMS_et_12-36,2022.2.4,None,
7,PRED,12,0.8381469209486567,2,images/picture_3.png,images/picture_1.png,0,"[-11.733433509789466, -11.733433509789462]",-11.733433509789464,-11.733433509789462,images/picture_2.png,1,"[11.733433509789462, -11.733433509789466]",11.733433509789462,-11.733433509789464,images/picture_3.png,2,"[11.733433509789464, 11.733433509789462]",11.733433509789464,11.733433509789462,0,1,1,0.8381469209486567,1.8381469209486567,1.1618530790513433,3.0,1,1.5881469209486567,0,4.0,3.0,1,2,0,0,0,0,0,8,8,7,,,,,,,165.12104354199255,165.12104354199255,166.13494200000423,166.7212847089977,166.93473558401456,166.93473558401456,166.93473558401456,168.10157187501318,168.10157187501318,168.10157187501318,168.10157187501318,169.11985420901328,200008,004,2023-04-14_11h10.19.403,DMS_et_12-36,2022.2.4,None,
,,,,,,,,,,,,,,,,,,,,,,,,,,,,,,,,,,,0,0,0,0,,,,,,,,,169.11985420901328,181.15410254200106,,,,,,,,,,,,,200008,004,2023-04-14_11h10.19.403,DMS_et_12-36,2022.2.4,None,
9,UNPRED,12,0.8381469209486567,1,images/picture_2.png,images/picture_1.png,0,"[-11.733433509789466, -11.733433509789462]",-11.733433509789464,-11.733433509789462,images/picture_2.png,1,"[11.733433509789464, 11.733433509789462]",11.733433509789464,11.733433509789462,images/picture_3.png,2,"[-11.733433509789462, 11.733433509789464]",-11.733433509789462,11.733433509789464,0,1,1,0.8381469209486567,1.8381469209486567,1.1618530790513433,3.0,1,1.5881469209486567,0,4.0,3.0,1,2,1,0,1,0,0,0,0,0,,,,,,,181.15410254200106,181.15410254200106,182.167919583997,182.75457979200291,182.987612041994,182.987612041994,182.987612041994,184.1543408750149,184.1543408750149,184.1543408750149,184.13499387499178,185.13410212501185,200008,004,2023-04-14_11h10.19.403,DMS_et_12-36,2022.2.4,None,
14,UNPRED,12,0.8381469209486567,0,images/picture_1.png,images/picture_1.png,0,"[11.733433509789464, 11.733433509789462]",11.733433509789464,11.733433509789462,images/picture_2.png,1,"[11.733433509789462, -11.733433509789466]",11.733433509789462,-11.733433509789464,images/picture_3.png,2,"[-11.733433509789462, 11.733433509789464]",-11.733433509789462,11.733433509789464,0,1,1,0.8381469209486567,1.8381469209486567,1.1618530790513433,3.0,1,1.5881469209486567,0,4.0,3.0,1,2,1,0,1,0,0,1,1,5,,,,,,,185.13410212501185,185.13410212501185,186.13518149999436,186.73517191701103,186.96824074999313,186.96824074999313,186.96824074999313,188.13493108400144,188.13493108400144,188.13493108400144,188.13493108400144,189.1543217500148,200008,004,2023-04-14_11h10.19.403,DMS_et_12-36,2022.2.4,None,
15,UNPRED,12,0.8381469209486567,2,images/picture_3.png,images/picture_1.png,0,"[11.733433509789462, -11.733433509789466]",11.733433509789462,-11.733433509789464,images/picture_2.png,1,"[-11.733433509789462, 11.733433509789464]",-11.733433509789462,11.733433509789464,images/picture_3.png,2,"[11.733433509789464, 11.733433509789462]",11.733433509789464,11.733433509789462,0,1,1,0.8381469209486567,1.8381469209486567,1.1618530790513433,3.0,1,1.5881469209486567,0,4.0,3.0,1,2,1,0,1,0,0,2,2,6,,,,,,,189.1543217500148,189.1543217500148,190.16820537499734,190.75491945899557,190.96820058400044,190.96820058400044,190.96820058400044,192.13458995899418,192.13458995899418,192.13458995899418,192.13458995899418,193.1352115420159,200008,004,2023-04-14_11h10.19.403,DMS_et_12-36,2022.2.4,None,
17,UNPRED,12,0.8381469209486567,1,images/picture_2.png,images/picture_1.png,0,"[-11.733433509789462, 11.733433509789464]",-11.733433509789462,11.733433509789464,images/picture_2.png,1,"[11.733433509789464, 11.733433509789462]",11.733433509789464,11.733433509789462,images/picture_3.png,2,"[11.733433509789462, -11.733433509789466]",11.733433509789462,-11.733433509789464,0,1,1,0.8381469209486567,1.8381469209486567,1.1618530790513433,3.0,1,1.5881469209486567,0,4.0,3.0,1,2,1,0,1,0,0,3,3,8,,,,,,,193.1352115420159,193.1352115420159,194.1349757919961,194.73496466700453,194.96823762499844,194.96823762499844,194.96823762499844,196.13498462500866,196.13498462500866,196.13498462500866,196.13498462500866,197.1342880000011,200008,004,2023-04-14_11h10.19.403,DMS_et_12-36,2022.2.4,None,
11,UNPRED,12,0.8381469209486567,1,images/picture_2.png,images/picture_1.png,0,"[-11.733433509789466, -11.733433509789462]",-11.733433509789464,-11.733433509789462,images/picture_2.png,1,"[11.733433509789462, -11.733433509789466]",11.733433509789462,-11.733433509789464,images/picture_3.png,2,"[-11.733433509789462, 11.733433509789464]",-11.733433509789462,11.733433509789464,0,1,1,0.8381469209486567,1.8381469209486567,1.1618530790513433,3.0,1,1.5881469209486567,0,4.0,3.0,1,2,1,0,1,0,0,4,4,2,,,,,,,197.1342880000011,197.1342880000011,198.1349597919907,198.7349894999934,198.9682909590192,198.9682909590192,198.9682909590192,200.13516208401415,200.13516208401415,200.13516208401415,200.13516208401415,201.15415283400216,200008,004,2023-04-14_11h10.19.403,DMS_et_12-36,2022.2.4,None,
10,UNPRED,12,0.8381469209486567,2,images/picture_3.png,images/picture_1.png,0,"[-11.733433509789466, -11.733433509789462]",-11.733433509789464,-11.733433509789462,images/picture_2.png,1,"[11.733433509789464, 11.733433509789462]",11.733433509789464,11.733433509789462,images/picture_3.png,2,"[-11.733433509789462, 11.733433509789464]",-11.733433509789462,11.733433509789464,0,1,1,0.8381469209486567,1.8381469209486567,1.1618530790513433,3.0,1,1.5881469209486567,0,4.0,3.0,1,2,1,0,1,0,0,5,5,1,,,,,,,201.15415283400216,201.15415283400216,202.1680574589991,202.75339879200328,202.96812612499343,202.96812612499343,202.96812612499343,204.13494566699956,204.13494566699956,204.13494566699956,204.13494566699956,205.13492120901356,200008,004,2023-04-14_11h10.19.403,DMS_et_12-36,2022.2.4,None,
12,UNPRED,12,0.8381469209486567,0,images/picture_1.png,images/picture_1.png,0,"[-11.733433509789462, 11.733433509789464]",-11.733433509789462,11.733433509789464,images/picture_2.png,1,"[-11.733433509789466, -11.733433509789462]",-11.733433509789464,-11.733433509789462,images/picture_3.png,2,"[11.733433509789464, 11.733433509789462]",11.733433509789464,11.733433509789462,0,1,1,0.8381469209486567,1.8381469209486567,1.1618530790513433,3.0,1,1.5881469209486567,0,4.0,3.0,1,2,1,0,1,0,0,6,6,3,,,,,,,205.13492120901356,205.13492120901356,206.13497437501792,206.7349282920186,206.96820166701218,206.96820166701218,206.96820166701218,208.1349544590048,208.1349544590048,208.1349544590048,208.1349544590048,209.13440929201897,200008,004,2023-04-14_11h10.19.403,DMS_et_12-36,2022.2.4,None,
13,UNPRED,12,0.8381469209486567,0,images/picture_1.png,images/picture_1.png,0,"[-11.733433509789462, 11.733433509789464]",-11.733433509789462,11.733433509789464,images/picture_2.png,1,"[11.733433509789462, -11.733433509789466]",11.733433509789462,-11.733433509789464,images/picture_3.png,2,"[-11.733433509789466, -11.733433509789462]",-11.733433509789464,-11.733433509789462,0,1,1,0.8381469209486567,1.8381469209486567,1.1618530790513433,3.0,1,1.5881469209486567,0,4.0,3.0,1,2,1,0,1,0,0,7,7,4,,,,,,,209.13440929201897,209.13440929201897,210.13492754200706,210.73493687500013,210.96821795901633,210.96821795901633,210.96821795901633,212.13479087501764,212.13479087501764,212.13479087501764,212.13479087501764,213.13474837501417,200008,004,2023-04-14_11h10.19.403,DMS_et_12-36,2022.2.4,None,
16,UNPRED,12,0.8381469209486567,1,images/picture_2.png,images/picture_1.png,0,"[11.733433509789462, -11.733433509789466]",11.733433509789462,-11.733433509789464,images/picture_2.png,1,"[-11.733433509789466, -11.733433509789462]",-11.733433509789464,-11.733433509789462,images/picture_3.png,2,"[-11.733433509789462, 11.733433509789464]",-11.733433509789462,11.733433509789464,0,1,1,0.8381469209486567,1.8381469209486567,1.1618530790513433,3.0,1,1.5881469209486567,0,4.0,3.0,1,2,1,0,1,0,0,8,8,7,,,,,,,213.13474837501417,213.13474837501417,214.13500483401003,214.73492983399774,214.96840112499194,214.96840112499194,214.96840112499194,216.1349583750125,216.1349583750125,216.1349583750125,216.1349583750125,217.1666472920042,200008,004,2023-04-14_11h10.19.403,DMS_et_12-36,2022.2.4,None,
,,,,,,,,,,,,,,,,,,,,,,,,,,,,,,,,,,,1,0,1,0,,,,,,,,,217.1666472920042,229.18771958400612,,,,,,,,,,,,,200008,004,2023-04-14_11h10.19.403,DMS_et_12-36,2022.2.4,None,
18,PRED,12,0.8381469209486567,1,images/picture_2.png,images/picture_1.png,0,"[-11.733433509789466, -11.733433509789462]",-11.733433509789464,-11.733433509789462,images/picture_2.png,1,"[11.733433509789464, 11.733433509789462]",11.733433509789464,11.733433509789462,images/picture_3.png,2,"[11.733433509789462, -11.733433509789466]",11.733433509789462,-11.733433509789464,0,1,1,0.8381469209486567,1.8381469209486567,1.1618530790513433,3.0,1,1.5881469209486567,0,4.0,3.0,1,2,2,0,2,0,0,0,0,0,,,,,,,229.18771958400612,229.18771958400612,230.2016678749933,230.78776558401296,231.02089154199348,231.02089154199348,231.02089154199348,232.1877993340022,232.1877993340022,232.1877993340022,232.1877993340022,233.20128762500826,200008,004,2023-04-14_11h10.19.403,DMS_et_12-36,2022.2.4,None,
19,PRED,12,0.8381469209486567,1,images/picture_2.png,images/picture_1.png,0,"[-11.733433509789466, -11.733433509789462]",-11.733433509789464,-11.733433509789462,images/picture_2.png,1,"[11.733433509789462, -11.733433509789466]",11.733433509789462,-11.733433509789464,images/picture_3.png,2,"[-11.733433509789462, 11.733433509789464]",-11.733433509789462,11.733433509789464,0,1,1,0.8381469209486567,1.8381469209486567,1.1618530790513433,3.0,1,1.5881469209486567,0,4.0,3.0,1,2,2,0,2,0,0,1,1,1,,,,,,,233.20128762500826,233.20128762500826,234.20166683400748,234.80176883400418,235.03500237499247,235.03500237499247,235.03500237499247,236.20166295900708,236.20166295900708,236.20166295900708,236.20166295900708,237.20106416699127,200008,004,2023-04-14_11h10.19.403,DMS_et_12-36,2022.2.4,None,
26,PRED,12,0.8381469209486567,1,images/picture_2.png,images/picture_1.png,0,"[11.733433509789464, 11.733433509789462]",11.733433509789464,11.733433509789462,images/picture_2.png,1,"[11.733433509789462, -11.733433509789466]",11.733433509789462,-11.733433509789464,images/picture_3.png,2,"[-11.733433509789462, 11.733433509789464]",-11.733433509789462,11.733433509789464,0,1,1,0.8381469209486567,1.8381469209486567,1.1618530790513433,3.0,1,1.5881469209486567,0,4.0,3.0,1,2,2,0,2,0,0,2,2,8,,,,,,,237.20106416699127,237.20106416699127,238.2016458339931,238.80165920901345,239.03493983400404,239.03493983400404,239.03493983400404,240.20165691699367,240.20165691699367,240.20165691699367,240.20165691699367,241.20100637499127,200008,004,2023-04-14_11h10.19.403,DMS_et_12-36,2022.2.4,None,
20,PRED,12,0.8381469209486567,1,images/picture_2.png,images/picture_1.png,0,"[-11.733433509789462, 11.733433509789464]",-11.733433509789462,11.733433509789464,images/picture_2.png,1,"[11.733433509789464, 11.733433509789462]",11.733433509789464,11.733433509789462,images/picture_3.png,2,"[-11.733433509789466, -11.733433509789462]",-11.733433509789464,-11.733433509789462,0,1,1,0.8381469209486567,1.8381469209486567,1.1618530790513433,3.0,1,1.5881469209486567,0,4.0,3.0,1,2,2,0,2,0,0,3,3,2,,,,,,,241.20100637499127,241.20100637499127,242.2016393750091,242.80173420900246,243.03469558400684,243.03469558400684,243.03469558400684,244.20152608401258,244.20152608401258,244.20152608401258,244.20152608401258,245.20125366700813,200008,004,2023-04-14_11h10.19.403,DMS_et_12-36,2022.2.4,None,
24,PRED,12,0.8381469209486567,1,images/picture_2.png,images/picture_1.png,0,"[11.733433509789464, 11.733433509789462]",11.733433509789464,11.733433509789462,images/picture_2.png,1,"[11.733433509789462, -11.733433509789466]",11.733433509789462,-11.733433509789464,images/picture_3.png,2,"[-11.733433509789466, -11.733433509789462]",-11.733433509789464,-11.733433509789462,0,1,1,0.8381469209486567,1.8381469209486567,1.1618530790513433,3.0,1,1.5881469209486567,0,4.0,3.0,1,2,2,0,2,0,0,4,4,6,,,,,,,245.20125366700813,245.20125366700813,246.20168795899372,246.80166362499585,247.0349000839924,247.0349000839924,247.0349000839924,248.20166558399796,248.20166558399796,248.20166558399796,248.20166558399796,249.2011099169904,200008,004,2023-04-14_11h10.19.403,DMS_et_12-36,2022.2.4,None,
21,PRED,12,0.8381469209486567,1,images/picture_2.png,images/picture_1.png,0,"[11.733433509789462, -11.733433509789466]",11.733433509789462,-11.733433509789464,images/picture_2.png,1,"[-11.733433509789466, -11.733433509789462]",-11.733433509789464,-11.733433509789462,images/picture_3.png,2,"[11.733433509789464, 11.733433509789462]",11.733433509789464,11.733433509789462,0,1,1,0.8381469209486567,1.8381469209486567,1.1618530790513433,3.0,1,1.5881469209486567,0,4.0,3.0,1,2,2,0,2,0,0,5,5,3,,,,,,,249.2011099169904,249.2011099169904,250.20167725000647,250.8017471670173,251.0349630000128,251.0349630000128,251.0349630000128,252.20168729199213,252.20168729199213,252.20168729199213,252.20168729199213,253.20140358401113,200008,004,2023-04-14_11h10.19.403,DMS_et_12-36,2022.2.4,None,
22,PRED,12,0.8381469209486567,1,images/picture_2.png,images/picture_1.png,0,"[11.733433509789464, 11.733433509789462]",11.733433509789464,11.733433509789462,images/picture_2.png,1,"[-11.733433509789462, 11.733433509789464]",-11.733433509789462,11.733433509789464,images/picture_3.png,2,"[11.733433509789462, -11.733433509789466]",11.733433509789462,-11.733433509789464,0,1,1,0.8381469209486567,1.8381469209486567,1.1618530790513433,3.0,1,1.5881469209486567,0,4.0,3.0,1,2,2,0,2,0,0,6,6,4,,,,,,,253.20140358401113,253.20140358401113,254.20137116700062,254.80170112499036,255.03502704200218,255.03502704200218,255.03502704200218,256.2017266250041,256.2017266250041,256.2017266250041,256.2017266250041,257.20109074999345,200008,004,2023-04-14_11h10.19.403,DMS_et_12-36,2022.2.4,None,
25,PRED,12,0.8381469209486567,1,images/picture_2.png,images/picture_1.png,0,"[-11.733433509789466, -11.733433509789462]",-11.733433509789464,-11.733433509789462,images/picture_2.png,1,"[11.733433509789462, -11.733433509789466]",11.733433509789462,-11.733433509789464,images/picture_3.png,2,"[-11.733433509789462, 11.733433509789464]",-11.733433509789462,11.733433509789464,0,1,1,0.8381469209486567,1.8381469209486567,1.1618530790513433,3.0,1,1.5881469209486567,0,4.0,3.0,1,2,2,0,2,0,0,7,7,7,,,,,,,257.20109074999345,257.20109074999345,258.20169149999856,258.80170929199085,259.0349644590169,259.0349644590169,259.0349644590169,260.2016968750104,260.2016968750104,260.2016968750104,260.2016968750104,261.20111120899674,200008,004,2023-04-14_11h10.19.403,DMS_et_12-36,2022.2.4,None,
23,PRED,12,0.8381469209486567,1,images/picture_2.png,images/picture_1.png,0,"[11.733433509789462, -11.733433509789466]",11.733433509789462,-11.733433509789464,images/picture_2.png,1,"[-11.733433509789466, -11.733433509789462]",-11.733433509789464,-11.733433509789462,images/picture_3.png,2,"[11.733433509789464, 11.733433509789462]",11.733433509789464,11.733433509789462,0,1,1,0.8381469209486567,1.8381469209486567,1.1618530790513433,3.0,1,1.5881469209486567,0,4.0,3.0,1,2,2,0,2,0,0,8,8,5,,,,,,,261.20111120899674,261.20111120899674,262.2017307920032,262.8016982919944,263.03499795901007,263.03499795901007,263.03499795901007,264.2014086669951,264.2014086669951,264.2014086669951,264.2014086669951,265.2462171250081,200008,004,2023-04-14_11h10.19.403,DMS_et_12-36,2022.2.4,None,
,,,,,,,,,,,,,,,,,,,,,,,,,,,,,,,,,,,2,0,2,0,,,,,,,,,265.2462171250081,277.278344499995,,,,,,,,,,,,,200008,004,2023-04-14_11h10.19.403,DMS_et_12-36,2022.2.4,None,
32,UNPRED,12,0.8381469209486567,2,images/picture_3.png,images/picture_1.png,0,"[11.733433509789464, 11.733433509789462]",11.733433509789464,11.733433509789462,images/picture_2.png,1,"[11.733433509789462, -11.733433509789466]",11.733433509789462,-11.733433509789464,images/picture_3.png,2,"[-11.733433509789466, -11.733433509789462]",-11.733433509789464,-11.733433509789462,0,1,1,0.8381469209486567,1.8381469209486567,1.1618530790513433,3.0,1,1.5881469209486567,0,4.0,3.0,1,2,3,0,3,0,0,0,0,5,,,,,,,277.278344499995,277.278344499995,278.28790762499557,278.86841879200074,279.10170183400624,279.10170183400624,279.10170183400624,280.268231583992,280.268231583992,280.268231583992,280.268231583992,281.26821008400293,200008,004,2023-04-14_11h10.19.403,DMS_et_12-36,2022.2.4,None,
28,UNPRED,12,0.8381469209486567,0,images/picture_1.png,images/picture_1.png,0,"[11.733433509789462, -11.733433509789466]",11.733433509789462,-11.733433509789464,images/picture_2.png,1,"[-11.733433509789462, 11.733433509789464]",-11.733433509789462,11.733433509789464,images/picture_3.png,2,"[11.733433509789464, 11.733433509789462]",11.733433509789464,11.733433509789462,0,1,1,0.8381469209486567,1.8381469209486567,1.1618530790513433,3.0,1,1.5881469209486567,0,4.0,3.0,1,2,3,0,3,0,0,1,1,1,,,,,,,281.26821008400293,281.26821008400293,282.26840920900577,282.86843091700575,283.10166345900507,283.10166345900507,283.10166345900507,284.26812158399844,284.26812158399844,284.26812158399844,284.26812158399844,285.28732420899905,200008,004,2023-04-14_11h10.19.403,DMS_et_12-36,2022.2.4,None,
34,UNPRED,12,0.8381469209486567,2,images/picture_3.png,images/picture_1.png,0,"[11.733433509789464, 11.733433509789462]",11.733433509789464,11.733433509789462,images/picture_2.png,1,"[-11.733433509789466, -11.733433509789462]",-11.733433509789464,-11.733433509789462,images/picture_3.png,2,"[11.733433509789462, -11.733433509789466]",11.733433509789462,-11.733433509789464,0,1,1,0.8381469209486567,1.8381469209486567,1.1618530790513433,3.0,1,1.5881469209486567,0,4.0,3.0,1,2,3,0,3,0,0,2,2,7,,,,,,,285.28732420899905,285.28732420899905,286.3015771250066,286.8879831249942,287.10167795899906,287.10167795899906,287.10167795899906,288.2684308750031,288.2684308750031,288.2684308750031,288.2684308750031,289.2885011250037,200008,004,2023-04-14_11h10.19.403,DMS_et_12-36,2022.2.4,None,
31,UNPRED,12,0.8381469209486567,1,images/picture_2.png,images/picture_1.png,0,"[11.733433509789464, 11.733433509789462]",11.733433509789464,11.733433509789462,images/picture_2.png,1,"[11.733433509789462, -11.733433509789466]",11.733433509789462,-11.733433509789464,images/picture_3.png,2,"[-11.733433509789466, -11.733433509789462]",-11.733433509789464,-11.733433509789462,0,1,1,0.8381469209486567,1.8381469209486567,1.1618530790513433,3.0,1,1.5881469209486567,0,4.0,3.0,1,2,3,0,3,0,0,3,3,4,,,,,,,289.2885011250037,289.2885011250037,290.3018441250024,290.88798533400404,291.101724542008,291.101724542008,291.101724542008,292.26826679200167,292.26826679200167,292.26826679200167,292.26826679200167,293.26783287501894,200008,004,2023-04-14_11h10.19.403,DMS_et_12-36,2022.2.4,None,
29,UNPRED,12,0.8381469209486567,1,images/picture_2.png,images/picture_1.png,0,"[-11.733433509789466, -11.733433509789462]",-11.733433509789464,-11.733433509789462,images/picture_2.png,1,"[11.733433509789464, 11.733433509789462]",11.733433509789464,11.733433509789462,images/picture_3.png,2,"[11.733433509789462, -11.733433509789466]",11.733433509789462,-11.733433509789464,0,1,1,0.8381469209486567,1.8381469209486567,1.1618530790513433,3.0,1,1.5881469209486567,0,4.0,3.0,1,2,3,0,3,0,0,4,4,2,,,,,,,293.26783287501894,293.26783287501894,294.268222542014,294.8682615419966,295.10146441700635,295.10146441700635,295.10146441700635,296.26843045899295,296.26843045899295,296.26843045899295,296.26843045899295,297.2873745000106,200008,004,2023-04-14_11h10.19.403,DMS_et_12-36,2022.2.4,None,
27,UNPRED,12,0.8381469209486567,2,images/picture_3.png,images/picture_1.png,0,"[-11.733433509789462, 11.733433509789464]",-11.733433509789462,11.733433509789464,images/picture_2.png,1,"[11.733433509789462, -11.733433509789466]",11.733433509789462,-11.733433509789464,images/picture_3.png,2,"[-11.733433509789466, -11.733433509789462]",-11.733433509789464,-11.733433509789462,0,1,1,0.8381469209486567,1.8381469209486567,1.1618530790513433,3.0,1,1.5881469209486567,0,4.0,3.0,1,2,3,0,3,0,0,5,5,0,,,,,,,297.2873745000106,297.2873745000106,298.3016992500052,298.8876952500141,299.1017184590164,299.1017184590164,299.1017184590164,300.268234749994,300.268234749994,300.268234749994,300.268234749994,301.26728800000274,200008,004,2023-04-14_11h10.19.403,DMS_et_12-36,2022.2.4,None,
35,UNPRED,12,0.8381469209486567,0,images/picture_1.png,images/picture_1.png,0,"[-11.733433509789462, 11.733433509789464]",-11.733433509789462,11.733433509789464,images/picture_2.png,1,"[11.733433509789462, -11.733433509789466]",11.733433509789462,-11.733433509789464,images/picture_3.png,2,"[11.733433509789464, 11.733433509789462]",11.733433509789464,11.733433509789462,0,1,1,0.8381469209486567,1.8381469209486567,1.1618530790513433,3.0,1,1.5881469209486567,0,4.0,3.0,1,2,3,0,3,0,0,6,6,8,,,,,,,301.26728800000274,301.26728800000274,302.2684015420091,302.8684415839962,303.10168575000716,303.10168575000716,303.10168575000716,304.2684942499909,304.2684942499909,304.2684942499909,304.2684942499909,305.2681359589915,200008,004,2023-04-14_11h10.19.403,DMS_et_12-36,2022.2.4,None,
33,UNPRED,12,0.8381469209486567,0,images/picture_1.png,images/picture_1.png,0,"[-11.733433509789462, 11.733433509789464]",-11.733433509789462,11.733433509789464,images/picture_2.png,1,"[11.733433509789462, -11.733433509789466]",11.733433509789462,-11.733433509789464,images/picture_3.png,2,"[-11.733433509789466, -11.733433509789462]",-11.733433509789464,-11.733433509789462,0,1,1,0.8381469209486567,1.8381469209486567,1.1618530790513433,3.0,1,1.5881469209486567,0,4.0,3.0,1,2,3,0,3,0,0,7,7,6,,,,,,,305.2681359589915,305.2681359589915,306.2683038749965,306.8682508339989,307.1017014590034,307.1017014590034,307.1017014590034,308.268436000013,308.268436000013,308.268436000013,308.268436000013,309.2678034589917,200008,004,2023-04-14_11h10.19.403,DMS_et_12-36,2022.2.4,None,
30,UNPRED,12,0.8381469209486567,0,images/picture_1.png,images/picture_1.png,0,"[-11.733433509789466, -11.733433509789462]",-11.733433509789464,-11.733433509789462,images/picture_2.png,1,"[11.733433509789464, 11.733433509789462]",11.733433509789464,11.733433509789462,images/picture_3.png,2,"[11.733433509789462, -11.733433509789466]",11.733433509789462,-11.733433509789464,0,1,1,0.8381469209486567,1.8381469209486567,1.1618530790513433,3.0,1,1.5881469209486567,0,4.0,3.0,1,2,3,0,3,0,0,8,8,3,,,,,,,309.2678034589917,309.2678034589917,310.26846570899943,310.8684933340119,311.1017489590158,311.1017489590158,311.1017489590158,312.26827883400256,312.26827883400256,312.26827883400256,312.26827883400256,313.3175756249984,200008,004,2023-04-14_11h10.19.403,DMS_et_12-36,2022.2.4,None,
,,,,,,,,,,,,,,,,,,,,,,,,,,,,,,,,,,,3,0,3,0,,,,,,,,,313.3175756249984,325.32628179201856,,,,,,,,,,,,,200008,004,2023-04-14_11h10.19.403,DMS_et_12-36,2022.2.4,None,
41,PRED,12,0.8381469209486567,1,images/picture_2.png,images/picture_1.png,0,"[11.733433509789464, 11.733433509789462]",11.733433509789464,11.733433509789462,images/picture_2.png,1,"[-11.733433509789462, 11.733433509789464]",-11.733433509789462,11.733433509789464,images/picture_3.png,2,"[-11.733433509789466, -11.733433509789462]",-11.733433509789464,-11.733433509789462,0,1,1,0.8381469209486567,1.8381469209486567,1.1618530790513433,3.0,1,1.5881469209486567,0,4.0,3.0,1,2,4,0,4,0,0,0,0,5,,,,,,,325.32628179201856,325.32628179201856,326.3349571250146,326.92105312499916,327.1684644590132,327.1684644590132,327.1684644590132,328.3350345840154,328.3350345840154,328.3350345840154,328.3213681250054,329.33456124999793,200008,004,2023-04-14_11h10.19.403,DMS_et_12-36,2022.2.4,None,
37,PRED,12,0.8381469209486567,1,images/picture_2.png,images/picture_1.png,0,"[11.733433509789462, -11.733433509789466]",11.733433509789462,-11.733433509789464,images/picture_2.png,1,"[-11.733433509789466, -11.733433509789462]",-11.733433509789464,-11.733433509789462,images/picture_3.png,2,"[-11.733433509789462, 11.733433509789464]",-11.733433509789462,11.733433509789464,0,1,1,0.8381469209486567,1.8381469209486567,1.1618530790513433,3.0,1,1.5881469209486567,0,4.0,3.0,1,2,4,0,4,0,0,1,1,1,,,,,,,329.33456124999793,329.33456124999793,330.33515258401167,330.93502066700603,331.16824408399407,331.16824408399407,331.16824408399407,332.33511725001154,332.33511725001154,332.33511725001154,332.33511725001154,333.33495479199337,200008,004,2023-04-14_11h10.19.403,DMS_et_12-36,2022.2.4,None,
36,PRED,12,0.8381469209486567,1,images/picture_2.png,images/picture_1.png,0,"[11.733433509789464, 11.733433509789462]",11.733433509789464,11.733433509789462,images/picture_2.png,1,"[-11.733433509789462, 11.733433509789464]",-11.733433509789462,11.733433509789464,images/picture_3.png,2,"[11.733433509789462, -11.733433509789466]",11.733433509789462,-11.733433509789464,0,1,1,0.8381469209486567,1.8381469209486567,1.1618530790513433,3.0,1,1.5881469209486567,0,4.0,3.0,1,2,4,0,4,0,0,2,2,0,,,,,,,333.33495479199337,333.33495479199337,334.3350200839923,334.93499362500734,335.16847383399727,335.16847383399727,335.16847383399727,336.3350283339969,336.3350283339969,336.3350283339969,336.3350283339969,337.334687124996,200008,004,2023-04-14_11h10.19.403,DMS_et_12-36,2022.2.4,None,
38,PRED,12,0.8381469209486567,1,images/picture_2.png,images/picture_1.png,0,"[-11.733433509789462, 11.733433509789464]",-11.733433509789462,11.733433509789464,images/picture_2.png,1,"[11.733433509789464, 11.733433509789462]",11.733433509789464,11.733433509789462,images/picture_3.png,2,"[-11.733433509789466, -11.733433509789462]",-11.733433509789464,-11.733433509789462,0,1,1,0.8381469209486567,1.8381469209486567,1.1618530790513433,3.0,1,1.5881469209486567,0,4.0,3.0,1,2,4,0,4,0,0,3,3,2,,,,,,,337.334687124996,337.334687124996,338.3351679999905,338.9352830419957,339.1684507089958,339.1684507089958,339.1684507089958,340.3350339590106,340.3350339590106,340.3350339590106,340.3350339590106,341.3345833340136,200008,004,2023-04-14_11h10.19.403,DMS_et_12-36,2022.2.4,None,
39,PRED,12,0.8381469209486567,1,images/picture_2.png,images/picture_1.png,0,"[-11.733433509789462, 11.733433509789464]",-11.733433509789462,11.733433509789464,images/picture_2.png,1,"[11.733433509789462, -11.733433509789466]",11.733433509789462,-11.733433509789464,images/picture_3.png,2,"[11.733433509789464, 11.733433509789462]",11.733433509789464,11.733433509789462,0,1,1,0.8381469209486567,1.8381469209486567,1.1618530790513433,3.0,1,1.5881469209486567,0,4.0,3.0,1,2,4,0,4,0,0,4,4,3,,,,,,,341.3345833340136,341.3345833340136,342.33509750000667,342.93525258399313,343.1684222090116,343.1684222090116,343.1684222090116,344.33525200001895,344.33525200001895,344.33525200001895,344.33525200001895,345.33460883400403,200008,004,2023-04-14_11h10.19.403,DMS_et_12-36,2022.2.4,None,
43,PRED,12,0.8381469209486567,1,images/picture_2.png,images/picture_1.png,0,"[-11.733433509789462, 11.733433509789464]",-11.733433509789462,11.733433509789464,images/picture_2.png,1,"[-11.733433509789466, -11.733433509789462]",-11.733433509789464,-11.733433509789462,images/picture_3.png,2,"[11.733433509789464, 11.733433509789462]",11.733433509789464,11.733433509789462,0,1,1,0.8381469209486567,1.8381469209486567,1.1618530790513433,3.0,1,1.5881469209486567,0,4.0,3.0,1,2,4,0,4,0,0,5,5,7,,,,,,,345.33460883400403,345.33460883400403,346.33504525001626,346.93503570900066,347.1684877090156,347.1684877090156,347.1684877090156,348.3350665839971,348.3350665839971,348.3350665839971,348.3350665839971,349.3345391670009,200008,004,2023-04-14_11h10.19.403,DMS_et_12-36,2022.2.4,None,
42,PRED,12,0.8381469209486567,1,images/picture_2.png,images/picture_1.png,0,"[11.733433509789464, 11.733433509789462]",11.733433509789464,11.733433509789462,images/picture_2.png,1,"[-11.733433509789462, 11.733433509789464]",-11.733433509789462,11.733433509789464,images/picture_3.png,2,"[-11.733433509789466, -11.733433509789462]",-11.733433509789464,-11.733433509789462,0,1,1,0.8381469209486567,1.8381469209486567,1.1618530790513433,3.0,1,1.5881469209486567,0,4.0,3.0,1,2,4,0,4,0,0,6,6,6,,,,,,,349.3345391670009,349.3345391670009,350.33519558401895,350.9352114170033,351.1683962090174,351.1683962090174,351.1683962090174,352.33521712501533,352.33521712501533,352.33521712501533,352.33521712501533,353.33452699999907,200008,004,2023-04-14_11h10.19.403,DMS_et_12-36,2022.2.4,None,
44,PRED,12,0.8381469209486567,1,images/picture_2.png,images/picture_1.png,0,"[-11.733433509789462, 11.733433509789464]",-11.733433509789462,11.733433509789464,images/picture_2.png,1,"[11.733433509789462, -11.733433509789466]",11.733433509789462,-11.733433509789464,images/picture_3.png,2,"[-11.733433509789466, -11.733433509789462]",-11.733433509789464,-11.733433509789462,0,1,1,0.8381469209486567,1.8381469209486567,1.1618530790513433,3.0,1,1.5881469209486567,0,4.0,3.0,1,2,4,0,4,0,0,7,7,8,,,,,,,353.33452699999907,353.33452699999907,354.3350138340029,354.93505916700815,355.16846587500186,355.16846587500186,355.16846587500186,356.33485750001273,356.33485750001273,356.33485750001273,356.33485750001273,357.3348477090185,200008,004,2023-04-14_11h10.19.403,DMS_et_12-36,2022.2.4,None,
40,PRED,12,0.8381469209486567,1,images/picture_2.png,images/picture_1.png,0,"[11.733433509789462, -11.733433509789466]",11.733433509789462,-11.733433509789464,images/picture_2.png,1,"[11.733433509789464, 11.733433509789462]",11.733433509789464,11.733433509789462,images/picture_3.png,2,"[-11.733433509789462, 11.733433509789464]",-11.733433509789462,11.733433509789464,0,1,1,0.8381469209486567,1.8381469209486567,1.1618530790513433,3.0,1,1.5881469209486567,0,4.0,3.0,1,2,4,0,4,0,0,8,8,4,,,,,,,357.3348477090185,357.3348477090185,358.33512699999847,358.93519049999304,359.1684715420124,359.1684715420124,359.1684715420124,360.33501574999536,360.33501574999536,360.33501574999536,360.33501574999536,361.39438545901794,200008,004,2023-04-14_11h10.19.403,DMS_et_12-36,2022.2.4,None,
,,,,,,,,,,,,,,,,,,,,,,,,,,,,,,,,,,,4,0,4,0,,,,,,,,,361.39438545901794,373.43159695900977,,,,,,,,,,,,,200008,004,2023-04-14_11h10.19.403,DMS_et_12-36,2022.2.4,None,
50,UNPRED,12,0.8381469209486567,2,images/picture_3.png,images/picture_1.png,0,"[11.733433509789462, -11.733433509789466]",11.733433509789462,-11.733433509789464,images/picture_2.png,1,"[-11.733433509789462, 11.733433509789464]",-11.733433509789462,11.733433509789464,images/picture_3.png,2,"[11.733433509789464, 11.733433509789462]",11.733433509789464,11.733433509789462,0,1,1,0.8381469209486567,1.8381469209486567,1.1618530790513433,3.0,1,1.5881469209486567,0,4.0,3.0,1,2,5,0,5,0,0,0,0,5,,,,,,,373.43159695900977,373.43159695900977,374.4352215419931,375.03523549999227,375.2545867089939,375.2545867089939,375.2545867089939,376.42103466700064,376.42103466700064,376.42103466700064,376.42103466700064,377.4349373340083,200008,004,2023-04-14_11h10.19.403,DMS_et_12-36,2022.2.4,None,
45,UNPRED,12,0.8381469209486567,0,images/picture_1.png,images/picture_1.png,0,"[11.733433509789462, -11.733433509789466]",11.733433509789462,-11.733433509789464,images/picture_2.png,1,"[-11.733433509789466, -11.733433509789462]",-11.733433509789464,-11.733433509789462,images/picture_3.png,2,"[11.733433509789464, 11.733433509789462]",11.733433509789464,11.733433509789462,0,1,1,0.8381469209486567,1.8381469209486567,1.1618530790513433,3.0,1,1.5881469209486567,0,4.0,3.0,1,2,5,0,5,0,0,1,1,0,,,,,,,377.4349373340083,377.4349373340083,378.4351736670069,379.03523179201875,379.26845541701186,379.26845541701186,379.26845541701186,380.43529329201556,380.43529329201556,380.43529329201556,380.43529329201556,381.43508337499225,200008,004,2023-04-14_11h10.19.403,DMS_et_12-36,2022.2.4,None,
47,UNPRED,12,0.8381469209486567,1,images/picture_2.png,images/picture_1.png,0,"[-11.733433509789466, -11.733433509789462]",-11.733433509789464,-11.733433509789462,images/picture_2.png,1,"[11.733433509789462, -11.733433509789466]",11.733433509789462,-11.733433509789464,images/picture_3.png,2,"[-11.733433509789462, 11.733433509789464]",-11.733433509789462,11.733433509789464,0,1,1,0.8381469209486567,1.8381469209486567,1.1618530790513433,3.0,1,1.5881469209486567,0,4.0,3.0,1,2,5,0,5,0,0,2,2,2,,,,,,,381.43508337499225,381.43508337499225,382.43523008399643,383.03497379200417,383.2684642499953,383.2684642499953,383.2684642499953,384.4351771250076,384.4351771250076,384.4351771250076,384.4351771250076,385.434589084005,200008,004,2023-04-14_11h10.19.403,DMS_et_12-36,2022.2.4,None,
48,UNPRED,12,0.8381469209486567,0,images/picture_1.png,images/picture_1.png,0,"[-11.733433509789466, -11.733433509789462]",-11.733433509789464,-11.733433509789462,images/picture_2.png,1,"[11.733433509789462, -11.733433509789466]",11.733433509789462,-11.733433509789464,images/picture_3.png,2,"[-11.733433509789462, 11.733433509789464]",-11.733433509789462,11.733433509789464,0,1,1,0.8381469209486567,1.8381469209486567,1.1618530790513433,3.0,1,1.5881469209486567,0,4.0,3.0,1,2,5,0,5,0,0,3,3,3,,,,,,,385.434589084005,385.434589084005,386.43531749999966,387.0349567090161,387.2681145000097,387.2681145000097,387.2681145000097,388.4351916250016,388.4351916250016,388.4351916250016,388.4351916250016,389.4542442090169,200008,004,2023-04-14_11h10.19.403,DMS_et_12-36,2022.2.4,None,
52,UNPRED,12,0.8381469209486567,2,images/picture_3.png,images/picture_1.png,0,"[-11.733433509789466, -11.733433509789462]",-11.733433509789464,-11.733433509789462,images/picture_2.png,1,"[11.733433509789464, 11.733433509789462]",11.733433509789464,11.733433509789462,images/picture_3.png,2,"[11.733433509789462, -11.733433509789466]",11.733433509789462,-11.733433509789464,0,1,1,0.8381469209486567,1.8381469209486567,1.1618530790513433,3.0,1,1.5881469209486567,0,4.0,3.0,1,2,5,0,5,0,0,4,4,7,,,,,,,389.4542442090169,389.4542442090169,390.46844850000343,391.05525687499903,391.2685920840013,391.2685920840013,391.2685920840013,392.4352607089968,392.4352607089968,392.4352607089968,392.4352607089968,393.4341518750007,200008,004,2023-04-14_11h10.19.403,DMS_et_12-36,2022.2.4,None,
46,UNPRED,12,0.8381469209486567,0,images/picture_1.png,images/picture_1.png,0,"[-11.733433509789462, 11.733433509789464]",-11.733433509789462,11.733433509789464,images/picture_2.png,1,"[11.733433509789462, -11.733433509789466]",11.733433509789462,-11.733433509789464,images/picture_3.png,2,"[-11.733433509789466, -11.733433509789462]",-11.733433509789464,-11.733433509789462,0,1,1,0.8381469209486567,1.8381469209486567,1.1618530790513433,3.0,1,1.5881469209486567,0,4.0,3.0,1,2,5,0,5,0,0,5,5,1,,,,,,,393.4341518750007,393.4341518750007,394.43530829201336,395.03516575001413,395.2684524170181,395.2684524170181,395.2684524170181,396.43530924999504,396.43530924999504,396.43530924999504,396.43530924999504,397.4348909590044,200008,004,2023-04-14_11h10.19.403,DMS_et_12-36,2022.2.4,None,
49,UNPRED,12,0.8381469209486567,0,images/picture_1.png,images/picture_1.png,0,"[11.733433509789462, -11.733433509789466]",11.733433509789462,-11.733433509789464,images/picture_2.png,1,"[11.733433509789464, 11.733433509789462]",11.733433509789464,11.733433509789462,images/picture_3.png,2,"[-11.733433509789466, -11.733433509789462]",-11.733433509789464,-11.733433509789462,0,1,1,0.8381469209486567,1.8381469209486567,1.1618530790513433,3.0,1,1.5881469209486567,0,4.0,3.0,1,2,5,0,5,0,0,6,6,4,,,,,,,397.4348909590044,397.4348909590044,398.4583906250191,399.03520541699254,399.26848145900294,399.26848145900294,399.26848145900294,400.43527295900276,400.43527295900276,400.43527295900276,400.43527295900276,401.434671333991,200008,004,2023-04-14_11h10.19.403,DMS_et_12-36,2022.2.4,None,
51,UNPRED,12,0.8381469209486567,0,images/picture_1.png,images/picture_1.png,0,"[11.733433509789462, -11.733433509789466]",11.733433509789462,-11.733433509789464,images/picture_2.png,1,"[-11.733433509789462, 11.733433509789464]",-11.733433509789462,11.733433509789464,images/picture_3.png,2,"[-11.733433509789466, -11.733433509789462]",-11.733433509789464,-11.733433509789462,0,1,1,0.8381469209486567,1.8381469209486567,1.1618530790513433,3.0,1,1.5881469209486567,0,4.0,3.0,1,2,5,0,5,0,0,7,7,6,,,,,,,401.434671333991,401.434671333991,402.4351504170045,403.03517979200114,403.268491291994,403.268491291994,403.268491291994,404.43520599999465,404.43520599999465,404.43520599999465,404.43520599999465,405.4341729170119,200008,004,2023-04-14_11h10.19.403,DMS_et_12-36,2022.2.4,None,
53,UNPRED,12,0.8381469209486567,1,images/picture_2.png,images/picture_1.png,0,"[11.733433509789462, -11.733433509789466]",11.733433509789462,-11.733433509789464,images/picture_2.png,1,"[11.733433509789464, 11.733433509789462]",11.733433509789464,11.733433509789462,images/picture_3.png,2,"[-11.733433509789462, 11.733433509789464]",-11.733433509789462,11.733433509789464,0,1,1,0.8381469209486567,1.8381469209486567,1.1618530790513433,3.0,1,1.5881469209486567,0,4.0,3.0,1,2,5,0,5,0,0,8,8,8,,,,,,,405.4341729170119,405.4341729170119,406.43517545901705,407.0349888750061,407.2682078749931,407.2682078749931,407.2682078749931,408.43520545901265,408.43520545901265,408.43520545901265,408.43520545901265,409.50508670901763,200008,004,2023-04-14_11h10.19.403,DMS_et_12-36,2022.2.4,None,
,,,,,,,,,,,,,,,,,,,,,,,,,,,,,,,,,,,5,0,5,0,,,,,,,,,409.50508670901763,421.5311703750049,,,,,,,,,,,,,200008,004,2023-04-14_11h10.19.403,DMS_et_12-36,2022.2.4,None,
55,PRED,12,0.8381469209486567,2,images/picture_3.png,images/picture_1.png,0,"[-11.733433509789462, 11.733433509789464]",-11.733433509789462,11.733433509789464,images/picture_2.png,1,"[-11.733433509789466, -11.733433509789462]",-11.733433509789464,-11.733433509789462,images/picture_3.png,2,"[11.733433509789462, -11.733433509789466]",11.733433509789462,-11.733433509789464,0,1,1,0.8381469209486567,1.8381469209486567,1.1618530790513433,3.0,1,1.5881469209486567,0,4.0,3.0,1,2,6,0,6,0,0,0,0,1,,,,,,,421.5311703750049,421.5311703750049,422.5352242499939,423.12202187499497,423.3585305000015,423.3585305000015,423.3585305000015,424.5352452500083,424.5352452500083,424.5352452500083,424.5213565000158,425.5538390839938,200008,004,2023-04-14_11h10.19.403,DMS_et_12-36,2022.2.4,None,
58,PRED,12,0.8381469209486567,2,images/picture_3.png,images/picture_1.png,0,"[11.733433509789462, -11.733433509789466]",11.733433509789462,-11.733433509789464,images/picture_2.png,1,"[-11.733433509789466, -11.733433509789462]",-11.733433509789464,-11.733433509789462,images/picture_3.png,2,"[-11.733433509789462, 11.733433509789464]",-11.733433509789462,11.733433509789464,0,1,1,0.8381469209486567,1.8381469209486567,1.1618530790513433,3.0,1,1.5881469209486567,0,4.0,3.0,1,2,6,0,6,0,0,1,1,4,,,,,,,425.5538390839938,425.5538390839938,426.56827458401676,427.15460149999126,427.36842387501383,427.36842387501383,427.36842387501383,428.5351300839975,428.5351300839975,428.5351300839975,428.5351300839975,429.5540205000143,200008,004,2023-04-14_11h10.19.403,DMS_et_12-36,2022.2.4,None,
57,PRED,12,0.8381469209486567,2,images/picture_3.png,images/picture_1.png,0,"[-11.733433509789466, -11.733433509789462]",-11.733433509789464,-11.733433509789462,images/picture_2.png,1,"[11.733433509789464, 11.733433509789462]",11.733433509789464,11.733433509789462,images/picture_3.png,2,"[11.733433509789462, -11.733433509789466]",11.733433509789462,-11.733433509789464,0,1,1,0.8381469209486567,1.8381469209486567,1.1618530790513433,3.0,1,1.5881469209486567,0,4.0,3.0,1,2,6,0,6,0,0,2,2,3,,,,,,,429.5540205000143,429.5540205000143,430.56846924999263,431.1545055420138,431.3684571250051,431.3684571250051,431.3684571250051,432.53530775001855,432.53530775001855,432.53530775001855,432.53530775001855,433.55415933401673,200008,004,2023-04-14_11h10.19.403,DMS_et_12-36,2022.2.4,None,
59,PRED,12,0.8381469209486567,2,images/picture_3.png,images/picture_1.png,0,"[11.733433509789464, 11.733433509789462]",11.733433509789464,11.733433509789462,images/picture_2.png,1,"[-11.733433509789466, -11.733433509789462]",-11.733433509789464,-11.733433509789462,images/picture_3.png,2,"[11.733433509789462, -11.733433509789466]",11.733433509789462,-11.733433509789464,0,1,1,0.8381469209486567,1.8381469209486567,1.1618530790513433,3.0,1,1.5881469209486567,0,4.0,3.0,1,2,6,0,6,0,0,3,3,5,,,,,,,433.55415933401673,433.55415933401673,434.5684328339994,435.1547804590082,435.3683792499942,435.3683792499942,435.3683792499942,436.5352048340137,436.5352048340137,436.5352048340137,436.5352048340137,437.5537882090139,200008,004,2023-04-14_11h10.19.403,DMS_et_12-36,2022.2.4,None,
56,PRED,12,0.8381469209486567,2,images/picture_3.png,images/picture_1.png,0,"[-11.733433509789466, -11.733433509789462]",-11.733433509789464,-11.733433509789462,images/picture_2.png,1,"[11.733433509789462, -11.733433509789466]",11.733433509789462,-11.733433509789464,images/picture_3.png,2,"[11.733433509789464, 11.733433509789462]",11.733433509789464,11.733433509789462,0,1,1,0.8381469209486567,1.8381469209486567,1.1618530790513433,3.0,1,1.5881469209486567,0,4.0,3.0,1,2,6,0,6,0,0,4,4,2,,,,,,,437.5537882090139,437.5537882090139,438.5682294169965,439.15428170899395,439.36849570900085,439.36849570900085,439.36849570900085,440.5351772090071,440.5351772090071,440.5351772090071,440.5351772090071,441.55418233401724,200008,004,2023-04-14_11h10.19.403,DMS_et_12-36,2022.2.4,None,
60,PRED,12,0.8381469209486567,2,images/picture_3.png,images/picture_1.png,0,"[11.733433509789464, 11.733433509789462]",11.733433509789464,11.733433509789462,images/picture_2.png,1,"[11.733433509789462, -11.733433509789466]",11.733433509789462,-11.733433509789464,images/picture_3.png,2,"[-11.733433509789466, -11.733433509789462]",-11.733433509789464,-11.733433509789462,0,1,1,0.8381469209486567,1.8381469209486567,1.1618530790513433,3.0,1,1.5881469209486567,0,4.0,3.0,1,2,6,0,6,0,0,5,5,6,,,,,,,441.55418233401724,441.55418233401724,442.56861849999405,443.1552700000175,443.3685233750148,443.3685233750148,443.3685233750148,444.53545429199585,444.53545429199585,444.53545429199585,444.53545429199585,445.5546468750108,200008,004,2023-04-14_11h10.19.403,DMS_et_12-36,2022.2.4,None,
61,PRED,12,0.8381469209486567,2,images/picture_3.png,images/picture_1.png,0,"[-11.733433509789466, -11.733433509789462]",-11.733433509789464,-11.733433509789462,images/picture_2.png,1,"[11.733433509789464, 11.733433509789462]",11.733433509789464,11.733433509789462,images/picture_3.png,2,"[-11.733433509789462, 11.733433509789464]",-11.733433509789462,11.733433509789464,0,1,1,0.8381469209486567,1.8381469209486567,1.1618530790513433,3.0,1,1.5881469209486567,0,4.0,3.0,1,2,6,0,6,0,0,6,6,7,,,,,,,445.5546468750108,445.5546468750108,446.56843854201725,447.15468537501874,447.3685190420074,447.3685190420074,447.3685190420074,448.53489537499263,448.53489537499263,448.53489537499263,448.53489537499263,449.55498670900124,200008,004,2023-04-14_11h10.19.403,DMS_et_12-36,2022.2.4,None,
62,PRED,12,0.8381469209486567,2,images/picture_3.png,images/picture_1.png,0,"[11.733433509789462, -11.733433509789466]",11.733433509789462,-11.733433509789464,images/picture_2.png,1,"[11.733433509789464, 11.733433509789462]",11.733433509789464,11.733433509789462,images/picture_3.png,2,"[-11.733433509789466, -11.733433509789462]",-11.733433509789464,-11.733433509789462,0,1,1,0.8381469209486567,1.8381469209486567,1.1618530790513433,3.0,1,1.5881469209486567,0,4.0,3.0,1,2,6,0,6,0,0,7,7,8,,,,,,,449.55498670900124,449.55498670900124,450.56813699999475,451.154698458995,451.3686837500136,451.3686837500136,451.3686837500136,452.5352500420122,452.5352500420122,452.5352500420122,452.5352500420122,453.5539867920161,200008,004,2023-04-14_11h10.19.403,DMS_et_12-36,2022.2.4,None,
54,PRED,12,0.8381469209486567,2,images/picture_3.png,images/picture_1.png,0,"[-11.733433509789462, 11.733433509789464]",-11.733433509789462,11.733433509789464,images/picture_2.png,1,"[11.733433509789464, 11.733433509789462]",11.733433509789464,11.733433509789462,images/picture_3.png,2,"[-11.733433509789466, -11.733433509789462]",-11.733433509789464,-11.733433509789462,0,1,1,0.8381469209486567,1.8381469209486567,1.1618530790513433,3.0,1,1.5881469209486567,0,4.0,3.0,1,2,6,0,6,0,0,8,8,0,,,,,,,453.5539867920161,453.5539867920161,454.5685032090114,455.15465754200704,455.3685088340135,455.3685088340135,455.3685088340135,456.5354070420144,456.5354070420144,456.5354070420144,456.5354070420144,457.6134812500095,200008,004,2023-04-14_11h10.19.403,DMS_et_12-36,2022.2.4,None,
,,,,,,,,,,,,,,,,,,,,,,,,,,,,,,,,,,,6,0,6,0,,,,,,,,,457.6134812500095,469.6309548339923,,,,,,,,,,,,,200008,004,2023-04-14_11h10.19.403,DMS_et_12-36,2022.2.4,None,
71,UNPRED,12,0.8381469209486567,2,images/picture_3.png,images/picture_1.png,0,"[11.733433509789462, -11.733433509789466]",11.733433509789462,-11.733433509789464,images/picture_2.png,1,"[-11.733433509789462, 11.733433509789464]",-11.733433509789462,11.733433509789464,images/picture_3.png,2,"[-11.733433509789466, -11.733433509789462]",-11.733433509789464,-11.733433509789462,0,1,1,0.8381469209486567,1.8381469209486567,1.1618530790513433,3.0,1,1.5881469209486567,0,4.0,3.0,1,2,7,0,7,0,0,0,0,8,,,,,,,469.6309548339923,469.6309548339923,470.6352916670148,471.22119754200685,471.46855087499716,471.46855087499716,471.46855087499716,472.6352602090046,472.6352602090046,472.6352602090046,472.62105079201865,473.6545910839923,200008,004,2023-04-14_11h10.19.403,DMS_et_12-36,2022.2.4,None,
63,UNPRED,12,0.8381469209486567,2,images/picture_3.png,images/picture_1.png,0,"[11.733433509789464, 11.733433509789462]",11.733433509789464,11.733433509789462,images/picture_2.png,1,"[11.733433509789462, -11.733433509789466]",11.733433509789462,-11.733433509789464,images/picture_3.png,2,"[-11.733433509789462, 11.733433509789464]",-11.733433509789462,11.733433509789464,0,1,1,0.8381469209486567,1.8381469209486567,1.1618530790513433,3.0,1,1.5881469209486567,0,4.0,3.0,1,2,7,0,7,0,0,1,1,0,,,,,,,473.6545910839923,473.6545910839923,474.668535542005,475.25465587500366,475.4686581249989,475.4686581249989,475.4686581249989,476.63518050001585,476.63518050001585,476.63518050001585,476.63518050001585,477.6347037499945,200008,004,2023-04-14_11h10.19.403,DMS_et_12-36,2022.2.4,None,
64,UNPRED,12,0.8381469209486567,0,images/picture_1.png,images/picture_1.png,0,"[-11.733433509789462, 11.733433509789464]",-11.733433509789462,11.733433509789464,images/picture_2.png,1,"[11.733433509789464, 11.733433509789462]",11.733433509789464,11.733433509789462,images/picture_3.png,2,"[-11.733433509789466, -11.733433509789462]",-11.733433509789464,-11.733433509789462,0,1,1,0.8381469209486567,1.8381469209486567,1.1618530790513433,3.0,1,1.5881469209486567,0,4.0,3.0,1,2,7,0,7,0,0,2,2,1,,,,,,,477.6347037499945,477.6347037499945,478.63522841699887,479.2350131669955,479.46830583401606,479.46830583401606,479.46830583401606,480.6353073749924,480.6353073749924,480.6353073749924,480.6353073749924,481.6355298339913,200008,004,2023-04-14_11h10.19.403,DMS_et_12-36,2022.2.4,None,
68,UNPRED,12,0.8381469209486567,1,images/picture_2.png,images/picture_1.png,0,"[-11.733433509789462, 11.733433509789464]",-11.733433509789462,11.733433509789464,images/picture_2.png,1,"[11.733433509789462, -11.733433509789466]",11.733433509789462,-11.733433509789464,images/picture_3.png,2,"[11.733433509789464, 11.733433509789462]",11.733433509789464,11.733433509789462,0,1,1,0.8381469209486567,1.8381469209486567,1.1618530790513433,3.0,1,1.5881469209486567,0,4.0,3.0,1,2,7,0,7,0,0,3,3,5,,,,,,,481.6355298339913,481.6355298339913,482.63524095900357,483.23541641701013,483.46859145900817,483.46859145900817,483.46859145900817,484.63521866701194,484.63521866701194,484.63521866701194,484.63521866701194,485.63492770900484,200008,004,2023-04-14_11h10.19.403,DMS_et_12-36,2022.2.4,None,
67,UNPRED,12,0.8381469209486567,1,images/picture_2.png,images/picture_1.png,0,"[-11.733433509789466, -11.733433509789462]",-11.733433509789464,-11.733433509789462,images/picture_2.png,1,"[-11.733433509789462, 11.733433509789464]",-11.733433509789462,11.733433509789464,images/picture_3.png,2,"[11.733433509789464, 11.733433509789462]",11.733433509789464,11.733433509789462,0,1,1,0.8381469209486567,1.8381469209486567,1.1618530790513433,3.0,1,1.5881469209486567,0,4.0,3.0,1,2,7,0,7,0,0,4,4,4,,,,,,,485.63492770900484,485.63492770900484,486.6351151250128,487.2354247920157,487.4685540420178,487.4685540420178,487.4685540420178,488.6352229170152,488.6352229170152,488.6352229170152,488.6352229170152,489.63486366701545,200008,004,2023-04-14_11h10.19.403,DMS_et_12-36,2022.2.4,None,
70,UNPRED,12,0.8381469209486567,0,images/picture_1.png,images/picture_1.png,0,"[11.733433509789464, 11.733433509789462]",11.733433509789464,11.733433509789462,images/picture_2.png,1,"[11.733433509789462, -11.733433509789466]",11.733433509789462,-11.733433509789464,images/picture_3.png,2,"[-11.733433509789466, -11.733433509789462]",-11.733433509789464,-11.733433509789462,0,1,1,0.8381469209486567,1.8381469209486567,1.1618530790513433,3.0,1,1.5881469209486567,0,4.0,3.0,1,2,7,0,7,0,0,5,5,7,,,,,,,489.63486366701545,489.63486366701545,490.63526437501423,491.2354398750176,491.468458584015,491.468458584015,491.468458584015,492.6352173339983,492.6352173339983,492.6352173339983,492.6352173339983,493.6539278750133,200008,004,2023-04-14_11h10.19.403,DMS_et_12-36,2022.2.4,None,
65,UNPRED,12,0.8381469209486567,2,images/picture_3.png,images/picture_1.png,0,"[11.733433509789464, 11.733433509789462]",11.733433509789464,11.733433509789462,images/picture_2.png,1,"[11.733433509789462, -11.733433509789466]",11.733433509789462,-11.733433509789464,images/picture_3.png,2,"[-11.733433509789462, 11.733433509789464]",-11.733433509789462,11.733433509789464,0,1,1,0.8381469209486567,1.8381469209486567,1.1618530790513433,3.0,1,1.5881469209486567,0,4.0,3.0,1,2,7,0,7,0,0,6,6,2,,,,,,,493.6539278750133,493.6539278750133,494.6686879589979,495.25515304200235,495.4687386669975,495.4687386669975,495.4687386669975,496.6352255420061,496.6352255420061,496.6352255420061,496.6352255420061,497.63564983400283,200008,004,2023-04-14_11h10.19.403,DMS_et_12-36,2022.2.4,None,
69,UNPRED,12,0.8381469209486567,1,images/picture_2.png,images/picture_1.png,0,"[-11.733433509789466, -11.733433509789462]",-11.733433509789464,-11.733433509789462,images/picture_2.png,1,"[-11.733433509789462, 11.733433509789464]",-11.733433509789462,11.733433509789464,images/picture_3.png,2,"[11.733433509789462, -11.733433509789466]",11.733433509789462,-11.733433509789464,0,1,1,0.8381469209486567,1.8381469209486567,1.1618530790513433,3.0,1,1.5881469209486567,0,4.0,3.0,1,2,7,0,7,0,0,7,7,6,,,,,,,497.63564983400283,497.63564983400283,498.6352161669929,499.23542633399484,499.4683632090164,499.4683632090164,499.4683632090164,500.6353107500181,500.6353107500181,500.6353107500181,500.6353107500181,501.6347239589959,200008,004,2023-04-14_11h10.19.403,DMS_et_12-36,2022.2.4,None,
66,UNPRED,12,0.8381469209486567,1,images/picture_2.png,images/picture_1.png,0,"[11.733433509789462, -11.733433509789466]",11.733433509789462,-11.733433509789464,images/picture_2.png,1,"[-11.733433509789462, 11.733433509789464]",-11.733433509789462,11.733433509789464,images/picture_3.png,2,"[11.733433509789464, 11.733433509789462]",11.733433509789464,11.733433509789462,0,1,1,0.8381469209486567,1.8381469209486567,1.1618530790513433,3.0,1,1.5881469209486567,0,4.0,3.0,1,2,7,0,7,0,0,8,8,3,,,,,,,501.6347239589959,501.6347239589959,502.63544454201474,503.2352673750138,503.4687275420001,503.4687275420001,503.4687275420001,504.63522620900767,504.63522620900767,504.63522620900767,504.63522620900767,505.72320020900224,200008,004,2023-04-14_11h10.19.403,DMS_et_12-36,2022.2.4,None,
,,,,,,,,,,,,,,,,,,,,,,,,,,,,,,,,,,,7,0,7,0,,,,,,,,,505.72320020900224,517.7576305000111,,,,,,,,,,,,,200008,004,2023-04-14_11h10.19.403,DMS_et_12-36,2022.2.4,None,
72,PRED,12,0.8381469209486567,0,images/picture_1.png,images/picture_1.png,0,"[11.733433509789464, 11.733433509789462]",11.733433509789464,11.733433509789462,images/picture_2.png,1,"[11.733433509789462, -11.733433509789466]",11.733433509789462,-11.733433509789464,images/picture_3.png,2,"[-11.733433509789466, -11.733433509789462]",-11.733433509789464,-11.733433509789462,0,1,1,0.8381469209486567,1.8381469209486567,1.1618530790513433,3.0,1,1.5881469209486567,0,4.0,3.0,1,2,8,0,8,0,0,0,0,0,,,,,,,517.7576305000111,517.7576305000111,518.7687681670068,519.3552265420149,519.6020869589993,519.6020869589993,519.6020869589993,520.7685591670161,520.7685591670161,520.7685591670161,520.7540501250187,521.7680720000062,200008,004,2023-04-14_11h10.19.403,DMS_et_12-36,2022.2.4,None,
73,PRED,12,0.8381469209486567,0,images/picture_1.png,images/picture_1.png,0,"[11.733433509789464, 11.733433509789462]",11.733433509789464,11.733433509789462,images/picture_2.png,1,"[-11.733433509789466, -11.733433509789462]",-11.733433509789464,-11.733433509789462,images/picture_3.png,2,"[-11.733433509789462, 11.733433509789464]",-11.733433509789462,11.733433509789464,0,1,1,0.8381469209486567,1.8381469209486567,1.1618530790513433,3.0,1,1.5881469209486567,0,4.0,3.0,1,2,8,0,8,0,0,1,1,1,,,,,,,521.7680720000062,521.7680720000062,522.768724249996,523.3687461249938,523.601972125005,523.601972125005,523.601972125005,524.7687032090034,524.7687032090034,524.7687032090034,524.7687032090034,525.7683408750163,200008,004,2023-04-14_11h10.19.403,DMS_et_12-36,2022.2.4,None,
77,PRED,12,0.8381469209486567,0,images/picture_1.png,images/picture_1.png,0,"[11.733433509789462, -11.733433509789466]",11.733433509789462,-11.733433509789464,images/picture_2.png,1,"[-11.733433509789466, -11.733433509789462]",-11.733433509789464,-11.733433509789462,images/picture_3.png,2,"[-11.733433509789462, 11.733433509789464]",-11.733433509789462,11.733433509789464,0,1,1,0.8381469209486567,1.8381469209486567,1.1618530790513433,3.0,1,1.5881469209486567,0,4.0,3.0,1,2,8,0,8,0,0,2,2,5,,,,,,,525.7683408750163,525.7683408750163,526.7687280419923,527.368727958994,527.6019474999921,527.6019474999921,527.6019474999921,528.7688123339904,528.7688123339904,528.7688123339904,528.7688123339904,529.7681359999988,200008,004,2023-04-14_11h10.19.403,DMS_et_12-36,2022.2.4,None,
75,PRED,12,0.8381469209486567,0,images/picture_1.png,images/picture_1.png,0,"[11.733433509789464, 11.733433509789462]",11.733433509789464,11.733433509789462,images/picture_2.png,1,"[11.733433509789462, -11.733433509789466]",11.733433509789462,-11.733433509789464,images/picture_3.png,2,"[-11.733433509789466, -11.733433509789462]",-11.733433509789464,-11.733433509789462,0,1,1,0.8381469209486567,1.8381469209486567,1.1618530790513433,3.0,1,1.5881469209486567,0,4.0,3.0,1,2,8,0,8,0,0,3,3,3,,,,,,,529.7681359999988,529.7681359999988,530.7684225419944,531.3685372089967,531.6020314590132,531.6020314590132,531.6020314590132,532.7686764170066,532.7686764170066,532.7686764170066,532.7686764170066,533.7680905419984,200008,004,2023-04-14_11h10.19.403,DMS_et_12-36,2022.2.4,None,
80,PRED,12,0.8381469209486567,0,images/picture_1.png,images/picture_1.png,0,"[11.733433509789464, 11.733433509789462]",11.733433509789464,11.733433509789462,images/picture_2.png,1,"[11.733433509789462, -11.733433509789466]",11.733433509789462,-11.733433509789464,images/picture_3.png,2,"[-11.733433509789462, 11.733433509789464]",-11.733433509789462,11.733433509789464,0,1,1,0.8381469209486567,1.8381469209486567,1.1618530790513433,3.0,1,1.5881469209486567,0,4.0,3.0,1,2,8,0,8,0,0,4,4,8,,,,,,,533.7680905419984,533.7680905419984,534.7687063750054,535.3687567920133,535.601983792003,535.601983792003,535.601983792003,536.7687495840073,536.7687495840073,536.7687495840073,536.7687495840073,537.7682534170162,200008,004,2023-04-14_11h10.19.403,DMS_et_12-36,2022.2.4,None,
78,PRED,12,0.8381469209486567,0,images/picture_1.png,images/picture_1.png,0,"[11.733433509789462, -11.733433509789466]",11.733433509789462,-11.733433509789464,images/picture_2.png,1,"[-11.733433509789466, -11.733433509789462]",-11.733433509789464,-11.733433509789462,images/picture_3.png,2,"[-11.733433509789462, 11.733433509789464]",-11.733433509789462,11.733433509789464,0,1,1,0.8381469209486567,1.8381469209486567,1.1618530790513433,3.0,1,1.5881469209486567,0,4.0,3.0,1,2,8,0,8,0,0,5,5,6,,,,,,,537.7682534170162,537.7682534170162,538.7687052499969,539.3687097920047,539.6020153750142,539.6020153750142,539.6020153750142,540.7684455419949,540.7684455419949,540.7684455419949,540.7684455419949,541.7682737089926,200008,004,2023-04-14_11h10.19.403,DMS_et_12-36,2022.2.4,None,
74,PRED,12,0.8381469209486567,0,images/picture_1.png,images/picture_1.png,0,"[-11.733433509789466, -11.733433509789462]",-11.733433509789464,-11.733433509789462,images/picture_2.png,1,"[11.733433509789462, -11.733433509789466]",11.733433509789462,-11.733433509789464,images/picture_3.png,2,"[11.733433509789464, 11.733433509789462]",11.733433509789464,11.733433509789462,0,1,1,0.8381469209486567,1.8381469209486567,1.1618530790513433,3.0,1,1.5881469209486567,0,4.0,3.0,1,2,8,0,8,0,0,6,6,2,,,,,,,541.7682737089926,541.7682737089926,542.7686815420166,543.3687220000138,543.6017622090003,543.6017622090003,543.6017622090003,544.7687318749959,544.7687318749959,544.7687318749959,544.7687318749959,545.7683383749973,200008,004,2023-04-14_11h10.19.403,DMS_et_12-36,2022.2.4,None,
76,PRED,12,0.8381469209486567,0,images/picture_1.png,images/picture_1.png,0,"[-11.733433509789462, 11.733433509789464]",-11.733433509789462,11.733433509789464,images/picture_2.png,1,"[11.733433509789464, 11.733433509789462]",11.733433509789464,11.733433509789462,images/picture_3.png,2,"[-11.733433509789466, -11.733433509789462]",-11.733433509789464,-11.733433509789462,0,1,1,0.8381469209486567,1.8381469209486567,1.1618530790513433,3.0,1,1.5881469209486567,0,4.0,3.0,1,2,8,0,8,0,0,7,7,4,,,,,,,545.7683383749973,545.7683383749973,546.7686757920019,547.3687118749949,547.6019759170013,547.6019759170013,547.6019759170013,548.7687206249975,548.7687206249975,548.7687206249975,548.7687206249975,549.7681469999952,200008,004,2023-04-14_11h10.19.403,DMS_et_12-36,2022.2.4,None,
79,PRED,12,0.8381469209486567,0,images/picture_1.png,images/picture_1.png,0,"[11.733433509789464, 11.733433509789462]",11.733433509789464,11.733433509789462,images/picture_2.png,1,"[-11.733433509789462, 11.733433509789464]",-11.733433509789462,11.733433509789464,images/picture_3.png,2,"[-11.733433509789466, -11.733433509789462]",-11.733433509789464,-11.733433509789462,0,1,1,0.8381469209486567,1.8381469209486567,1.1618530790513433,3.0,1,1.5881469209486567,0,4.0,3.0,1,2,8,0,8,0,0,8,8,7,,,,,,,549.7681469999952,549.7681469999952,550.7684711670154,551.3683081250056,551.6017230839934,551.6017230839934,551.6017230839934,552.7686899999972,552.7686899999972,552.7686899999972,552.7686899999972,553.8633962919994,200008,004,2023-04-14_11h10.19.403,DMS_et_12-36,2022.2.4,None,
,,,,,,,,,,,,,,,,,,,,,,,,,,,,,,,,,,,8,0,8,0,,,,,,,,,553.8633962919994,565.8949156670133,,,,,,,,,,,,,200008,004,2023-04-14_11h10.19.403,DMS_et_12-36,2022.2.4,None,
85,UNPRED,12,0.8381469209486567,1,images/picture_2.png,images/picture_1.png,0,"[11.733433509789462, -11.733433509789466]",11.733433509789462,-11.733433509789464,images/picture_2.png,1,"[11.733433509789464, 11.733433509789462]",11.733433509789464,11.733433509789462,images/picture_3.png,2,"[-11.733433509789462, 11.733433509789464]",-11.733433509789462,11.733433509789464,0,1,1,0.8381469209486567,1.8381469209486567,1.1618530790513433,3.0,1,1.5881469209486567,0,4.0,3.0,1,2,9,0,9,0,0,0,0,4,,,,,,,565.8949156670133,565.8949156670133,566.902015959,567.4879868339922,567.735365917004,567.735365917004,567.735365917004,568.9020149589924,568.9020149589924,568.9020149589924,568.8883591670019,569.9014717919927,200008,004,2023-04-14_11h10.19.403,DMS_et_12-36,2022.2.4,None,
89,UNPRED,12,0.8381469209486567,1,images/picture_2.png,images/picture_1.png,0,"[-11.733433509789462, 11.733433509789464]",-11.733433509789462,11.733433509789464,images/picture_2.png,1,"[11.733433509789462, -11.733433509789466]",11.733433509789462,-11.733433509789464,images/picture_3.png,2,"[-11.733433509789466, -11.733433509789462]",-11.733433509789464,-11.733433509789462,0,1,1,0.8381469209486567,1.8381469209486567,1.1618530790513433,3.0,1,1.5881469209486567,0,4.0,3.0,1,2,9,0,9,0,0,1,1,8,,,,,,,569.9014717919927,569.9014717919927,570.9020792499941,571.5017731669941,571.7352884169959,571.7352884169959,571.7352884169959,572.9019932090014,572.9019932090014,572.9019932090014,572.9019932090014,573.9016968749929,200008,004,2023-04-14_11h10.19.403,DMS_et_12-36,2022.2.4,None,
81,UNPRED,12,0.8381469209486567,0,images/picture_1.png,images/picture_1.png,0,"[-11.733433509789462, 11.733433509789464]",-11.733433509789462,11.733433509789464,images/picture_2.png,1,"[11.733433509789464, 11.733433509789462]",11.733433509789464,11.733433509789462,images/picture_3.png,2,"[11.733433509789462, -11.733433509789466]",11.733433509789462,-11.733433509789464,0,1,1,0.8381469209486567,1.8381469209486567,1.1618530790513433,3.0,1,1.5881469209486567,0,4.0,3.0,1,2,9,0,9,0,0,2,2,0,,,,,,,573.9016968749929,573.9016968749929,574.9019770000014,575.5020405840187,575.7354751669918,575.7354751669918,575.7354751669918,576.9019728339917,576.9019728339917,576.9019728339917,576.9019728339917,577.9013598340098,200008,004,2023-04-14_11h10.19.403,DMS_et_12-36,2022.2.4,None,
84,UNPRED,12,0.8381469209486567,1,images/picture_2.png,images/picture_1.png,0,"[-11.733433509789466, -11.733433509789462]",-11.733433509789464,-11.733433509789462,images/picture_2.png,1,"[-11.733433509789462, 11.733433509789464]",-11.733433509789462,11.733433509789464,images/picture_3.png,2,"[11.733433509789464, 11.733433509789462]",11.733433509789464,11.733433509789462,0,1,1,0.8381469209486567,1.8381469209486567,1.1618530790513433,3.0,1,1.5881469209486567,0,4.0,3.0,1,2,9,0,9,0,0,3,3,3,,,,,,,577.9013598340098,577.9013598340098,578.902013709012,579.502052166994,579.7353109590185,579.7353109590185,579.7353109590185,580.9020172090095,580.9020172090095,580.9020172090095,580.9020172090095,581.9016875000088,200008,004,2023-04-14_11h10.19.403,DMS_et_12-36,2022.2.4,None,
82,UNPRED,12,0.8381469209486567,0,images/picture_1.png,images/picture_1.png,0,"[-11.733433509789462, 11.733433509789464]",-11.733433509789462,11.733433509789464,images/picture_2.png,1,"[11.733433509789464, 11.733433509789462]",11.733433509789464,11.733433509789462,images/picture_3.png,2,"[-11.733433509789466, -11.733433509789462]",-11.733433509789464,-11.733433509789462,0,1,1,0.8381469209486567,1.8381469209486567,1.1618530790513433,3.0,1,1.5881469209486567,0,4.0,3.0,1,2,9,0,9,0,0,4,4,1,,,,,,,581.9016875000088,581.9016875000088,582.9020162500092,583.5019726669998,583.735438083997,583.735438083997,583.735438083997,584.9020517090103,584.9020517090103,584.9020517090103,584.9020517090103,585.9015032500029,200008,004,2023-04-14_11h10.19.403,DMS_et_12-36,2022.2.4,None,
83,UNPRED,12,0.8381469209486567,0,images/picture_1.png,images/picture_1.png,0,"[-11.733433509789466, -11.733433509789462]",-11.733433509789464,-11.733433509789462,images/picture_2.png,1,"[11.733433509789464, 11.733433509789462]",11.733433509789464,11.733433509789462,images/picture_3.png,2,"[-11.733433509789462, 11.733433509789464]",-11.733433509789462,11.733433509789464,0,1,1,0.8381469209486567,1.8381469209486567,1.1618530790513433,3.0,1,1.5881469209486567,0,4.0,3.0,1,2,9,0,9,0,0,5,5,2,,,,,,,585.9015032500029,585.9015032500029,586.9018349169928,587.5022153340105,587.7357440839987,587.7357440839987,587.7357440839987,588.9021995000076,588.9021995000076,588.9021995000076,588.9021995000076,589.9015859590145,200008,004,2023-04-14_11h10.19.403,DMS_et_12-36,2022.2.4,None,
87,UNPRED,12,0.8381469209486567,0,images/picture_1.png,images/picture_1.png,0,"[11.733433509789462, -11.733433509789466]",11.733433509789462,-11.733433509789464,images/picture_2.png,1,"[11.733433509789464, 11.733433509789462]",11.733433509789464,11.733433509789462,images/picture_3.png,2,"[-11.733433509789462, 11.733433509789464]",-11.733433509789462,11.733433509789464,0,1,1,0.8381469209486567,1.8381469209486567,1.1618530790513433,3.0,1,1.5881469209486567,0,4.0,3.0,1,2,9,0,9,0,0,6,6,6,,,,,,,589.9015859590145,589.9015859590145,590.9023499170144,591.5021668339905,591.735249624995,591.735249624995,591.735249624995,592.9018242089951,592.9018242089951,592.9018242089951,592.9018242089951,593.9206996250141,200008,004,2023-04-14_11h10.19.403,DMS_et_12-36,2022.2.4,None,
86,UNPRED,12,0.8381469209486567,2,images/picture_3.png,images/picture_1.png,0,"[11.733433509789462, -11.733433509789466]",11.733433509789462,-11.733433509789464,images/picture_2.png,1,"[-11.733433509789466, -11.733433509789462]",-11.733433509789464,-11.733433509789462,images/picture_3.png,2,"[-11.733433509789462, 11.733433509789464]",-11.733433509789462,11.733433509789464,0,1,1,0.8381469209486567,1.8381469209486567,1.1618530790513433,3.0,1,1.5881469209486567,0,4.0,3.0,1,2,9,0,9,0,0,7,7,5,,,,,,,593.9206996250141,593.9206996250141,594.9354879590101,595.521643709013,595.7354432500142,595.7354432500142,595.7354432500142,596.9019669170084,596.9019669170084,596.9019669170084,596.9019669170084,597.9210715840163,200008,004,2023-04-14_11h10.19.403,DMS_et_12-36,2022.2.4,None,
88,UNPRED,12,0.8381469209486567,2,images/picture_3.png,images/picture_1.png,0,"[11.733433509789464, 11.733433509789462]",11.733433509789464,11.733433509789462,images/picture_2.png,1,"[11.733433509789462, -11.733433509789466]",11.733433509789462,-11.733433509789464,images/picture_3.png,2,"[-11.733433509789462, 11.733433509789464]",-11.733433509789462,11.733433509789464,0,1,1,0.8381469209486567,1.8381469209486567,1.1618530790513433,3.0,1,1.5881469209486567,0,4.0,3.0,1,2,9,0,9,0,0,8,8,7,,,,,,,597.9210715840163,597.9210715840163,598.9353101669985,599.5218922920176,599.7350231670134,599.7350231670134,599.7350231670134,600.9019521670125,600.9019521670125,600.9019521670125,600.9019521670125,602.0195583339955,200008,004,2023-04-14_11h10.19.403,DMS_et_12-36,2022.2.4,None,
,,,,,,,,,,,,,,,,,,,,,,,,,,,,,,,,,,,9,0,9,0,,,,,,,,,602.0195583339955,614.0674273750046,,,,,,,,,,,,,200008,004,2023-04-14_11h10.19.403,DMS_et_12-36,2022.2.4,None,
90,PRED,12,0.8381469209486567,2,images/picture_3.png,images/picture_1.png,0,"[11.733433509789462, -11.733433509789466]",11.733433509789462,-11.733433509789464,images/picture_2.png,1,"[-11.733433509789462, 11.733433509789464]",-11.733433509789462,11.733433509789464,images/picture_3.png,2,"[-11.733433509789466, -11.733433509789462]",-11.733433509789464,-11.733433509789462,0,1,1,0.8381469209486567,1.8381469209486567,1.1618530790513433,3.0,1,1.5881469209486567,0,4.0,3.0,1,2,10,0,10,0,0,0,0,0,,,,,,,614.0674273750046,614.0674273750046,615.0684512500011,615.6684702089988,615.9017279590189,615.9017279590189,615.9017279590189,617.0685153340164,617.0685153340164,617.0685153340164,617.0552130000142,618.0871614170028,200008,004,2023-04-14_11h10.19.403,DMS_et_12-36,2022.2.4,None,
94,PRED,12,0.8381469209486567,2,images/picture_3.png,images/picture_1.png,0,"[11.733433509789464, 11.733433509789462]",11.733433509789464,11.733433509789462,images/picture_2.png,1,"[11.733433509789462, -11.733433509789466]",11.733433509789462,-11.733433509789464,images/picture_3.png,2,"[-11.733433509789462, 11.733433509789464]",-11.733433509789462,11.733433509789464,0,1,1,0.8381469209486567,1.8381469209486567,1.1618530790513433,3.0,1,1.5881469209486567,0,4.0,3.0,1,2,10,0,10,0,0,1,1,4,,,,,,,618.0871614170028,618.0871614170028,619.1019270840043,619.6884752920014,619.9017820419976,619.9017820419976,619.9017820419976,621.068501917005,621.068501917005,621.068501917005,621.068501917005,622.086983834015,200008,004,2023-04-14_11h10.19.403,DMS_et_12-36,2022.2.4,None,
91,PRED,12,0.8381469209486567,2,images/picture_3.png,images/picture_1.png,0,"[-11.733433509789462, 11.733433509789464]",-11.733433509789462,11.733433509789464,images/picture_2.png,1,"[11.733433509789464, 11.733433509789462]",11.733433509789464,11.733433509789462,images/picture_3.png,2,"[-11.733433509789466, -11.733433509789462]",-11.733433509789464,-11.733433509789462,0,1,1,0.8381469209486567,1.8381469209486567,1.1618530790513433,3.0,1,1.5881469209486567,0,4.0,3.0,1,2,10,0,10,0,0,2,2,1,,,,,,,622.086983834015,622.086983834015,623.10171287501,623.6880362500087,623.9018184590095,623.9018184590095,623.9018184590095,625.0684891249985,625.0684891249985,625.0684891249985,625.0684891249985,626.0874096670013,200008,004,2023-04-14_11h10.19.403,DMS_et_12-36,2022.2.4,None,
96,PRED,12,0.8381469209486567,2,images/picture_3.png,images/picture_1.png,0,"[11.733433509789462, -11.733433509789466]",11.733433509789462,-11.733433509789464,images/picture_2.png,1,"[-11.733433509789466, -11.733433509789462]",-11.733433509789464,-11.733433509789462,images/picture_3.png,2,"[-11.733433509789462, 11.733433509789464]",-11.733433509789462,11.733433509789464,0,1,1,0.8381469209486567,1.8381469209486567,1.1618530790513433,3.0,1,1.5881469209486567,0,4.0,3.0,1,2,10,0,10,0,0,3,3,6,,,,,,,626.0874096670013,626.0874096670013,627.1019375420001,627.6881275839987,627.9015425840043,627.9015425840043,627.9015425840043,629.0685044999991,629.0685044999991,629.0685044999991,629.0685044999991,630.087160333991,200008,004,2023-04-14_11h10.19.403,DMS_et_12-36,2022.2.4,None,
98,PRED,12,0.8381469209486567,2,images/picture_3.png,images/picture_1.png,0,"[11.733433509789464, 11.733433509789462]",11.733433509789464,11.733433509789462,images/picture_2.png,1,"[-11.733433509789466, -11.733433509789462]",-11.733433509789464,-11.733433509789462,images/picture_3.png,2,"[11.733433509789462, -11.733433509789466]",11.733433509789462,-11.733433509789464,0,1,1,0.8381469209486567,1.8381469209486567,1.1618530790513433,3.0,1,1.5881469209486567,0,4.0,3.0,1,2,10,0,10,0,0,4,4,8,,,,,,,630.087160333991,630.087160333991,631.1019198340073,631.6881544170028,631.9018967919983,631.9018967919983,631.9018967919983,633.0682124170125,633.0682124170125,633.0682124170125,633.0682124170125,634.0881592500082,200008,004,2023-04-14_11h10.19.403,DMS_et_12-36,2022.2.4,None,
95,PRED,12,0.8381469209486567,2,images/picture_3.png,images/picture_1.png,0,"[11.733433509789464, 11.733433509789462]",11.733433509789464,11.733433509789462,images/picture_2.png,1,"[-11.733433509789466, -11.733433509789462]",-11.733433509789464,-11.733433509789462,images/picture_3.png,2,"[-11.733433509789462, 11.733433509789464]",-11.733433509789462,11.733433509789464,0,1,1,0.8381469209486567,1.8381469209486567,1.1618530790513433,3.0,1,1.5881469209486567,0,4.0,3.0,1,2,10,0,10,0,0,5,5,5,,,,,,,634.0881592500082,634.0881592500082,635.1017477090063,635.6879807919904,635.9017730840133,635.9017730840133,635.9017730840133,637.0685344590165,637.0685344590165,637.0685344590165,637.0685344590165,638.087132375018,200008,004,2023-04-14_11h10.19.403,DMS_et_12-36,2022.2.4,None,
97,PRED,12,0.8381469209486567,2,images/picture_3.png,images/picture_1.png,0,"[-11.733433509789466, -11.733433509789462]",-11.733433509789464,-11.733433509789462,images/picture_2.png,1,"[11.733433509789462, -11.733433509789466]",11.733433509789462,-11.733433509789464,images/picture_3.png,2,"[-11.733433509789462, 11.733433509789464]",-11.733433509789462,11.733433509789464,0,1,1,0.8381469209486567,1.8381469209486567,1.1618530790513433,3.0,1,1.5881469209486567,0,4.0,3.0,1,2,10,0,10,0,0,6,6,7,,,,,,,638.087132375018,638.087132375018,639.1018417500018,639.6876658340043,639.9019686249958,639.9019686249958,639.9019686249958,641.0685035840143,641.0685035840143,641.0685035840143,641.0685035840143,642.0871296669939,200008,004,2023-04-14_11h10.19.403,DMS_et_12-36,2022.2.4,None,
92,PRED,12,0.8381469209486567,2,images/picture_3.png,images/picture_1.png,0,"[11.733433509789462, -11.733433509789466]",11.733433509789462,-11.733433509789464,images/picture_2.png,1,"[11.733433509789464, 11.733433509789462]",11.733433509789464,11.733433509789462,images/picture_3.png,2,"[-11.733433509789466, -11.733433509789462]",-11.733433509789464,-11.733433509789462,0,1,1,0.8381469209486567,1.8381469209486567,1.1618530790513433,3.0,1,1.5881469209486567,0,4.0,3.0,1,2,10,0,10,0,0,7,7,2,,,,,,,642.0871296669939,642.0871296669939,643.1014580000192,643.6869985419908,643.9017485840013,643.9017485840013,643.9017485840013,645.0684875840088,645.0684875840088,645.0684875840088,645.0684875840088,646.0879343340057,200008,004,2023-04-14_11h10.19.403,DMS_et_12-36,2022.2.4,None,
93,PRED,12,0.8381469209486567,2,images/picture_3.png,images/picture_1.png,0,"[11.733433509789462, -11.733433509789466]",11.733433509789462,-11.733433509789464,images/picture_2.png,1,"[11.733433509789464, 11.733433509789462]",11.733433509789464,11.733433509789462,images/picture_3.png,2,"[-11.733433509789466, -11.733433509789462]",-11.733433509789464,-11.733433509789462,0,1,1,0.8381469209486567,1.8381469209486567,1.1618530790513433,3.0,1,1.5881469209486567,0,4.0,3.0,1,2,10,0,10,0,0,8,8,3,,,,,,,646.0879343340057,646.0879343340057,647.1019255839929,647.6878407089971,647.9017409170046,647.9017409170046,647.9017409170046,649.0684075840109,649.0684075840109,649.0684075840109,649.0684075840109,650.1796198340016,200008,004,2023-04-14_11h10.19.403,DMS_et_12-36,2022.2.4,None,
,,,,,,,,,,,,,,,,,,,,,,,,,,,,,,,,,,,10,0,10,0,,,,,,,,,650.1796198340016,662.209842250013,,,,,,,,,,,,,200008,004,2023-04-14_11h10.19.403,DMS_et_12-36,2022.2.4,None,
105,UNPRED,12,0.8381469209486567,0,images/picture_1.png,images/picture_1.png,0,"[-11.733433509789466, -11.733433509789462]",-11.733433509789464,-11.733433509789462,images/picture_2.png,1,"[11.733433509789464, 11.733433509789462]",11.733433509789464,11.733433509789462,images/picture_3.png,2,"[-11.733433509789462, 11.733433509789464]",-11.733433509789462,11.733433509789464,0,1,1,0.8381469209486567,1.8381469209486567,1.1618530790513433,3.0,1,1.5881469209486567,0,4.0,3.0,1,2,11,0,11,0,0,0,0,6,,,,,,,662.209842250013,662.209842250013,663.2212746250152,663.8015015420096,664.0536251669982,664.0536251669982,664.0536251669982,665.2214174169931,665.2214174169931,665.2214174169931,665.2017761669995,666.2012700840132,200008,004,2023-04-14_11h10.19.403,DMS_et_12-36,2022.2.4,None,
101,UNPRED,12,0.8381469209486567,0,images/picture_1.png,images/picture_1.png,0,"[11.733433509789462, -11.733433509789466]",11.733433509789462,-11.733433509789464,images/picture_2.png,1,"[11.733433509789464, 11.733433509789462]",11.733433509789464,11.733433509789462,images/picture_3.png,2,"[-11.733433509789462, 11.733433509789464]",-11.733433509789462,11.733433509789464,0,1,1,0.8381469209486567,1.8381469209486567,1.1618530790513433,3.0,1,1.5881469209486567,0,4.0,3.0,1,2,11,0,11,0,0,1,1,2,,,,,,,666.2012700840132,666.2012700840132,667.2017205840093,667.8017566250055,668.0352324589912,668.0352324589912,668.0352324589912,669.2020257090044,669.2020257090044,669.2020257090044,669.2020257090044,670.2013243749971,200008,004,2023-04-14_11h10.19.403,DMS_et_12-36,2022.2.4,None,
104,UNPRED,12,0.8381469209486567,0,images/picture_1.png,images/picture_1.png,0,"[-11.733433509789466, -11.733433509789462]",-11.733433509789464,-11.733433509789462,images/picture_2.png,1,"[11.733433509789462, -11.733433509789466]",11.733433509789462,-11.733433509789464,images/picture_3.png,2,"[11.733433509789464, 11.733433509789462]",11.733433509789464,11.733433509789462,0,1,1,0.8381469209486567,1.8381469209486567,1.1618530790513433,3.0,1,1.5881469209486567,0,4.0,3.0,1,2,11,0,11,0,0,2,2,5,,,,,,,670.2013243749971,670.2013243749971,671.201714291994,671.8018097919994,672.0352332089969,672.0352332089969,672.0352332089969,673.2017460420029,673.2017460420029,673.2017460420029,673.2017460420029,674.2012525419996,200008,004,2023-04-14_11h10.19.403,DMS_et_12-36,2022.2.4,None,
99,UNPRED,12,0.8381469209486567,1,images/picture_2.png,images/picture_1.png,0,"[-11.733433509789462, 11.733433509789464]",-11.733433509789462,11.733433509789464,images/picture_2.png,1,"[11.733433509789464, 11.733433509789462]",11.733433509789464,11.733433509789462,images/picture_3.png,2,"[11.733433509789462, -11.733433509789466]",11.733433509789462,-11.733433509789464,0,1,1,0.8381469209486567,1.8381469209486567,1.1618530790513433,3.0,1,1.5881469209486567,0,4.0,3.0,1,2,11,0,11,0,0,3,3,0,,,,,,,674.2012525419996,674.2012525419996,675.2017510000151,675.8018032500113,676.0350160840026,676.0350160840026,676.0350160840026,677.2019142089994,677.2019142089994,677.2019142089994,677.2019142089994,678.220772834,200008,004,2023-04-14_11h10.19.403,DMS_et_12-36,2022.2.4,None,
100,UNPRED,12,0.8381469209486567,2,images/picture_3.png,images/picture_1.png,0,"[11.733433509789464, 11.733433509789462]",11.733433509789464,11.733433509789462,images/picture_2.png,1,"[-11.733433509789466, -11.733433509789462]",-11.733433509789464,-11.733433509789462,images/picture_3.png,2,"[-11.733433509789462, 11.733433509789464]",-11.733433509789462,11.733433509789464,0,1,1,0.8381469209486567,1.8381469209486567,1.1618530790513433,3.0,1,1.5881469209486567,0,4.0,3.0,1,2,11,0,11,0,0,4,4,1,,,,,,,678.220772834,678.220772834,679.2350072090048,679.8211367090116,680.0350121250085,680.0350121250085,680.0350121250085,681.2017521249945,681.2017521249945,681.2017521249945,681.2017521249945,682.2204177090025,200008,004,2023-04-14_11h10.19.403,DMS_et_12-36,2022.2.4,None,
103,UNPRED,12,0.8381469209486567,2,images/picture_3.png,images/picture_1.png,0,"[11.733433509789462, -11.733433509789466]",11.733433509789462,-11.733433509789464,images/picture_2.png,1,"[-11.733433509789462, 11.733433509789464]",-11.733433509789462,11.733433509789464,images/picture_3.png,2,"[-11.733433509789466, -11.733433509789462]",-11.733433509789464,-11.733433509789462,0,1,1,0.8381469209486567,1.8381469209486567,1.1618530790513433,3.0,1,1.5881469209486567,0,4.0,3.0,1,2,11,0,11,0,0,5,5,4,,,,,,,682.2204177090025,682.2204177090025,683.2352106250182,683.8215170839976,684.0347720420104,684.0347720420104,684.0347720420104,685.2017143339908,685.2017143339908,685.2017143339908,685.2017143339908,686.2029537500057,200008,004,2023-04-14_11h10.19.403,DMS_et_12-36,2022.2.4,None,
106,UNPRED,12,0.8381469209486567,1,images/picture_2.png,images/picture_1.png,0,"[11.733433509789464, 11.733433509789462]",11.733433509789464,11.733433509789462,images/picture_2.png,1,"[11.733433509789462, -11.733433509789466]",11.733433509789462,-11.733433509789464,images/picture_3.png,2,"[-11.733433509789466, -11.733433509789462]",-11.733433509789464,-11.733433509789462,0,1,1,0.8381469209486567,1.8381469209486567,1.1618530790513433,3.0,1,1.5881469209486567,0,4.0,3.0,1,2,11,0,11,0,0,6,6,7,,,,,,,686.2029537500057,686.2029537500057,687.2017575420032,687.801895209006,688.0349655000027,688.0349655000027,688.0349655000027,689.2019200420182,689.2019200420182,689.2019200420182,689.2019200420182,690.2012471670168,200008,004,2023-04-14_11h10.19.403,DMS_et_12-36,2022.2.4,None,
102,UNPRED,12,0.8381469209486567,0,images/picture_1.png,images/picture_1.png,0,"[11.733433509789464, 11.733433509789462]",11.733433509789464,11.733433509789462,images/picture_2.png,1,"[-11.733433509789462, 11.733433509789464]",-11.733433509789462,11.733433509789464,images/picture_3.png,2,"[-11.733433509789466, -11.733433509789462]",-11.733433509789464,-11.733433509789462,0,1,1,0.8381469209486567,1.8381469209486567,1.1618530790513433,3.0,1,1.5881469209486567,0,4.0,3.0,1,2,11,0,11,0,0,7,7,3,,,,,,,690.2012471670168,690.2012471670168,691.2018352500163,691.8017391670146,692.0353369170043,692.0353369170043,692.0353369170043,693.201724167011,693.201724167011,693.201724167011,693.201724167011,694.2015569590149,200008,004,2023-04-14_11h10.19.403,DMS_et_12-36,2022.2.4,None,
107,UNPRED,12,0.8381469209486567,1,images/picture_2.png,images/picture_1.png,0,"[-11.733433509789466, -11.733433509789462]",-11.733433509789464,-11.733433509789462,images/picture_2.png,1,"[11.733433509789462, -11.733433509789466]",11.733433509789462,-11.733433509789464,images/picture_3.png,2,"[11.733433509789464, 11.733433509789462]",11.733433509789464,11.733433509789462,0,1,1,0.8381469209486567,1.8381469209486567,1.1618530790513433,3.0,1,1.5881469209486567,0,4.0,3.0,1,2,11,0,11,0,0,8,8,8,,,,,,,694.2015569590149,694.2015569590149,695.2016261249955,695.8019431249995,696.0350123340031,696.0350123340031,696.0350123340031,697.2019647500128,697.2019647500128,697.2019647500128,697.2019647500128,698.3684847500117,200008,004,2023-04-14_11h10.19.403,DMS_et_12-36,2022.2.4,None,
,,,,,,,,,,,,,,,,,,,,,,,,,,,,,,,,,,,11,0,11,0,,,,,,,,,698.3684847500117,710.4956430419988,,,,,,,,,,,,,200008,004,2023-04-14_11h10.19.403,DMS_et_12-36,2022.2.4,None,
,,,,,,,,,,,,,,,,,,,,,,,,,,,,,,,,,,,,,,,,,,,,,,,710.4956430419988,723.0331553340075,,,,,,,,,,,,,,,,,,,
