trial_count,blockType,blockNum,delay_time,stimImage_i,stimImage,responseImage1,responseImage1_i,responseImage1_pos,responseImage1_X,responseImage1_Y,responseImage2,responseImage2_i,responseImage2_pos,responseImage2_X,responseImage2_Y,responseImage3,responseImage3_i,responseImage3_pos,responseImage3_X,responseImage3_Y,cue_onset,cue_dur,delay_onset,delay_dur,resp_onset,resp_dur,rest_onset,rest_dur,circle_dur,circle_onset,total_dur,cross_onset,cross_dur,delay_resp_period,blocks.thisRepN,blocks.thisTrialN,blocks.thisN,blocks.thisIndex,trials.thisRepN,trials.thisTrialN,trials.thisN,trials.thisIndex,key_resp.started,text.started,key_resp.keys,key_resp.rt,text_2.started,text_2.stopped,sample.started,Delay.started,sample.stopped,Delay.stopped,Response_1.started,Response_2.started,Response_3.started,polygon.started,Response_1.stopped,Response_2.stopped,Response_3.stopped,polygon.stopped,participant,session,date,expName,psychopyVersion,frameRate,
,,,,,,,,,,,,,,,,,,,,,,,,,,,,,,,,,,,,,,,,,,,61.20897416700609,61.20897416700609,t,52.23878249991685,,,,,,,,,,,,,,,200004,005,2023-03-31_11h25.59.057,DMS_et_12-36,2022.2.4,None,
0,PRED,12,0.5818865272372324,1,images/picture_2.png,images/picture_1.png,0,"[11.733433509789464, 11.733433509789462]",11.733433509789464,11.733433509789462,images/picture_2.png,1,"[-11.733433509789466, -11.733433509789462]",-11.733433509789464,-11.733433509789462,images/picture_3.png,2,"[-11.733433509789462, 11.733433509789464]",-11.733433509789462,11.733433509789464,0,1,1,0.5818865272372324,1.5818865272372324,1.4181134727627676,3.0,1,1.3318865272372324,0,4.0,3.0,1,2,0,0,0,0,0,0,0,0,,,,,113.96600829204544,125.99712729197927,125.99712729197927,125.99712729197927,127.01053049997427,127.34374258387834,127.57704566698521,127.57704566698521,127.57704566698521,128.99567983392626,129.0100923338905,129.0100923338905,129.0100923338905,130.00983487488702,200004,005,2023-03-31_11h25.59.057,DMS_et_12-36,2022.2.4,None,
3,PRED,12,0.5818865272372324,1,images/picture_2.png,images/picture_1.png,0,"[11.733433509789462, -11.733433509789466]",11.733433509789462,-11.733433509789464,images/picture_2.png,1,"[-11.733433509789466, -11.733433509789462]",-11.733433509789464,-11.733433509789462,images/picture_3.png,2,"[11.733433509789464, 11.733433509789462]",11.733433509789464,11.733433509789462,0,1,1,0.5818865272372324,1.5818865272372324,1.4181134727627676,3.0,1,1.3318865272372324,0,4.0,3.0,1,2,0,0,0,0,0,1,1,3,,,,,,,130.00983487488702,130.00983487488702,131.0103259589523,131.34356241696514,131.57717812503688,131.57717812503688,131.57717812503688,133.01046279189177,133.01046279189177,133.01046279189177,133.01046279189177,134.00968733383343,200004,005,2023-03-31_11h25.59.057,DMS_et_12-36,2022.2.4,None,
8,PRED,12,0.5818865272372324,1,images/picture_2.png,images/picture_1.png,0,"[-11.733433509789466, -11.733433509789462]",-11.733433509789464,-11.733433509789462,images/picture_2.png,1,"[11.733433509789464, 11.733433509789462]",11.733433509789464,11.733433509789462,images/picture_3.png,2,"[-11.733433509789462, 11.733433509789464]",-11.733433509789462,11.733433509789464,0,1,1,0.5818865272372324,1.5818865272372324,1.4181134727627676,3.0,1,1.3318865272372324,0,4.0,3.0,1,2,0,0,0,0,0,2,2,8,,,,,,,134.00968733383343,134.00968733383343,135.0102667089086,135.3435901668854,135.57699254201725,135.57699254201725,135.57699254201725,137.0103306248784,137.0103306248784,137.0103306248784,137.0103306248784,138.00990462489426,200004,005,2023-03-31_11h25.59.057,DMS_et_12-36,2022.2.4,None,
1,PRED,12,0.5818865272372324,1,images/picture_2.png,images/picture_1.png,0,"[11.733433509789462, -11.733433509789466]",11.733433509789462,-11.733433509789464,images/picture_2.png,1,"[-11.733433509789466, -11.733433509789462]",-11.733433509789464,-11.733433509789462,images/picture_3.png,2,"[-11.733433509789462, 11.733433509789464]",-11.733433509789462,11.733433509789464,0,1,1,0.5818865272372324,1.5818865272372324,1.4181134727627676,3.0,1,1.3318865272372324,0,4.0,3.0,1,2,0,0,0,0,0,3,3,1,,,,,,,138.00990462489426,138.00990462489426,139.0104178749025,139.34374416689388,139.57702137483284,139.57702137483284,139.57702137483284,141.01033479184844,141.01033479184844,141.01033479184844,141.01033479184844,142.00991937494837,200004,005,2023-03-31_11h25.59.057,DMS_et_12-36,2022.2.4,None,
5,PRED,12,0.5818865272372324,1,images/picture_2.png,images/picture_1.png,0,"[-11.733433509789462, 11.733433509789464]",-11.733433509789462,11.733433509789464,images/picture_2.png,1,"[11.733433509789462, -11.733433509789466]",11.733433509789462,-11.733433509789464,images/picture_3.png,2,"[11.733433509789464, 11.733433509789462]",11.733433509789464,11.733433509789462,0,1,1,0.5818865272372324,1.5818865272372324,1.4181134727627676,3.0,1,1.3318865272372324,0,4.0,3.0,1,2,0,0,0,0,0,4,4,5,,,,,,,142.00991937494837,142.00991937494837,143.01030779187568,143.34385479195043,143.57721458398737,143.57721458398737,143.57721458398737,145.01041229185648,145.01041229185648,145.01041229185648,145.01041229185648,146.00978333386593,200004,005,2023-03-31_11h25.59.057,DMS_et_12-36,2022.2.4,None,
4,PRED,12,0.5818865272372324,1,images/picture_2.png,images/picture_1.png,0,"[-11.733433509789466, -11.733433509789462]",-11.733433509789464,-11.733433509789462,images/picture_2.png,1,"[-11.733433509789462, 11.733433509789464]",-11.733433509789462,11.733433509789464,images/picture_3.png,2,"[11.733433509789462, -11.733433509789466]",11.733433509789462,-11.733433509789464,0,1,1,0.5818865272372324,1.5818865272372324,1.4181134727627676,3.0,1,1.3318865272372324,0,4.0,3.0,1,2,0,0,0,0,0,5,5,4,,,,,,,146.00978333386593,146.00978333386593,147.0105010420084,147.34378391690552,147.57699129194953,147.57699129194953,147.57699129194953,149.0100957499817,149.0100957499817,149.0100957499817,149.0100957499817,150.0098824170418,200004,005,2023-03-31_11h25.59.057,DMS_et_12-36,2022.2.4,None,
2,PRED,12,0.5818865272372324,1,images/picture_2.png,images/picture_1.png,0,"[11.733433509789464, 11.733433509789462]",11.733433509789464,11.733433509789462,images/picture_2.png,1,"[11.733433509789462, -11.733433509789466]",11.733433509789462,-11.733433509789464,images/picture_3.png,2,"[-11.733433509789466, -11.733433509789462]",-11.733433509789464,-11.733433509789462,0,1,1,0.5818865272372324,1.5818865272372324,1.4181134727627676,3.0,1,1.3318865272372324,0,4.0,3.0,1,2,0,0,0,0,0,6,6,2,,,,,,,150.0098824170418,150.0098824170418,151.0104312498588,151.34371245885268,151.5772502499167,151.5772502499167,151.5772502499167,153.01050183386542,153.01050183386542,153.01050183386542,153.01050183386542,154.00997558399104,200004,005,2023-03-31_11h25.59.057,DMS_et_12-36,2022.2.4,None,
6,PRED,12,0.5818865272372324,1,images/picture_2.png,images/picture_1.png,0,"[11.733433509789462, -11.733433509789466]",11.733433509789462,-11.733433509789464,images/picture_2.png,1,"[11.733433509789464, 11.733433509789462]",11.733433509789464,11.733433509789462,images/picture_3.png,2,"[-11.733433509789466, -11.733433509789462]",-11.733433509789464,-11.733433509789462,0,1,1,0.5818865272372324,1.5818865272372324,1.4181134727627676,3.0,1,1.3318865272372324,0,4.0,3.0,1,2,0,0,0,0,0,7,7,6,,,,,,,154.00997558399104,154.00997558399104,155.0102822498884,155.3437391249463,155.57714520883746,155.57714520883746,155.57714520883746,157.0104990839027,157.0104990839027,157.0104990839027,157.0104990839027,158.00982320890762,200004,005,2023-03-31_11h25.59.057,DMS_et_12-36,2022.2.4,None,
7,PRED,12,0.5818865272372324,1,images/picture_2.png,images/picture_1.png,0,"[11.733433509789464, 11.733433509789462]",11.733433509789464,11.733433509789462,images/picture_2.png,1,"[-11.733433509789462, 11.733433509789464]",-11.733433509789462,11.733433509789464,images/picture_3.png,2,"[11.733433509789462, -11.733433509789466]",11.733433509789462,-11.733433509789464,0,1,1,0.5818865272372324,1.5818865272372324,1.4181134727627676,3.0,1,1.3318865272372324,0,4.0,3.0,1,2,0,0,0,0,0,8,8,7,,,,,,,158.00982320890762,158.00982320890762,159.0100918340031,159.34337854199111,159.59591945889406,159.59591945889406,159.59591945889406,161.01027495902963,161.02989674988203,161.02989674988203,161.02989674988203,162.02943966700695,200004,005,2023-03-31_11h25.59.057,DMS_et_12-36,2022.2.4,None,
,,,,,,,,,,,,,,,,,,,,,,,,,,,,,,,,,,,0,0,0,0,,,,,,,,,162.02943966700695,174.06237674993463,,,,,,,,,,,,,200004,005,2023-03-31_11h25.59.057,DMS_et_12-36,2022.2.4,None,
16,UNPRED,12,0.5818865272372324,1,images/picture_2.png,images/picture_1.png,0,"[-11.733433509789466, -11.733433509789462]",-11.733433509789464,-11.733433509789462,images/picture_2.png,1,"[11.733433509789464, 11.733433509789462]",11.733433509789464,11.733433509789462,images/picture_3.png,2,"[11.733433509789462, -11.733433509789466]",11.733433509789462,-11.733433509789464,0,1,1,0.5818865272372324,1.5818865272372324,1.4181134727627676,3.0,1,1.3318865272372324,0,4.0,3.0,1,2,1,0,1,0,0,0,0,7,,,,,,,174.06237674993463,174.06237674993463,175.07729770895094,175.39647829183377,175.64360024989583,175.64360024989583,175.64360024989583,177.06309962505475,177.07697916706093,177.07697916706093,177.07697916706093,178.0767350839451,200004,005,2023-03-31_11h25.59.057,DMS_et_12-36,2022.2.4,None,
11,UNPRED,12,0.5818865272372324,0,images/picture_1.png,images/picture_1.png,0,"[-11.733433509789466, -11.733433509789462]",-11.733433509789464,-11.733433509789462,images/picture_2.png,1,"[11.733433509789462, -11.733433509789466]",11.733433509789462,-11.733433509789464,images/picture_3.png,2,"[11.733433509789464, 11.733433509789462]",11.733433509789464,11.733433509789462,0,1,1,0.5818865272372324,1.5818865272372324,1.4181134727627676,3.0,1,1.3318865272372324,0,4.0,3.0,1,2,1,0,1,0,0,1,1,2,,,,,,,178.0767350839451,178.0767350839451,179.07696433388628,179.41051841690205,179.64357070904225,179.64357070904225,179.64357070904225,181.07718404196203,181.07718404196203,181.07718404196203,181.07718404196203,182.09592674998567,200004,005,2023-03-31_11h25.59.057,DMS_et_12-36,2022.2.4,None,
13,UNPRED,12,0.5818865272372324,2,images/picture_3.png,images/picture_1.png,0,"[11.733433509789464, 11.733433509789462]",11.733433509789464,11.733433509789462,images/picture_2.png,1,"[11.733433509789462, -11.733433509789466]",11.733433509789462,-11.733433509789464,images/picture_3.png,2,"[-11.733433509789462, 11.733433509789464]",-11.733433509789462,11.733433509789464,0,1,1,0.5818865272372324,1.5818865272372324,1.4181134727627676,3.0,1,1.3318865272372324,0,4.0,3.0,1,2,1,0,1,0,0,2,2,4,,,,,,,182.09592674998567,182.09592674998567,183.11046966700815,183.4296800000593,183.66328849992715,183.66328849992715,183.66328849992715,185.07701283390634,185.09653158392757,185.09653158392757,185.09653158392757,186.07675120886415,200004,005,2023-03-31_11h25.59.057,DMS_et_12-36,2022.2.4,None,
17,UNPRED,12,0.5818865272372324,0,images/picture_1.png,images/picture_1.png,0,"[11.733433509789462, -11.733433509789466]",11.733433509789462,-11.733433509789464,images/picture_2.png,1,"[-11.733433509789462, 11.733433509789464]",-11.733433509789462,11.733433509789464,images/picture_3.png,2,"[11.733433509789464, 11.733433509789462]",11.733433509789464,11.733433509789462,0,1,1,0.5818865272372324,1.5818865272372324,1.4181134727627676,3.0,1,1.3318865272372324,0,4.0,3.0,1,2,1,0,1,0,0,3,3,8,,,,,,,186.07675120886415,186.07675120886415,187.0771849169396,187.41049299994484,187.64377141697332,187.64377141697332,187.64377141697332,189.07704524998553,189.07704524998553,189.07704524998553,189.07704524998553,190.07698191702366,200004,005,2023-03-31_11h25.59.057,DMS_et_12-36,2022.2.4,None,
14,UNPRED,12,0.5818865272372324,1,images/picture_2.png,images/picture_1.png,0,"[11.733433509789464, 11.733433509789462]",11.733433509789464,11.733433509789462,images/picture_2.png,1,"[11.733433509789462, -11.733433509789466]",11.733433509789462,-11.733433509789464,images/picture_3.png,2,"[-11.733433509789462, 11.733433509789464]",-11.733433509789462,11.733433509789464,0,1,1,0.5818865272372324,1.5818865272372324,1.4181134727627676,3.0,1,1.3318865272372324,0,4.0,3.0,1,2,1,0,1,0,0,4,4,5,,,,,,,190.07698191702366,190.07698191702366,191.07703491696157,191.41048479196616,191.64373504184186,191.64373504184186,191.64373504184186,193.07719854195602,193.07719854195602,193.07719854195602,193.07719854195602,194.09587083384395,200004,005,2023-03-31_11h25.59.057,DMS_et_12-36,2022.2.4,None,
12,UNPRED,12,0.5818865272372324,2,images/picture_3.png,images/picture_1.png,0,"[-11.733433509789466, -11.733433509789462]",-11.733433509789464,-11.733433509789462,images/picture_2.png,1,"[11.733433509789462, -11.733433509789466]",11.733433509789462,-11.733433509789464,images/picture_3.png,2,"[11.733433509789464, 11.733433509789462]",11.733433509789464,11.733433509789462,0,1,1,0.5818865272372324,1.5818865272372324,1.4181134727627676,3.0,1,1.3318865272372324,0,4.0,3.0,1,2,1,0,1,0,0,5,5,3,,,,,,,194.09587083384395,194.09587083384395,195.1103099170141,195.42978354194202,195.64371162489988,195.64371162489988,195.64371162489988,197.07704670890234,197.07704670890234,197.07704670890234,197.07704670890234,198.0960047498811,200004,005,2023-03-31_11h25.59.057,DMS_et_12-36,2022.2.4,None,
15,UNPRED,12,0.5818865272372324,2,images/picture_3.png,images/picture_1.png,0,"[11.733433509789462, -11.733433509789466]",11.733433509789462,-11.733433509789464,images/picture_2.png,1,"[-11.733433509789466, -11.733433509789462]",-11.733433509789464,-11.733433509789462,images/picture_3.png,2,"[-11.733433509789462, 11.733433509789464]",-11.733433509789462,11.733433509789464,0,1,1,0.5818865272372324,1.5818865272372324,1.4181134727627676,3.0,1,1.3318865272372324,0,4.0,3.0,1,2,1,0,1,0,0,6,6,6,,,,,,,198.0960047498811,198.0960047498811,199.11042391695082,199.42959670885466,199.66301004192792,199.66301004192792,199.66301004192792,201.07702137483284,201.0962748748716,201.0962748748716,201.0962748748716,202.07697524991818,200004,005,2023-03-31_11h25.59.057,DMS_et_12-36,2022.2.4,None,
9,UNPRED,12,0.5818865272372324,1,images/picture_2.png,images/picture_1.png,0,"[11.733433509789462, -11.733433509789466]",11.733433509789462,-11.733433509789464,images/picture_2.png,1,"[-11.733433509789462, 11.733433509789464]",-11.733433509789462,11.733433509789464,images/picture_3.png,2,"[-11.733433509789466, -11.733433509789462]",-11.733433509789464,-11.733433509789462,0,1,1,0.5818865272372324,1.5818865272372324,1.4181134727627676,3.0,1,1.3318865272372324,0,4.0,3.0,1,2,1,0,1,0,0,7,7,0,,,,,,,202.07697524991818,202.07697524991818,203.0770683749579,203.41033216705546,203.6438162920531,203.6438162920531,203.6438162920531,205.07720062485896,205.07720062485896,205.07720062485896,205.07720062485896,206.07645491696894,200004,005,2023-03-31_11h25.59.057,DMS_et_12-36,2022.2.4,None,
10,UNPRED,12,0.5818865272372324,1,images/picture_2.png,images/picture_1.png,0,"[-11.733433509789466, -11.733433509789462]",-11.733433509789464,-11.733433509789462,images/picture_2.png,1,"[11.733433509789462, -11.733433509789466]",11.733433509789462,-11.733433509789464,images/picture_3.png,2,"[11.733433509789464, 11.733433509789462]",11.733433509789464,11.733433509789462,0,1,1,0.5818865272372324,1.5818865272372324,1.4181134727627676,3.0,1,1.3318865272372324,0,4.0,3.0,1,2,1,0,1,0,0,8,8,1,,,,,,,206.07645491696894,206.07645491696894,207.0771124169696,207.41060950001702,207.6437626669649,207.6437626669649,207.6437626669649,209.07709879195318,209.07709879195318,209.07709879195318,209.07709879195318,210.09586766688153,200004,005,2023-03-31_11h25.59.057,DMS_et_12-36,2022.2.4,None,
,,,,,,,,,,,,,,,,,,,,,,,,,,,,,,,,,,,1,0,1,0,,,,,,,,,210.09586766688153,222.12950820894912,,,,,,,,,,,,,200004,005,2023-03-31_11h25.59.057,DMS_et_12-36,2022.2.4,None,
26,PRED,12,0.5818865272372324,1,images/picture_2.png,images/picture_1.png,0,"[11.733433509789464, 11.733433509789462]",11.733433509789464,11.733433509789462,images/picture_2.png,1,"[11.733433509789462, -11.733433509789466]",11.733433509789462,-11.733433509789464,images/picture_3.png,2,"[-11.733433509789462, 11.733433509789464]",-11.733433509789462,11.733433509789464,0,1,1,0.5818865272372324,1.5818865272372324,1.4181134727627676,3.0,1,1.3318865272372324,0,4.0,3.0,1,2,2,0,2,0,0,0,0,8,,,,,,,222.12950820894912,222.12950820894912,223.14386554202065,223.46321849990636,223.71056516701356,223.71056516701356,223.71056516701356,225.12965904199518,225.1438148750458,225.1438148750458,225.1438148750458,226.14320645900443,200004,005,2023-03-31_11h25.59.057,DMS_et_12-36,2022.2.4,None,
23,PRED,12,0.5818865272372324,1,images/picture_2.png,images/picture_1.png,0,"[11.733433509789464, 11.733433509789462]",11.733433509789464,11.733433509789462,images/picture_2.png,1,"[-11.733433509789466, -11.733433509789462]",-11.733433509789464,-11.733433509789462,images/picture_3.png,2,"[-11.733433509789462, 11.733433509789464]",-11.733433509789462,11.733433509789464,0,1,1,0.5818865272372324,1.5818865272372324,1.4181134727627676,3.0,1,1.3318865272372324,0,4.0,3.0,1,2,2,0,2,0,0,1,1,5,,,,,,,226.14320645900443,226.14320645900443,227.14376541692764,227.47693562484346,227.7291080839932,227.7291080839932,227.7291080839932,229.14395420905203,229.14395420905203,229.14395420905203,229.14395420905203,230.14315458387136,200004,005,2023-03-31_11h25.59.057,DMS_et_12-36,2022.2.4,None,
19,PRED,12,0.5818865272372324,1,images/picture_2.png,images/picture_1.png,0,"[-11.733433509789462, 11.733433509789464]",-11.733433509789462,11.733433509789464,images/picture_2.png,1,"[11.733433509789462, -11.733433509789466]",11.733433509789462,-11.733433509789464,images/picture_3.png,2,"[11.733433509789464, 11.733433509789462]",11.733433509789464,11.733433509789462,0,1,1,0.5818865272372324,1.5818865272372324,1.4181134727627676,3.0,1,1.3318865272372324,0,4.0,3.0,1,2,2,0,2,0,0,2,2,1,,,,,,,230.14315458387136,230.14315458387136,231.14332433394156,231.47689999989234,231.71054945886135,231.71054945886135,231.71054945886135,233.14383558393456,233.14383558393456,233.14383558393456,233.14383558393456,234.14331587497145,200004,005,2023-03-31_11h25.59.057,DMS_et_12-36,2022.2.4,None,
25,PRED,12,0.5818865272372324,1,images/picture_2.png,images/picture_1.png,0,"[-11.733433509789466, -11.733433509789462]",-11.733433509789464,-11.733433509789462,images/picture_2.png,1,"[11.733433509789464, 11.733433509789462]",11.733433509789464,11.733433509789462,images/picture_3.png,2,"[-11.733433509789462, 11.733433509789464]",-11.733433509789462,11.733433509789464,0,1,1,0.5818865272372324,1.5818865272372324,1.4181134727627676,3.0,1,1.3318865272372324,0,4.0,3.0,1,2,2,0,2,0,0,3,3,7,,,,,,,234.14331587497145,234.14331587497145,235.14386737486348,235.4770689168945,235.71050912491046,235.71050912491046,235.71050912491046,237.14385579200462,237.14385579200462,237.14385579200462,237.14385579200462,238.14319054200314,200004,005,2023-03-31_11h25.59.057,DMS_et_12-36,2022.2.4,None,
24,PRED,12,0.5818865272372324,1,images/picture_2.png,images/picture_1.png,0,"[11.733433509789462, -11.733433509789466]",11.733433509789462,-11.733433509789464,images/picture_2.png,1,"[11.733433509789464, 11.733433509789462]",11.733433509789464,11.733433509789462,images/picture_3.png,2,"[-11.733433509789462, 11.733433509789464]",-11.733433509789462,11.733433509789464,0,1,1,0.5818865272372324,1.5818865272372324,1.4181134727627676,3.0,1,1.3318865272372324,0,4.0,3.0,1,2,2,0,2,0,0,4,4,6,,,,,,,238.14319054200314,238.14319054200314,239.14386029192246,239.47702554194257,239.7105312498752,239.7105312498752,239.7105312498752,241.14345179195516,241.14345179195516,241.14345179195516,241.14345179195516,242.14346795901656,200004,005,2023-03-31_11h25.59.057,DMS_et_12-36,2022.2.4,None,
21,PRED,12,0.5818865272372324,1,images/picture_2.png,images/picture_1.png,0,"[-11.733433509789466, -11.733433509789462]",-11.733433509789464,-11.733433509789462,images/picture_2.png,1,"[11.733433509789464, 11.733433509789462]",11.733433509789464,11.733433509789462,images/picture_3.png,2,"[11.733433509789462, -11.733433509789466]",11.733433509789462,-11.733433509789464,0,1,1,0.5818865272372324,1.5818865272372324,1.4181134727627676,3.0,1,1.3318865272372324,0,4.0,3.0,1,2,2,0,2,0,0,5,5,3,,,,,,,242.14346795901656,242.14346795901656,243.14382087485865,243.47725287498906,243.71051729191095,243.71051729191095,243.71051729191095,245.14385004201904,245.14385004201904,245.14385004201904,245.14385004201904,246.143180541927,200004,005,2023-03-31_11h25.59.057,DMS_et_12-36,2022.2.4,None,
18,PRED,12,0.5818865272372324,1,images/picture_2.png,images/picture_1.png,0,"[-11.733433509789466, -11.733433509789462]",-11.733433509789464,-11.733433509789462,images/picture_2.png,1,"[11.733433509789464, 11.733433509789462]",11.733433509789464,11.733433509789462,images/picture_3.png,2,"[11.733433509789462, -11.733433509789466]",11.733433509789462,-11.733433509789464,0,1,1,0.5818865272372324,1.5818865272372324,1.4181134727627676,3.0,1,1.3318865272372324,0,4.0,3.0,1,2,2,0,2,0,0,6,6,0,,,,,,,246.143180541927,246.143180541927,247.14381591696292,247.47706637484953,247.71050979197025,247.71050979197025,247.71050979197025,249.14387675002217,249.14387675002217,249.14387675002217,249.14387675002217,250.14333862485364,200004,005,2023-03-31_11h25.59.057,DMS_et_12-36,2022.2.4,None,
20,PRED,12,0.5818865272372324,1,images/picture_2.png,images/picture_1.png,0,"[-11.733433509789462, 11.733433509789464]",-11.733433509789462,11.733433509789464,images/picture_2.png,1,"[11.733433509789464, 11.733433509789462]",11.733433509789464,11.733433509789462,images/picture_3.png,2,"[11.733433509789462, -11.733433509789466]",11.733433509789462,-11.733433509789464,0,1,1,0.5818865272372324,1.5818865272372324,1.4181134727627676,3.0,1,1.3318865272372324,0,4.0,3.0,1,2,2,0,2,0,0,7,7,2,,,,,,,250.14333862485364,250.14333862485364,251.14355804189108,251.47695416701026,251.71022104192525,251.71022104192525,251.71022104192525,253.14377800002694,253.14377800002694,253.14377800002694,253.14377800002694,254.14331658394076,200004,005,2023-03-31_11h25.59.057,DMS_et_12-36,2022.2.4,None,
22,PRED,12,0.5818865272372324,1,images/picture_2.png,images/picture_1.png,0,"[-11.733433509789466, -11.733433509789462]",-11.733433509789464,-11.733433509789462,images/picture_2.png,1,"[-11.733433509789462, 11.733433509789464]",-11.733433509789462,11.733433509789464,images/picture_3.png,2,"[11.733433509789462, -11.733433509789466]",11.733433509789462,-11.733433509789464,0,1,1,0.5818865272372324,1.5818865272372324,1.4181134727627676,3.0,1,1.3318865272372324,0,4.0,3.0,1,2,2,0,2,0,0,8,8,4,,,,,,,254.14331658394076,254.14331658394076,255.14376537501812,255.47717345901765,255.71054087486118,255.71054087486118,255.71054087486118,257.1438107918948,257.1438107918948,257.1438107918948,257.1438107918948,258.1850256668404,200004,005,2023-03-31_11h25.59.057,DMS_et_12-36,2022.2.4,None,
,,,,,,,,,,,,,,,,,,,,,,,,,,,,,,,,,,,2,0,2,0,,,,,,,,,258.1850256668404,270.2080297090579,,,,,,,,,,,,,200004,005,2023-03-31_11h25.59.057,DMS_et_12-36,2022.2.4,None,
35,UNPRED,12,0.5818865272372324,0,images/picture_1.png,images/picture_1.png,0,"[-11.733433509789462, 11.733433509789464]",-11.733433509789462,11.733433509789464,images/picture_2.png,1,"[-11.733433509789466, -11.733433509789462]",-11.733433509789464,-11.733433509789462,images/picture_3.png,2,"[11.733433509789464, 11.733433509789462]",11.733433509789464,11.733433509789462,0,1,1,0.5818865272372324,1.5818865272372324,1.4181134727627676,3.0,1,1.3318865272372324,0,4.0,3.0,1,2,3,0,3,0,0,0,0,8,,,,,,,270.2080297090579,270.2080297090579,271.21062245895155,271.5436642500572,271.795924999984,271.795924999984,271.795924999984,273.2105612498708,273.2105612498708,273.2105612498708,273.2105612498708,274.2099734588992,200004,005,2023-03-31_11h25.59.057,DMS_et_12-36,2022.2.4,None,
33,UNPRED,12,0.5818865272372324,1,images/picture_2.png,images/picture_1.png,0,"[11.733433509789462, -11.733433509789466]",11.733433509789462,-11.733433509789464,images/picture_2.png,1,"[-11.733433509789462, 11.733433509789464]",-11.733433509789462,11.733433509789464,images/picture_3.png,2,"[11.733433509789464, 11.733433509789462]",11.733433509789464,11.733433509789462,0,1,1,0.5818865272372324,1.5818865272372324,1.4181134727627676,3.0,1,1.3318865272372324,0,4.0,3.0,1,2,3,0,3,0,0,1,1,6,,,,,,,274.2099734588992,274.2099734588992,275.21055495901965,275.54388937493786,275.7770946668461,275.7770946668461,275.7770946668461,277.21035774983466,277.21035774983466,277.21035774983466,277.21035774983466,278.22924200003035,200004,005,2023-03-31_11h25.59.057,DMS_et_12-36,2022.2.4,None,
28,UNPRED,12,0.5818865272372324,2,images/picture_3.png,images/picture_1.png,0,"[11.733433509789462, -11.733433509789466]",11.733433509789462,-11.733433509789464,images/picture_2.png,1,"[11.733433509789464, 11.733433509789462]",11.733433509789464,11.733433509789462,images/picture_3.png,2,"[-11.733433509789462, 11.733433509789464]",-11.733433509789462,11.733433509789464,0,1,1,0.5818865272372324,1.5818865272372324,1.4181134727627676,3.0,1,1.3318865272372324,0,4.0,3.0,1,2,3,0,3,0,0,2,2,1,,,,,,,278.22924200003035,278.22924200003035,279.2438013339415,279.5630351670552,279.7770719998516,279.7770719998516,279.7770719998516,281.21053354186006,281.21053354186006,281.21053354186006,281.21053354186006,282.2101812090259,200004,005,2023-03-31_11h25.59.057,DMS_et_12-36,2022.2.4,None,
29,UNPRED,12,0.5818865272372324,0,images/picture_1.png,images/picture_1.png,0,"[11.733433509789464, 11.733433509789462]",11.733433509789464,11.733433509789462,images/picture_2.png,1,"[11.733433509789462, -11.733433509789466]",11.733433509789462,-11.733433509789464,images/picture_3.png,2,"[-11.733433509789462, 11.733433509789464]",-11.733433509789462,11.733433509789464,0,1,1,0.5818865272372324,1.5818865272372324,1.4181134727627676,3.0,1,1.3318865272372324,0,4.0,3.0,1,2,3,0,3,0,0,3,3,2,,,,,,,282.2101812090259,282.2101812090259,283.2105048750527,283.54379958403297,283.77710441686213,283.77710441686213,283.77710441686213,285.2105522919446,285.2105522919446,285.2105522919446,285.2105522919446,286.21041962504387,200004,005,2023-03-31_11h25.59.057,DMS_et_12-36,2022.2.4,None,
31,UNPRED,12,0.5818865272372324,1,images/picture_2.png,images/picture_1.png,0,"[11.733433509789464, 11.733433509789462]",11.733433509789464,11.733433509789462,images/picture_2.png,1,"[-11.733433509789466, -11.733433509789462]",-11.733433509789464,-11.733433509789462,images/picture_3.png,2,"[-11.733433509789462, 11.733433509789464]",-11.733433509789462,11.733433509789464,0,1,1,0.5818865272372324,1.5818865272372324,1.4181134727627676,3.0,1,1.3318865272372324,0,4.0,3.0,1,2,3,0,3,0,0,4,4,4,,,,,,,286.21041962504387,286.21041962504387,287.2105605418328,287.54393620905466,287.77704104199074,287.77704104199074,287.77704104199074,289.2105870419182,289.2105870419182,289.2105870419182,289.2105870419182,290.2100537919905,200004,005,2023-03-31_11h25.59.057,DMS_et_12-36,2022.2.4,None,
34,UNPRED,12,0.5818865272372324,0,images/picture_1.png,images/picture_1.png,0,"[-11.733433509789462, 11.733433509789464]",-11.733433509789462,11.733433509789464,images/picture_2.png,1,"[11.733433509789462, -11.733433509789466]",11.733433509789462,-11.733433509789464,images/picture_3.png,2,"[11.733433509789464, 11.733433509789462]",11.733433509789464,11.733433509789462,0,1,1,0.5818865272372324,1.5818865272372324,1.4181134727627676,3.0,1,1.3318865272372324,0,4.0,3.0,1,2,3,0,3,0,0,5,5,7,,,,,,,290.2100537919905,290.2100537919905,291.2106259588618,291.54417712497525,291.7774337090086,291.7774337090086,291.7774337090086,293.21099487505853,293.21099487505853,293.21099487505853,293.21099487505853,294.22936637490056,200004,005,2023-03-31_11h25.59.057,DMS_et_12-36,2022.2.4,None,
27,UNPRED,12,0.5818865272372324,2,images/picture_3.png,images/picture_1.png,0,"[-11.733433509789466, -11.733433509789462]",-11.733433509789464,-11.733433509789462,images/picture_2.png,1,"[11.733433509789462, -11.733433509789466]",11.733433509789462,-11.733433509789464,images/picture_3.png,2,"[11.733433509789464, 11.733433509789462]",11.733433509789464,11.733433509789462,0,1,1,0.5818865272372324,1.5818865272372324,1.4181134727627676,3.0,1,1.3318865272372324,0,4.0,3.0,1,2,3,0,3,0,0,6,6,0,,,,,,,294.22936637490056,294.22936637490056,295.2438032499049,295.5632711669896,295.7770920000039,295.7770920000039,295.7770920000039,297.2105089589022,297.2105089589022,297.2105089589022,297.2105089589022,298.2101077500265,200004,005,2023-03-31_11h25.59.057,DMS_et_12-36,2022.2.4,None,
32,UNPRED,12,0.5818865272372324,0,images/picture_1.png,images/picture_1.png,0,"[-11.733433509789466, -11.733433509789462]",-11.733433509789464,-11.733433509789462,images/picture_2.png,1,"[11.733433509789462, -11.733433509789466]",11.733433509789462,-11.733433509789464,images/picture_3.png,2,"[11.733433509789464, 11.733433509789462]",11.733433509789464,11.733433509789462,0,1,1,0.5818865272372324,1.5818865272372324,1.4181134727627676,3.0,1,1.3318865272372324,0,4.0,3.0,1,2,3,0,3,0,0,7,7,5,,,,,,,298.2101077500265,298.2101077500265,299.21052679186687,299.5439602090046,299.7773321249988,299.7773321249988,299.7773321249988,301.21056566690095,301.21056566690095,301.21056566690095,301.21056566690095,302.21010929183103,200004,005,2023-03-31_11h25.59.057,DMS_et_12-36,2022.2.4,None,
30,UNPRED,12,0.5818865272372324,1,images/picture_2.png,images/picture_1.png,0,"[11.733433509789462, -11.733433509789466]",11.733433509789462,-11.733433509789464,images/picture_2.png,1,"[11.733433509789464, 11.733433509789462]",11.733433509789464,11.733433509789462,images/picture_3.png,2,"[-11.733433509789466, -11.733433509789462]",-11.733433509789464,-11.733433509789462,0,1,1,0.5818865272372324,1.5818865272372324,1.4181134727627676,3.0,1,1.3318865272372324,0,4.0,3.0,1,2,3,0,3,0,0,8,8,3,,,,,,,302.21010929183103,302.21010929183103,303.21037200000137,303.5438434998505,303.77707658405416,303.77707658405416,303.77707658405416,305.2105372918304,305.2105372918304,305.2105372918304,305.2105372918304,306.26133379200473,200004,005,2023-03-31_11h25.59.057,DMS_et_12-36,2022.2.4,None,
,,,,,,,,,,,,,,,,,,,,,,,,,,,,,,,,,,,3,0,3,0,,,,,,,,,306.26133379200473,318.27660454204306,,,,,,,,,,,,,200004,005,2023-03-31_11h25.59.057,DMS_et_12-36,2022.2.4,None,
41,PRED,12,0.5818865272372324,0,images/picture_1.png,images/picture_1.png,0,"[11.733433509789464, 11.733433509789462]",11.733433509789464,11.733433509789462,images/picture_2.png,1,"[-11.733433509789466, -11.733433509789462]",-11.733433509789464,-11.733433509789462,images/picture_3.png,2,"[11.733433509789462, -11.733433509789466]",11.733433509789462,-11.733433509789464,0,1,1,0.5818865272372324,1.5818865272372324,1.4181134727627676,3.0,1,1.3318865272372324,0,4.0,3.0,1,2,4,0,4,0,0,0,0,5,,,,,,,318.27660454204306,318.27660454204306,319.277166249929,319.6106443749741,319.86319849989377,319.86319849989377,319.86319849989377,321.27726849983446,321.2964527499862,321.2964527499862,321.2964527499862,322.2767667500302,200004,005,2023-03-31_11h25.59.057,DMS_et_12-36,2022.2.4,None,
43,PRED,12,0.5818865272372324,0,images/picture_1.png,images/picture_1.png,0,"[11.733433509789462, -11.733433509789466]",11.733433509789462,-11.733433509789464,images/picture_2.png,1,"[11.733433509789464, 11.733433509789462]",11.733433509789464,11.733433509789462,images/picture_3.png,2,"[-11.733433509789466, -11.733433509789462]",-11.733433509789464,-11.733433509789462,0,1,1,0.5818865272372324,1.5818865272372324,1.4181134727627676,3.0,1,1.3318865272372324,0,4.0,3.0,1,2,4,0,4,0,0,1,1,7,,,,,,,322.2767667500302,322.2767667500302,323.27706620888785,323.61032066703774,323.8624156669248,323.8624156669248,323.8624156669248,325.2772624590434,325.2772624590434,325.2772624590434,325.2772624590434,326.27692833403125,200004,005,2023-03-31_11h25.59.057,DMS_et_12-36,2022.2.4,None,
40,PRED,12,0.5818865272372324,0,images/picture_1.png,images/picture_1.png,0,"[11.733433509789464, 11.733433509789462]",11.733433509789464,11.733433509789462,images/picture_2.png,1,"[-11.733433509789462, 11.733433509789464]",-11.733433509789462,11.733433509789464,images/picture_3.png,2,"[-11.733433509789466, -11.733433509789462]",-11.733433509789464,-11.733433509789462,0,1,1,0.5818865272372324,1.5818865272372324,1.4181134727627676,3.0,1,1.3318865272372324,0,4.0,3.0,1,2,4,0,4,0,0,2,2,4,,,,,,,326.27692833403125,326.27692833403125,327.2772457089741,327.6105402498506,327.84395716688596,327.84395716688596,327.84395716688596,329.2772975000553,329.2772975000553,329.2772975000553,329.2772975000553,330.27685287501663,200004,005,2023-03-31_11h25.59.057,DMS_et_12-36,2022.2.4,None,
42,PRED,12,0.5818865272372324,0,images/picture_1.png,images/picture_1.png,0,"[11.733433509789464, 11.733433509789462]",11.733433509789464,11.733433509789462,images/picture_2.png,1,"[11.733433509789462, -11.733433509789466]",11.733433509789462,-11.733433509789464,images/picture_3.png,2,"[-11.733433509789462, 11.733433509789464]",-11.733433509789462,11.733433509789464,0,1,1,0.5818865272372324,1.5818865272372324,1.4181134727627676,3.0,1,1.3318865272372324,0,4.0,3.0,1,2,4,0,4,0,0,3,3,6,,,,,,,330.27685287501663,330.27685287501663,331.2770806669723,331.6105721248314,331.84383691684343,331.84383691684343,331.84383691684343,333.2769825840369,333.2769825840369,333.2769825840369,333.2769825840369,334.27670175000094,200004,005,2023-03-31_11h25.59.057,DMS_et_12-36,2022.2.4,None,
44,PRED,12,0.5818865272372324,0,images/picture_1.png,images/picture_1.png,0,"[-11.733433509789466, -11.733433509789462]",-11.733433509789464,-11.733433509789462,images/picture_2.png,1,"[11.733433509789462, -11.733433509789466]",11.733433509789462,-11.733433509789464,images/picture_3.png,2,"[-11.733433509789462, 11.733433509789464]",-11.733433509789462,11.733433509789464,0,1,1,0.5818865272372324,1.5818865272372324,1.4181134727627676,3.0,1,1.3318865272372324,0,4.0,3.0,1,2,4,0,4,0,0,4,4,8,,,,,,,334.27670175000094,334.27670175000094,335.2773478338495,335.6106250418816,335.8631071669515,335.8631071669515,335.8631071669515,337.2773568748962,337.29655974986963,337.29655974986963,337.29655974986963,338.27682174998336,200004,005,2023-03-31_11h25.59.057,DMS_et_12-36,2022.2.4,None,
36,PRED,12,0.5818865272372324,0,images/picture_1.png,images/picture_1.png,0,"[-11.733433509789466, -11.733433509789462]",-11.733433509789464,-11.733433509789462,images/picture_2.png,1,"[11.733433509789462, -11.733433509789466]",11.733433509789462,-11.733433509789464,images/picture_3.png,2,"[-11.733433509789462, 11.733433509789464]",-11.733433509789462,11.733433509789464,0,1,1,0.5818865272372324,1.5818865272372324,1.4181134727627676,3.0,1,1.3318865272372324,0,4.0,3.0,1,2,4,0,4,0,0,5,5,0,,,,,,,338.27682174998336,338.27682174998336,339.27724858396687,339.6107633749489,339.8438222920522,339.8438222920522,339.8438222920522,341.2772939999122,341.2772939999122,341.2772939999122,341.2772939999122,342.27660429198295,200004,005,2023-03-31_11h25.59.057,DMS_et_12-36,2022.2.4,None,
37,PRED,12,0.5818865272372324,0,images/picture_1.png,images/picture_1.png,0,"[-11.733433509789466, -11.733433509789462]",-11.733433509789464,-11.733433509789462,images/picture_2.png,1,"[11.733433509789462, -11.733433509789466]",11.733433509789462,-11.733433509789464,images/picture_3.png,2,"[11.733433509789464, 11.733433509789462]",11.733433509789464,11.733433509789462,0,1,1,0.5818865272372324,1.5818865272372324,1.4181134727627676,3.0,1,1.3318865272372324,0,4.0,3.0,1,2,4,0,4,0,0,6,6,1,,,,,,,342.27660429198295,342.27660429198295,343.2769260420464,343.6103431249503,343.86248887493275,343.86248887493275,343.86248887493275,345.27728079189546,345.27728079189546,345.27728079189546,345.27728079189546,346.27686554193497,200004,005,2023-03-31_11h25.59.057,DMS_et_12-36,2022.2.4,None,
39,PRED,12,0.5818865272372324,0,images/picture_1.png,images/picture_1.png,0,"[-11.733433509789462, 11.733433509789464]",-11.733433509789462,11.733433509789464,images/picture_2.png,1,"[-11.733433509789466, -11.733433509789462]",-11.733433509789464,-11.733433509789462,images/picture_3.png,2,"[11.733433509789464, 11.733433509789462]",11.733433509789464,11.733433509789462,0,1,1,0.5818865272372324,1.5818865272372324,1.4181134727627676,3.0,1,1.3318865272372324,0,4.0,3.0,1,2,4,0,4,0,0,7,7,3,,,,,,,346.27686554193497,346.27686554193497,347.2773610840086,347.6107184998691,347.84399945894256,347.84399945894256,347.84399945894256,349.2775029169861,349.2775029169861,349.2775029169861,349.2775029169861,350.27689650002867,200004,005,2023-03-31_11h25.59.057,DMS_et_12-36,2022.2.4,None,
38,PRED,12,0.5818865272372324,0,images/picture_1.png,images/picture_1.png,0,"[11.733433509789464, 11.733433509789462]",11.733433509789464,11.733433509789462,images/picture_2.png,1,"[-11.733433509789466, -11.733433509789462]",-11.733433509789464,-11.733433509789462,images/picture_3.png,2,"[11.733433509789462, -11.733433509789466]",11.733433509789462,-11.733433509789464,0,1,1,0.5818865272372324,1.5818865272372324,1.4181134727627676,3.0,1,1.3318865272372324,0,4.0,3.0,1,2,4,0,4,0,0,8,8,2,,,,,,,350.27689650002867,350.27689650002867,351.27730833389796,351.61053208401427,351.84399412502535,351.84399412502535,351.84399412502535,353.2772831248585,353.2772831248585,353.2772831248585,353.2772831248585,354.3200109170284,200004,005,2023-03-31_11h25.59.057,DMS_et_12-36,2022.2.4,None,
,,,,,,,,,,,,,,,,,,,,,,,,,,,,,,,,,,,4,0,4,0,,,,,,,,,354.3200109170284,366.3412543749437,,,,,,,,,,,,,200004,005,2023-03-31_11h25.59.057,DMS_et_12-36,2022.2.4,None,
51,UNPRED,12,0.5818865272372324,0,images/picture_1.png,images/picture_1.png,0,"[-11.733433509789466, -11.733433509789462]",-11.733433509789464,-11.733433509789462,images/picture_2.png,1,"[-11.733433509789462, 11.733433509789464]",-11.733433509789462,11.733433509789464,images/picture_3.png,2,"[11.733433509789464, 11.733433509789462]",11.733433509789464,11.733433509789462,0,1,1,0.5818865272372324,1.5818865272372324,1.4181134727627676,3.0,1,1.3318865272372324,0,4.0,3.0,1,2,5,0,5,0,0,0,0,6,,,,,,,366.3412543749437,366.3412543749437,367.34397675003856,367.6773334168829,367.92998916702345,367.92998916702345,367.92998916702345,369.3438685419969,369.3633745419793,369.3633745419793,369.3633745419793,370.34353991691023,200004,005,2023-03-31_11h25.59.057,DMS_et_12-36,2022.2.4,None,
49,UNPRED,12,0.5818865272372324,0,images/picture_1.png,images/picture_1.png,0,"[-11.733433509789462, 11.733433509789464]",-11.733433509789462,11.733433509789464,images/picture_2.png,1,"[11.733433509789464, 11.733433509789462]",11.733433509789464,11.733433509789462,images/picture_3.png,2,"[11.733433509789462, -11.733433509789466]",11.733433509789462,-11.733433509789464,0,1,1,0.5818865272372324,1.5818865272372324,1.4181134727627676,3.0,1,1.3318865272372324,0,4.0,3.0,1,2,5,0,5,0,0,1,1,4,,,,,,,370.34353991691023,370.34353991691023,371.34404129185714,371.6772958340589,371.91054666694254,371.91054666694254,371.91054666694254,373.3441241669934,373.3441241669934,373.3441241669934,373.3441241669934,374.3435141670052,200004,005,2023-03-31_11h25.59.057,DMS_et_12-36,2022.2.4,None,
50,UNPRED,12,0.5818865272372324,0,images/picture_1.png,images/picture_1.png,0,"[-11.733433509789466, -11.733433509789462]",-11.733433509789464,-11.733433509789462,images/picture_2.png,1,"[-11.733433509789462, 11.733433509789464]",-11.733433509789462,11.733433509789464,images/picture_3.png,2,"[11.733433509789464, 11.733433509789462]",11.733433509789464,11.733433509789462,0,1,1,0.5818865272372324,1.5818865272372324,1.4181134727627676,3.0,1,1.3318865272372324,0,4.0,3.0,1,2,5,0,5,0,0,2,2,5,,,,,,,374.3435141670052,374.3435141670052,375.3440342498943,375.67729287501425,375.9106060420163,375.9106060420163,375.9106060420163,377.34401829191484,377.34401829191484,377.34401829191484,377.34401829191484,378.3427085420117,200004,005,2023-03-31_11h25.59.057,DMS_et_12-36,2022.2.4,None,
47,UNPRED,12,0.5818865272372324,1,images/picture_2.png,images/picture_1.png,0,"[11.733433509789462, -11.733433509789466]",11.733433509789462,-11.733433509789464,images/picture_2.png,1,"[-11.733433509789462, 11.733433509789464]",-11.733433509789462,11.733433509789464,images/picture_3.png,2,"[11.733433509789464, 11.733433509789462]",11.733433509789464,11.733433509789462,0,1,1,0.5818865272372324,1.5818865272372324,1.4181134727627676,3.0,1,1.3318865272372324,0,4.0,3.0,1,2,5,0,5,0,0,3,3,2,,,,,,,378.3427085420117,378.3427085420117,379.3440266249236,379.67727566696703,379.91058250004426,379.91058250004426,379.91058250004426,381.3440513338428,381.3440513338428,381.3440513338428,381.3440513338428,382.3433575418312,200004,005,2023-03-31_11h25.59.057,DMS_et_12-36,2022.2.4,None,
52,UNPRED,12,0.5818865272372324,1,images/picture_2.png,images/picture_1.png,0,"[-11.733433509789462, 11.733433509789464]",-11.733433509789462,11.733433509789464,images/picture_2.png,1,"[11.733433509789462, -11.733433509789466]",11.733433509789462,-11.733433509789464,images/picture_3.png,2,"[-11.733433509789466, -11.733433509789462]",-11.733433509789464,-11.733433509789462,0,1,1,0.5818865272372324,1.5818865272372324,1.4181134727627676,3.0,1,1.3318865272372324,0,4.0,3.0,1,2,5,0,5,0,0,4,4,7,,,,,,,382.3433575418312,382.3433575418312,383.3440281669609,383.6773619169835,383.91072599985637,383.91072599985637,383.91072599985637,385.34380887495354,385.34380887495354,385.34380887495354,385.34380887495354,386.3624809170142,200004,005,2023-03-31_11h25.59.057,DMS_et_12-36,2022.2.4,None,
45,UNPRED,12,0.5818865272372324,2,images/picture_3.png,images/picture_1.png,0,"[-11.733433509789466, -11.733433509789462]",-11.733433509789464,-11.733433509789462,images/picture_2.png,1,"[11.733433509789462, -11.733433509789466]",11.733433509789462,-11.733433509789464,images/picture_3.png,2,"[-11.733433509789462, 11.733433509789464]",-11.733433509789462,11.733433509789464,0,1,1,0.5818865272372324,1.5818865272372324,1.4181134727627676,3.0,1,1.3318865272372324,0,4.0,3.0,1,2,5,0,5,0,0,5,5,0,,,,,,,386.3624809170142,386.3624809170142,387.37730145896785,387.6967276248615,387.92935750004835,387.92935750004835,387.92935750004835,389.3440658750478,389.3440658750478,389.3440658750478,389.3440658750478,390.3438880839385,200004,005,2023-03-31_11h25.59.057,DMS_et_12-36,2022.2.4,None,
53,UNPRED,12,0.5818865272372324,1,images/picture_2.png,images/picture_1.png,0,"[11.733433509789464, 11.733433509789462]",11.733433509789464,11.733433509789462,images/picture_2.png,1,"[11.733433509789462, -11.733433509789466]",11.733433509789462,-11.733433509789464,images/picture_3.png,2,"[-11.733433509789462, 11.733433509789464]",-11.733433509789462,11.733433509789464,0,1,1,0.5818865272372324,1.5818865272372324,1.4181134727627676,3.0,1,1.3318865272372324,0,4.0,3.0,1,2,5,0,5,0,0,6,6,8,,,,,,,390.3438880839385,390.3438880839385,391.34398354194127,391.6772584589198,391.9107532920316,391.9107532920316,391.9107532920316,393.34399312501773,393.34399312501773,393.34399312501773,393.34399312501773,394.3435529170092,200004,005,2023-03-31_11h25.59.057,DMS_et_12-36,2022.2.4,None,
48,UNPRED,12,0.5818865272372324,0,images/picture_1.png,images/picture_1.png,0,"[-11.733433509789462, 11.733433509789464]",-11.733433509789462,11.733433509789464,images/picture_2.png,1,"[-11.733433509789466, -11.733433509789462]",-11.733433509789464,-11.733433509789462,images/picture_3.png,2,"[11.733433509789462, -11.733433509789466]",11.733433509789462,-11.733433509789464,0,1,1,0.5818865272372324,1.5818865272372324,1.4181134727627676,3.0,1,1.3318865272372324,0,4.0,3.0,1,2,5,0,5,0,0,7,7,3,,,,,,,394.3435529170092,394.3435529170092,395.34372454183176,395.67713254201226,395.9106185839046,395.9106185839046,395.9106185839046,397.3440749589354,397.3440749589354,397.3440749589354,397.3440749589354,398.362948999973,200004,005,2023-03-31_11h25.59.057,DMS_et_12-36,2022.2.4,None,
46,UNPRED,12,0.5818865272372324,2,images/picture_3.png,images/picture_1.png,0,"[11.733433509789462, -11.733433509789466]",11.733433509789462,-11.733433509789464,images/picture_2.png,1,"[-11.733433509789466, -11.733433509789462]",-11.733433509789464,-11.733433509789462,images/picture_3.png,2,"[-11.733433509789462, 11.733433509789464]",-11.733433509789462,11.733433509789464,0,1,1,0.5818865272372324,1.5818865272372324,1.4181134727627676,3.0,1,1.3318865272372324,0,4.0,3.0,1,2,5,0,5,0,0,8,8,1,,,,,,,398.362948999973,398.362948999973,399.3773095840588,399.6965429589618,399.91060329205357,399.91060329205357,399.91060329205357,401.3440029169433,401.3440029169433,401.3440029169433,401.3440029169433,402.4653235839214,200004,005,2023-03-31_11h25.59.057,DMS_et_12-36,2022.2.4,None,
,,,,,,,,,,,,,,,,,,,,,,,,,,,,,,,,,,,5,0,5,0,,,,,,,,,402.4653235839214,414.49788716691546,,,,,,,,,,,,,200004,005,2023-03-31_11h25.59.057,DMS_et_12-36,2022.2.4,None,
61,PRED,12,0.5818865272372324,1,images/picture_2.png,images/picture_1.png,0,"[11.733433509789464, 11.733433509789462]",11.733433509789464,11.733433509789462,images/picture_2.png,1,"[-11.733433509789466, -11.733433509789462]",-11.733433509789464,-11.733433509789462,images/picture_3.png,2,"[-11.733433509789462, 11.733433509789464]",-11.733433509789462,11.733433509789464,0,1,1,0.5818865272372324,1.5818865272372324,1.4181134727627676,3.0,1,1.3318865272372324,0,4.0,3.0,1,2,6,0,6,0,0,0,0,7,,,,,,,414.49788716691546,414.49788716691546,415.51042212499306,415.8438965419773,416.0773203340359,416.0773203340359,416.0773203340359,417.49692654190585,417.5107893750537,417.5107893750537,417.5107893750537,418.51072045904584,200004,005,2023-03-31_11h25.59.057,DMS_et_12-36,2022.2.4,None,
55,PRED,12,0.5818865272372324,1,images/picture_2.png,images/picture_1.png,0,"[-11.733433509789466, -11.733433509789462]",-11.733433509789464,-11.733433509789462,images/picture_2.png,1,"[11.733433509789464, 11.733433509789462]",11.733433509789464,11.733433509789462,images/picture_3.png,2,"[-11.733433509789462, 11.733433509789464]",-11.733433509789462,11.733433509789464,0,1,1,0.5818865272372324,1.5818865272372324,1.4181134727627676,3.0,1,1.3318865272372324,0,4.0,3.0,1,2,6,0,6,0,0,1,1,1,,,,,,,418.51072045904584,418.51072045904584,419.5106684998609,419.8438131250441,420.0956840419676,420.0956840419676,420.0956840419676,421.5108241250273,421.5108241250273,421.5108241250273,421.5108241250273,422.51022770884447,200004,005,2023-03-31_11h25.59.057,DMS_et_12-36,2022.2.4,None,
56,PRED,12,0.5818865272372324,1,images/picture_2.png,images/picture_1.png,0,"[-11.733433509789466, -11.733433509789462]",-11.733433509789464,-11.733433509789462,images/picture_2.png,1,"[11.733433509789464, 11.733433509789462]",11.733433509789464,11.733433509789462,images/picture_3.png,2,"[-11.733433509789462, 11.733433509789464]",-11.733433509789462,11.733433509789464,0,1,1,0.5818865272372324,1.5818865272372324,1.4181134727627676,3.0,1,1.3318865272372324,0,4.0,3.0,1,2,6,0,6,0,0,2,2,2,,,,,,,422.51022770884447,422.51022770884447,423.51076537487097,423.8440213750582,424.07740391697735,424.07740391697735,424.07740391697735,425.5105900838971,425.5105900838971,425.5105900838971,425.5105900838971,426.50965666701086,200004,005,2023-03-31_11h25.59.057,DMS_et_12-36,2022.2.4,None,
58,PRED,12,0.5818865272372324,1,images/picture_2.png,images/picture_1.png,0,"[-11.733433509789466, -11.733433509789462]",-11.733433509789464,-11.733433509789462,images/picture_2.png,1,"[11.733433509789462, -11.733433509789466]",11.733433509789462,-11.733433509789464,images/picture_3.png,2,"[-11.733433509789462, 11.733433509789464]",-11.733433509789462,11.733433509789464,0,1,1,0.5818865272372324,1.5818865272372324,1.4181134727627676,3.0,1,1.3318865272372324,0,4.0,3.0,1,2,6,0,6,0,0,3,3,4,,,,,,,426.50965666701086,426.50965666701086,427.5105840419419,427.8440841669217,428.07725758384913,428.07725758384913,428.07725758384913,429.5108089589048,429.5108089589048,429.5108089589048,429.5108089589048,430.510122791864,200004,005,2023-03-31_11h25.59.057,DMS_et_12-36,2022.2.4,None,
60,PRED,12,0.5818865272372324,1,images/picture_2.png,images/picture_1.png,0,"[11.733433509789464, 11.733433509789462]",11.733433509789464,11.733433509789462,images/picture_2.png,1,"[-11.733433509789466, -11.733433509789462]",-11.733433509789464,-11.733433509789462,images/picture_3.png,2,"[-11.733433509789462, 11.733433509789464]",-11.733433509789462,11.733433509789464,0,1,1,0.5818865272372324,1.5818865272372324,1.4181134727627676,3.0,1,1.3318865272372324,0,4.0,3.0,1,2,6,0,6,0,0,4,4,6,,,,,,,430.510122791864,430.510122791864,431.51088079204783,431.84399245888926,432.07733504194766,432.07733504194766,432.07733504194766,433.5106134589296,433.5106134589296,433.5106134589296,433.5106134589296,434.5102100840304,200004,005,2023-03-31_11h25.59.057,DMS_et_12-36,2022.2.4,None,
62,PRED,12,0.5818865272372324,1,images/picture_2.png,images/picture_1.png,0,"[11.733433509789464, 11.733433509789462]",11.733433509789464,11.733433509789462,images/picture_2.png,1,"[-11.733433509789462, 11.733433509789464]",-11.733433509789462,11.733433509789464,images/picture_3.png,2,"[-11.733433509789466, -11.733433509789462]",-11.733433509789464,-11.733433509789462,0,1,1,0.5818865272372324,1.5818865272372324,1.4181134727627676,3.0,1,1.3318865272372324,0,4.0,3.0,1,2,6,0,6,0,0,5,5,8,,,,,,,434.5102100840304,434.5102100840304,435.51059208391234,435.84373754193075,436.0770449999254,436.0770449999254,436.0770449999254,437.51089179189876,437.51089179189876,437.51089179189876,437.51089179189876,438.51005637506023,200004,005,2023-03-31_11h25.59.057,DMS_et_12-36,2022.2.4,None,
57,PRED,12,0.5818865272372324,1,images/picture_2.png,images/picture_1.png,0,"[11.733433509789462, -11.733433509789466]",11.733433509789462,-11.733433509789464,images/picture_2.png,1,"[11.733433509789464, 11.733433509789462]",11.733433509789464,11.733433509789462,images/picture_3.png,2,"[-11.733433509789462, 11.733433509789464]",-11.733433509789462,11.733433509789464,0,1,1,0.5818865272372324,1.5818865272372324,1.4181134727627676,3.0,1,1.3318865272372324,0,4.0,3.0,1,2,6,0,6,0,0,6,6,3,,,,,,,438.51005637506023,438.51005637506023,439.51074837497436,439.8440604589414,440.07730520889163,440.07730520889163,440.07730520889163,441.51061466685496,441.51061466685496,441.51061466685496,441.51061466685496,442.51050937501714,200004,005,2023-03-31_11h25.59.057,DMS_et_12-36,2022.2.4,None,
59,PRED,12,0.5818865272372324,1,images/picture_2.png,images/picture_1.png,0,"[-11.733433509789462, 11.733433509789464]",-11.733433509789462,11.733433509789464,images/picture_2.png,1,"[11.733433509789462, -11.733433509789466]",11.733433509789462,-11.733433509789464,images/picture_3.png,2,"[11.733433509789464, 11.733433509789462]",11.733433509789464,11.733433509789462,0,1,1,0.5818865272372324,1.5818865272372324,1.4181134727627676,3.0,1,1.3318865272372324,0,4.0,3.0,1,2,6,0,6,0,0,7,7,5,,,,,,,442.51050937501714,442.51050937501714,443.51092345896177,443.8440319588408,444.0965914169792,444.0965914169792,444.0965914169792,445.51085329195485,445.5301491250284,445.5301491250284,445.5301491250284,446.5103211249225,200004,005,2023-03-31_11h25.59.057,DMS_et_12-36,2022.2.4,None,
54,PRED,12,0.5818865272372324,1,images/picture_2.png,images/picture_1.png,0,"[11.733433509789464, 11.733433509789462]",11.733433509789464,11.733433509789462,images/picture_2.png,1,"[11.733433509789462, -11.733433509789466]",11.733433509789462,-11.733433509789464,images/picture_3.png,2,"[-11.733433509789462, 11.733433509789464]",-11.733433509789462,11.733433509789464,0,1,1,0.5818865272372324,1.5818865272372324,1.4181134727627676,3.0,1,1.3318865272372324,0,4.0,3.0,1,2,6,0,6,0,0,8,8,0,,,,,,,446.5103211249225,446.5103211249225,447.5106084998697,447.8440065840259,448.07738141692244,448.07738141692244,448.07738141692244,449.51092270901427,449.51092270901427,449.51092270901427,449.51092270901427,450.5877194169443,200004,005,2023-03-31_11h25.59.057,DMS_et_12-36,2022.2.4,None,
,,,,,,,,,,,,,,,,,,,,,,,,,,,,,,,,,,,6,0,6,0,,,,,,,,,450.5877194169443,462.61073741689324,,,,,,,,,,,,,200004,005,2023-03-31_11h25.59.057,DMS_et_12-36,2022.2.4,None,
68,UNPRED,12,0.5818865272372324,1,images/picture_2.png,images/picture_1.png,0,"[-11.733433509789462, 11.733433509789464]",-11.733433509789462,11.733433509789464,images/picture_2.png,1,"[-11.733433509789466, -11.733433509789462]",-11.733433509789464,-11.733433509789462,images/picture_3.png,2,"[11.733433509789464, 11.733433509789462]",11.733433509789464,11.733433509789462,0,1,1,0.5818865272372324,1.5818865272372324,1.4181134727627676,3.0,1,1.3318865272372324,0,4.0,3.0,1,2,7,0,7,0,0,0,0,5,,,,,,,462.61073741689324,462.61073741689324,463.6107312089298,463.9440556250047,464.1967145840172,464.1967145840172,464.1967145840172,465.6107552498579,465.62995500001125,465.62995500001125,465.62995500001125,466.6103322498966,200004,005,2023-03-31_11h25.59.057,DMS_et_12-36,2022.2.4,None,
65,UNPRED,12,0.5818865272372324,0,images/picture_1.png,images/picture_1.png,0,"[11.733433509789462, -11.733433509789466]",11.733433509789462,-11.733433509789464,images/picture_2.png,1,"[-11.733433509789466, -11.733433509789462]",-11.733433509789464,-11.733433509789462,images/picture_3.png,2,"[11.733433509789464, 11.733433509789462]",11.733433509789464,11.733433509789462,0,1,1,0.5818865272372324,1.5818865272372324,1.4181134727627676,3.0,1,1.3318865272372324,0,4.0,3.0,1,2,7,0,7,0,0,1,1,2,,,,,,,466.6103322498966,466.6103322498966,467.6108695839066,467.94409424997866,468.1772630419582,468.1772630419582,468.1772630419582,469.61071929195896,469.61071929195896,469.61071929195896,469.61071929195896,470.6294796250295,200004,005,2023-03-31_11h25.59.057,DMS_et_12-36,2022.2.4,None,
71,UNPRED,12,0.5818865272372324,2,images/picture_3.png,images/picture_1.png,0,"[-11.733433509789466, -11.733433509789462]",-11.733433509789464,-11.733433509789462,images/picture_2.png,1,"[11.733433509789464, 11.733433509789462]",11.733433509789464,11.733433509789462,images/picture_3.png,2,"[11.733433509789462, -11.733433509789466]",11.733433509789462,-11.733433509789464,0,1,1,0.5818865272372324,1.5818865272372324,1.4181134727627676,3.0,1,1.3318865272372324,0,4.0,3.0,1,2,7,0,7,0,0,2,2,8,,,,,,,470.6294796250295,470.6294796250295,471.6440613339655,471.96283399988897,472.1774872499518,472.1774872499518,472.1774872499518,473.6104577500373,473.6104577500373,473.6104577500373,473.6104577500373,474.61024262499996,200004,005,2023-03-31_11h25.59.057,DMS_et_12-36,2022.2.4,None,
66,UNPRED,12,0.5818865272372324,1,images/picture_2.png,images/picture_1.png,0,"[11.733433509789462, -11.733433509789466]",11.733433509789462,-11.733433509789464,images/picture_2.png,1,"[-11.733433509789466, -11.733433509789462]",-11.733433509789464,-11.733433509789462,images/picture_3.png,2,"[11.733433509789464, 11.733433509789462]",11.733433509789464,11.733433509789462,0,1,1,0.5818865272372324,1.5818865272372324,1.4181134727627676,3.0,1,1.3318865272372324,0,4.0,3.0,1,2,7,0,7,0,0,3,3,3,,,,,,,474.61024262499996,474.61024262499996,475.6105174589902,475.9437760838773,476.1770734998863,476.1770734998863,476.1770734998863,477.61031424999237,477.61031424999237,477.61031424999237,477.61031424999237,478.60985999996774,200004,005,2023-03-31_11h25.59.057,DMS_et_12-36,2022.2.4,None,
69,UNPRED,12,0.5818865272372324,0,images/picture_1.png,images/picture_1.png,0,"[-11.733433509789462, 11.733433509789464]",-11.733433509789462,11.733433509789464,images/picture_2.png,1,"[11.733433509789464, 11.733433509789462]",11.733433509789464,11.733433509789462,images/picture_3.png,2,"[11.733433509789462, -11.733433509789466]",11.733433509789462,-11.733433509789464,0,1,1,0.5818865272372324,1.5818865272372324,1.4181134727627676,3.0,1,1.3318865272372324,0,4.0,3.0,1,2,7,0,7,0,0,4,4,6,,,,,,,478.60985999996774,478.60985999996774,479.61056574992836,479.94378820899874,480.1773014590144,480.1773014590144,480.1773014590144,481.6105505418964,481.6105505418964,481.6105505418964,481.6105505418964,482.60992041695863,200004,005,2023-03-31_11h25.59.057,DMS_et_12-36,2022.2.4,None,
64,UNPRED,12,0.5818865272372324,1,images/picture_2.png,images/picture_1.png,0,"[11.733433509789462, -11.733433509789466]",11.733433509789462,-11.733433509789464,images/picture_2.png,1,"[-11.733433509789466, -11.733433509789462]",-11.733433509789464,-11.733433509789462,images/picture_3.png,2,"[11.733433509789464, 11.733433509789462]",11.733433509789464,11.733433509789462,0,1,1,0.5818865272372324,1.5818865272372324,1.4181134727627676,3.0,1,1.3318865272372324,0,4.0,3.0,1,2,7,0,7,0,0,5,5,1,,,,,,,482.60992041695863,482.60992041695863,483.6105227919761,483.9435849590227,484.1772211669013,484.1772211669013,484.1772211669013,485.61064166692086,485.61064166692086,485.61064166692086,485.61064166692086,486.6099473750219,200004,005,2023-03-31_11h25.59.057,DMS_et_12-36,2022.2.4,None,
67,UNPRED,12,0.5818865272372324,1,images/picture_2.png,images/picture_1.png,0,"[-11.733433509789462, 11.733433509789464]",-11.733433509789462,11.733433509789464,images/picture_2.png,1,"[11.733433509789462, -11.733433509789466]",11.733433509789462,-11.733433509789464,images/picture_3.png,2,"[11.733433509789464, 11.733433509789462]",11.733433509789464,11.733433509789462,0,1,1,0.5818865272372324,1.5818865272372324,1.4181134727627676,3.0,1,1.3318865272372324,0,4.0,3.0,1,2,7,0,7,0,0,6,6,4,,,,,,,486.6099473750219,486.6099473750219,487.61011129198596,487.94358770898543,488.17707645893097,488.17707645893097,488.17707645893097,489.61052387487143,489.61052387487143,489.61052387487143,489.61052387487143,490.60997633403167,200004,005,2023-03-31_11h25.59.057,DMS_et_12-36,2022.2.4,None,
63,UNPRED,12,0.5818865272372324,1,images/picture_2.png,images/picture_1.png,0,"[-11.733433509789466, -11.733433509789462]",-11.733433509789464,-11.733433509789462,images/picture_2.png,1,"[11.733433509789464, 11.733433509789462]",11.733433509789464,11.733433509789462,images/picture_3.png,2,"[11.733433509789462, -11.733433509789466]",11.733433509789462,-11.733433509789464,0,1,1,0.5818865272372324,1.5818865272372324,1.4181134727627676,3.0,1,1.3318865272372324,0,4.0,3.0,1,2,7,0,7,0,0,7,7,0,,,,,,,490.60997633403167,490.60997633403167,491.610621958971,491.9438079169486,492.1772362499032,492.1772362499032,492.1772362499032,493.6105534590315,493.6105534590315,493.6105534590315,493.6105534590315,494.6290944998618,200004,005,2023-03-31_11h25.59.057,DMS_et_12-36,2022.2.4,None,
70,UNPRED,12,0.5818865272372324,2,images/picture_3.png,images/picture_1.png,0,"[11.733433509789464, 11.733433509789462]",11.733433509789464,11.733433509789462,images/picture_2.png,1,"[-11.733433509789466, -11.733433509789462]",-11.733433509789464,-11.733433509789462,images/picture_3.png,2,"[-11.733433509789462, 11.733433509789464]",-11.733433509789462,11.733433509789464,0,1,1,0.5818865272372324,1.5818865272372324,1.4181134727627676,3.0,1,1.3318865272372324,0,4.0,3.0,1,2,7,0,7,0,0,8,8,7,,,,,,,494.6290944998618,494.6290944998618,495.64380412502214,495.9630029590335,496.1772477920167,496.1772477920167,496.1772477920167,497.6103564170189,497.6103564170189,497.6103564170189,497.6103564170189,498.7034429588821,200004,005,2023-03-31_11h25.59.057,DMS_et_12-36,2022.2.4,None,
,,,,,,,,,,,,,,,,,,,,,,,,,,,,,,,,,,,7,0,7,0,,,,,,,,,498.7034429588821,510.73258229205385,,,,,,,,,,,,,200004,005,2023-03-31_11h25.59.057,DMS_et_12-36,2022.2.4,None,
75,PRED,12,0.5818865272372324,1,images/picture_2.png,images/picture_1.png,0,"[11.733433509789464, 11.733433509789462]",11.733433509789464,11.733433509789462,images/picture_2.png,1,"[11.733433509789462, -11.733433509789466]",11.733433509789462,-11.733433509789464,images/picture_3.png,2,"[-11.733433509789462, 11.733433509789464]",-11.733433509789462,11.733433509789464,0,1,1,0.5818865272372324,1.5818865272372324,1.4181134727627676,3.0,1,1.3318865272372324,0,4.0,3.0,1,2,8,0,8,0,0,0,0,3,,,,,,,510.73258229205385,510.73258229205385,511.7438056669198,512.0771560419817,512.3105304590426,512.3105304590426,512.3105304590426,513.7301973749418,513.7439757089596,513.7439757089596,513.7439757089596,514.7433296248782,200004,005,2023-03-31_11h25.59.057,DMS_et_12-36,2022.2.4,None,
72,PRED,12,0.5818865272372324,1,images/picture_2.png,images/picture_1.png,0,"[11.733433509789462, -11.733433509789466]",11.733433509789462,-11.733433509789464,images/picture_2.png,1,"[11.733433509789464, 11.733433509789462]",11.733433509789464,11.733433509789462,images/picture_3.png,2,"[-11.733433509789466, -11.733433509789462]",-11.733433509789464,-11.733433509789462,0,1,1,0.5818865272372324,1.5818865272372324,1.4181134727627676,3.0,1,1.3318865272372324,0,4.0,3.0,1,2,8,0,8,0,0,1,1,0,,,,,,,514.7433296248782,514.7433296248782,515.7434350838885,516.0768158340361,516.3288576670457,516.3288576670457,516.3288576670457,517.7435620839242,517.7435620839242,517.7435620839242,517.7435620839242,518.7435130840167,200004,005,2023-03-31_11h25.59.057,DMS_et_12-36,2022.2.4,None,
77,PRED,12,0.5818865272372324,1,images/picture_2.png,images/picture_1.png,0,"[11.733433509789464, 11.733433509789462]",11.733433509789464,11.733433509789462,images/picture_2.png,1,"[-11.733433509789466, -11.733433509789462]",-11.733433509789464,-11.733433509789462,images/picture_3.png,2,"[-11.733433509789462, 11.733433509789464]",-11.733433509789462,11.733433509789464,0,1,1,0.5818865272372324,1.5818865272372324,1.4181134727627676,3.0,1,1.3318865272372324,0,4.0,3.0,1,2,8,0,8,0,0,2,2,5,,,,,,,518.7435130840167,518.7435130840167,519.7437605839223,520.0771873749327,520.3105189169291,520.3105189169291,520.3105189169291,521.7438376250211,521.7438376250211,521.7438376250211,521.7438376250211,522.7432157499716,200004,005,2023-03-31_11h25.59.057,DMS_et_12-36,2022.2.4,None,
79,PRED,12,0.5818865272372324,1,images/picture_2.png,images/picture_1.png,0,"[-11.733433509789462, 11.733433509789464]",-11.733433509789462,11.733433509789464,images/picture_2.png,1,"[-11.733433509789466, -11.733433509789462]",-11.733433509789464,-11.733433509789462,images/picture_3.png,2,"[11.733433509789462, -11.733433509789466]",11.733433509789462,-11.733433509789464,0,1,1,0.5818865272372324,1.5818865272372324,1.4181134727627676,3.0,1,1.3318865272372324,0,4.0,3.0,1,2,8,0,8,0,0,3,3,7,,,,,,,522.7432157499716,522.7432157499716,523.7438108338974,524.0770612920169,524.3104802088346,524.3104802088346,524.3104802088346,525.7438167920336,525.7438167920336,525.7438167920336,525.7438167920336,526.7438051670324,200004,005,2023-03-31_11h25.59.057,DMS_et_12-36,2022.2.4,None,
80,PRED,12,0.5818865272372324,1,images/picture_2.png,images/picture_1.png,0,"[11.733433509789462, -11.733433509789466]",11.733433509789462,-11.733433509789464,images/picture_2.png,1,"[-11.733433509789466, -11.733433509789462]",-11.733433509789464,-11.733433509789462,images/picture_3.png,2,"[11.733433509789464, 11.733433509789462]",11.733433509789464,11.733433509789462,0,1,1,0.5818865272372324,1.5818865272372324,1.4181134727627676,3.0,1,1.3318865272372324,0,4.0,3.0,1,2,8,0,8,0,0,4,4,8,,,,,,,526.7438051670324,526.7438051670324,527.7438402089756,528.076864083996,528.3290406670421,528.3290406670421,528.3290406670421,529.743824249832,529.743824249832,529.743824249832,529.743824249832,530.7432196668815,200004,005,2023-03-31_11h25.59.057,DMS_et_12-36,2022.2.4,None,
74,PRED,12,0.5818865272372324,1,images/picture_2.png,images/picture_1.png,0,"[11.733433509789464, 11.733433509789462]",11.733433509789464,11.733433509789462,images/picture_2.png,1,"[11.733433509789462, -11.733433509789466]",11.733433509789462,-11.733433509789464,images/picture_3.png,2,"[-11.733433509789462, 11.733433509789464]",-11.733433509789462,11.733433509789464,0,1,1,0.5818865272372324,1.5818865272372324,1.4181134727627676,3.0,1,1.3318865272372324,0,4.0,3.0,1,2,8,0,8,0,0,5,5,2,,,,,,,530.7432196668815,530.7432196668815,531.7438697498292,532.0771754169837,532.3103495000396,532.3103495000396,532.3103495000396,533.7438252919819,533.7438252919819,533.7438252919819,533.7438252919819,534.7433942088392,200004,005,2023-03-31_11h25.59.057,DMS_et_12-36,2022.2.4,None,
78,PRED,12,0.5818865272372324,1,images/picture_2.png,images/picture_1.png,0,"[-11.733433509789462, 11.733433509789464]",-11.733433509789462,11.733433509789464,images/picture_2.png,1,"[11.733433509789464, 11.733433509789462]",11.733433509789464,11.733433509789462,images/picture_3.png,2,"[-11.733433509789466, -11.733433509789462]",-11.733433509789464,-11.733433509789462,0,1,1,0.5818865272372324,1.5818865272372324,1.4181134727627676,3.0,1,1.3318865272372324,0,4.0,3.0,1,2,8,0,8,0,0,6,6,6,,,,,,,534.7433942088392,534.7433942088392,535.7437780420296,536.0772359999828,536.3105006669648,536.3105006669648,536.3105006669648,537.7438257499598,537.7438257499598,537.7438257499598,537.7438257499598,538.7434622088913,200004,005,2023-03-31_11h25.59.057,DMS_et_12-36,2022.2.4,None,
76,PRED,12,0.5818865272372324,1,images/picture_2.png,images/picture_1.png,0,"[11.733433509789462, -11.733433509789466]",11.733433509789462,-11.733433509789464,images/picture_2.png,1,"[-11.733433509789462, 11.733433509789464]",-11.733433509789462,11.733433509789464,images/picture_3.png,2,"[11.733433509789464, 11.733433509789462]",11.733433509789464,11.733433509789462,0,1,1,0.5818865272372324,1.5818865272372324,1.4181134727627676,3.0,1,1.3318865272372324,0,4.0,3.0,1,2,8,0,8,0,0,7,7,4,,,,,,,538.7434622088913,538.7434622088913,539.7437877089251,540.077267791843,540.3105133748613,540.3105133748613,540.3105133748613,541.7438891669735,541.7438891669735,541.7438891669735,541.7438891669735,542.7431717498694,200004,005,2023-03-31_11h25.59.057,DMS_et_12-36,2022.2.4,None,
73,PRED,12,0.5818865272372324,1,images/picture_2.png,images/picture_1.png,0,"[11.733433509789464, 11.733433509789462]",11.733433509789464,11.733433509789462,images/picture_2.png,1,"[-11.733433509789466, -11.733433509789462]",-11.733433509789464,-11.733433509789462,images/picture_3.png,2,"[-11.733433509789462, 11.733433509789464]",-11.733433509789462,11.733433509789464,0,1,1,0.5818865272372324,1.5818865272372324,1.4181134727627676,3.0,1,1.3318865272372324,0,4.0,3.0,1,2,8,0,8,0,0,8,8,1,,,,,,,542.7431717498694,542.7431717498694,543.7437943748664,544.0773749588989,544.310513125034,544.310513125034,544.310513125034,545.7437972920015,545.7437972920015,545.7437972920015,545.7437972920015,546.8449144170154,200004,005,2023-03-31_11h25.59.057,DMS_et_12-36,2022.2.4,None,
,,,,,,,,,,,,,,,,,,,,,,,,,,,,,,,,,,,8,0,8,0,,,,,,,,,546.8449144170154,558.8625406669453,,,,,,,,,,,,,200004,005,2023-03-31_11h25.59.057,DMS_et_12-36,2022.2.4,None,
85,UNPRED,12,0.5818865272372324,2,images/picture_3.png,images/picture_1.png,0,"[11.733433509789462, -11.733433509789466]",11.733433509789462,-11.733433509789464,images/picture_2.png,1,"[-11.733433509789466, -11.733433509789462]",-11.733433509789464,-11.733433509789462,images/picture_3.png,2,"[11.733433509789464, 11.733433509789462]",11.733433509789464,11.733433509789462,0,1,1,0.5818865272372324,1.5818865272372324,1.4181134727627676,3.0,1,1.3318865272372324,0,4.0,3.0,1,2,9,0,9,0,0,0,0,4,,,,,,,558.8625406669453,558.8625406669453,559.877034541918,560.1967205419205,560.4298180839978,560.4298180839978,560.4298180839978,561.8437575839926,561.863260333892,561.863260333892,561.863260333892,562.8435418340378,200004,005,2023-03-31_11h25.59.057,DMS_et_12-36,2022.2.4,None,
82,UNPRED,12,0.5818865272372324,0,images/picture_1.png,images/picture_1.png,0,"[11.733433509789462, -11.733433509789466]",11.733433509789462,-11.733433509789464,images/picture_2.png,1,"[11.733433509789464, 11.733433509789462]",11.733433509789464,11.733433509789462,images/picture_3.png,2,"[-11.733433509789462, 11.733433509789464]",-11.733433509789462,11.733433509789464,0,1,1,0.5818865272372324,1.5818865272372324,1.4181134727627676,3.0,1,1.3318865272372324,0,4.0,3.0,1,2,9,0,9,0,0,1,1,1,,,,,,,562.8435418340378,562.8435418340378,563.843749291962,564.1772460420616,564.4105304998811,564.4105304998811,564.4105304998811,565.8437865418382,565.8437865418382,565.8437865418382,565.8437865418382,566.8434958748985,200004,005,2023-03-31_11h25.59.057,DMS_et_12-36,2022.2.4,None,
84,UNPRED,12,0.5818865272372324,0,images/picture_1.png,images/picture_1.png,0,"[-11.733433509789462, 11.733433509789464]",-11.733433509789462,11.733433509789464,images/picture_2.png,1,"[11.733433509789464, 11.733433509789462]",11.733433509789464,11.733433509789462,images/picture_3.png,2,"[11.733433509789462, -11.733433509789466]",11.733433509789462,-11.733433509789464,0,1,1,0.5818865272372324,1.5818865272372324,1.4181134727627676,3.0,1,1.3318865272372324,0,4.0,3.0,1,2,9,0,9,0,0,2,2,3,,,,,,,566.8434958748985,566.8434958748985,567.8437629998662,568.177086916985,568.4103013339918,568.4103013339918,568.4103013339918,569.8435048339888,569.8435048339888,569.8435048339888,569.8435048339888,570.8435995839536,200004,005,2023-03-31_11h25.59.057,DMS_et_12-36,2022.2.4,None,
89,UNPRED,12,0.5818865272372324,1,images/picture_2.png,images/picture_1.png,0,"[-11.733433509789462, 11.733433509789464]",-11.733433509789462,11.733433509789464,images/picture_2.png,1,"[11.733433509789462, -11.733433509789466]",11.733433509789462,-11.733433509789464,images/picture_3.png,2,"[11.733433509789464, 11.733433509789462]",11.733433509789464,11.733433509789462,0,1,1,0.5818865272372324,1.5818865272372324,1.4181134727627676,3.0,1,1.3318865272372324,0,4.0,3.0,1,2,9,0,9,0,0,3,3,8,,,,,,,570.8435995839536,570.8435995839536,571.8438327920157,572.1769929998554,572.4105507088825,572.4105507088825,572.4105507088825,573.843841166934,573.843841166934,573.843841166934,573.843841166934,574.8429587499704,200004,005,2023-03-31_11h25.59.057,DMS_et_12-36,2022.2.4,None,
83,UNPRED,12,0.5818865272372324,0,images/picture_1.png,images/picture_1.png,0,"[-11.733433509789466, -11.733433509789462]",-11.733433509789464,-11.733433509789462,images/picture_2.png,1,"[-11.733433509789462, 11.733433509789464]",-11.733433509789462,11.733433509789464,images/picture_3.png,2,"[11.733433509789462, -11.733433509789466]",11.733433509789462,-11.733433509789464,0,1,1,0.5818865272372324,1.5818865272372324,1.4181134727627676,3.0,1,1.3318865272372324,0,4.0,3.0,1,2,9,0,9,0,0,4,4,2,,,,,,,574.8429587499704,574.8429587499704,575.8437688748818,576.1772512500174,576.4105605420191,576.4105605420191,576.4105605420191,577.8437899169512,577.8437899169512,577.8437899169512,577.8437899169512,578.8424407499842,200004,005,2023-03-31_11h25.59.057,DMS_et_12-36,2022.2.4,None,
87,UNPRED,12,0.5818865272372324,1,images/picture_2.png,images/picture_1.png,0,"[11.733433509789462, -11.733433509789466]",11.733433509789462,-11.733433509789464,images/picture_2.png,1,"[11.733433509789464, 11.733433509789462]",11.733433509789464,11.733433509789462,images/picture_3.png,2,"[-11.733433509789466, -11.733433509789462]",-11.733433509789464,-11.733433509789462,0,1,1,0.5818865272372324,1.5818865272372324,1.4181134727627676,3.0,1,1.3318865272372324,0,4.0,3.0,1,2,9,0,9,0,0,5,5,6,,,,,,,578.8424407499842,578.8424407499842,579.8438069168478,580.1769387088716,580.4288944590371,580.4288944590371,580.4288944590371,581.843983958941,581.843983958941,581.843983958941,581.843983958941,582.8427802920341,200004,005,2023-03-31_11h25.59.057,DMS_et_12-36,2022.2.4,None,
88,UNPRED,12,0.5818865272372324,0,images/picture_1.png,images/picture_1.png,0,"[11.733433509789464, 11.733433509789462]",11.733433509789464,11.733433509789462,images/picture_2.png,1,"[11.733433509789462, -11.733433509789466]",11.733433509789462,-11.733433509789464,images/picture_3.png,2,"[-11.733433509789462, 11.733433509789464]",-11.733433509789462,11.733433509789464,0,1,1,0.5818865272372324,1.5818865272372324,1.4181134727627676,3.0,1,1.3318865272372324,0,4.0,3.0,1,2,9,0,9,0,0,6,6,7,,,,,,,582.8427802920341,582.8427802920341,583.8438423338812,584.1770722500514,584.4105470839422,584.4105470839422,584.4105470839422,585.8438204168342,585.8438204168342,585.8438204168342,585.8438204168342,586.8624226669781,200004,005,2023-03-31_11h25.59.057,DMS_et_12-36,2022.2.4,None,
86,UNPRED,12,0.5818865272372324,2,images/picture_3.png,images/picture_1.png,0,"[-11.733433509789466, -11.733433509789462]",-11.733433509789464,-11.733433509789462,images/picture_2.png,1,"[-11.733433509789462, 11.733433509789464]",-11.733433509789462,11.733433509789464,images/picture_3.png,2,"[11.733433509789464, 11.733433509789462]",11.733433509789464,11.733433509789462,0,1,1,0.5818865272372324,1.5818865272372324,1.4181134727627676,3.0,1,1.3318865272372324,0,4.0,3.0,1,2,9,0,9,0,0,7,7,5,,,,,,,586.8624226669781,586.8624226669781,587.8772628339939,588.1965504589025,588.4104542499408,588.4104542499408,588.4104542499408,589.8434535418637,589.8434535418637,589.8434535418637,589.8434535418637,590.8447818339337,200004,005,2023-03-31_11h25.59.057,DMS_et_12-36,2022.2.4,None,
81,UNPRED,12,0.5818865272372324,1,images/picture_2.png,images/picture_1.png,0,"[-11.733433509789466, -11.733433509789462]",-11.733433509789464,-11.733433509789462,images/picture_2.png,1,"[11.733433509789464, 11.733433509789462]",11.733433509789464,11.733433509789462,images/picture_3.png,2,"[11.733433509789462, -11.733433509789466]",11.733433509789462,-11.733433509789464,0,1,1,0.5818865272372324,1.5818865272372324,1.4181134727627676,3.0,1,1.3318865272372324,0,4.0,3.0,1,2,9,0,9,0,0,8,8,0,,,,,,,590.8447818339337,590.8447818339337,591.8438604590483,592.1770791669842,592.4104883749969,592.4104883749969,592.4104883749969,593.8437647500541,593.8437647500541,593.8437647500541,593.8437647500541,594.95040504192,200004,005,2023-03-31_11h25.59.057,DMS_et_12-36,2022.2.4,None,
,,,,,,,,,,,,,,,,,,,,,,,,,,,,,,,,,,,9,0,9,0,,,,,,,,,594.95040504192,606.9939716248773,,,,,,,,,,,,,200004,005,2023-03-31_11h25.59.057,DMS_et_12-36,2022.2.4,None,
90,PRED,12,0.5818865272372324,2,images/picture_3.png,images/picture_1.png,0,"[-11.733433509789466, -11.733433509789462]",-11.733433509789464,-11.733433509789462,images/picture_2.png,1,"[11.733433509789462, -11.733433509789466]",11.733433509789462,-11.733433509789464,images/picture_3.png,2,"[11.733433509789464, 11.733433509789462]",11.733433509789464,11.733433509789462,0,1,1,0.5818865272372324,1.5818865272372324,1.4181134727627676,3.0,1,1.3318865272372324,0,4.0,3.0,1,2,10,0,10,0,0,0,0,0,,,,,,,606.9939716248773,606.9939716248773,607.9969863339793,608.3298772920389,608.5628262090031,608.5628262090031,608.5628262090031,609.9769559169654,609.9958053750452,609.9958053750452,609.9958053750452,610.9961066669784,200004,005,2023-03-31_11h25.59.057,DMS_et_12-36,2022.2.4,None,
94,PRED,12,0.5818865272372324,2,images/picture_3.png,images/picture_1.png,0,"[11.733433509789462, -11.733433509789466]",11.733433509789462,-11.733433509789464,images/picture_2.png,1,"[-11.733433509789466, -11.733433509789462]",-11.733433509789464,-11.733433509789462,images/picture_3.png,2,"[11.733433509789464, 11.733433509789462]",11.733433509789464,11.733433509789462,0,1,1,0.5818865272372324,1.5818865272372324,1.4181134727627676,3.0,1,1.3318865272372324,0,4.0,3.0,1,2,10,0,10,0,0,1,1,4,,,,,,,610.9961066669784,610.9961066669784,612.0100714999717,612.3433787920512,612.5434692918789,612.5434692918789,612.5434692918789,613.9771287918556,613.9771287918556,613.9771287918556,613.9771287918556,614.995766249951,200004,005,2023-03-31_11h25.59.057,DMS_et_12-36,2022.2.4,None,
95,PRED,12,0.5818865272372324,2,images/picture_3.png,images/picture_1.png,0,"[11.733433509789464, 11.733433509789462]",11.733433509789464,11.733433509789462,images/picture_2.png,1,"[11.733433509789462, -11.733433509789466]",11.733433509789462,-11.733433509789464,images/picture_3.png,2,"[-11.733433509789462, 11.733433509789464]",-11.733433509789462,11.733433509789464,0,1,1,0.5818865272372324,1.5818865272372324,1.4181134727627676,3.0,1,1.3318865272372324,0,4.0,3.0,1,2,10,0,10,0,0,2,2,5,,,,,,,614.995766249951,614.995766249951,616.0105603749398,616.3296922498848,616.5438488749787,616.5438488749787,616.5438488749787,617.9772067498416,617.9772067498416,617.9772067498416,617.9772067498416,618.9956308340188,200004,005,2023-03-31_11h25.59.057,DMS_et_12-36,2022.2.4,None,
97,PRED,12,0.5818865272372324,2,images/picture_3.png,images/picture_1.png,0,"[11.733433509789464, 11.733433509789462]",11.733433509789464,11.733433509789462,images/picture_2.png,1,"[-11.733433509789462, 11.733433509789464]",-11.733433509789462,11.733433509789464,images/picture_3.png,2,"[11.733433509789462, -11.733433509789466]",11.733433509789462,-11.733433509789464,0,1,1,0.5818865272372324,1.5818865272372324,1.4181134727627676,3.0,1,1.3318865272372324,0,4.0,3.0,1,2,10,0,10,0,0,3,3,7,,,,,,,618.9956308340188,618.9956308340188,620.0104204169475,620.3291014588904,620.5624647920486,620.5624647920486,620.5624647920486,621.9769279588945,621.9769279588945,621.9769279588945,621.9769279588945,622.995986541966,200004,005,2023-03-31_11h25.59.057,DMS_et_12-36,2022.2.4,None,
91,PRED,12,0.5818865272372324,2,images/picture_3.png,images/picture_1.png,0,"[11.733433509789462, -11.733433509789466]",11.733433509789462,-11.733433509789464,images/picture_2.png,1,"[-11.733433509789462, 11.733433509789464]",-11.733433509789462,11.733433509789464,images/picture_3.png,2,"[11.733433509789464, 11.733433509789462]",11.733433509789464,11.733433509789462,0,1,1,0.5818865272372324,1.5818865272372324,1.4181134727627676,3.0,1,1.3318865272372324,0,4.0,3.0,1,2,10,0,10,0,0,4,4,1,,,,,,,622.995986541966,622.995986541966,624.010584292002,624.3298575419467,624.543865625048,624.543865625048,624.543865625048,625.9770858339034,625.9770858339034,625.9770858339034,625.9770858339034,626.9959132920485,200004,005,2023-03-31_11h25.59.057,DMS_et_12-36,2022.2.4,None,
93,PRED,12,0.5818865272372324,2,images/picture_3.png,images/picture_1.png,0,"[-11.733433509789462, 11.733433509789464]",-11.733433509789462,11.733433509789464,images/picture_2.png,1,"[11.733433509789462, -11.733433509789466]",11.733433509789462,-11.733433509789464,images/picture_3.png,2,"[11.733433509789464, 11.733433509789462]",11.733433509789464,11.733433509789462,0,1,1,0.5818865272372324,1.5818865272372324,1.4181134727627676,3.0,1,1.3318865272372324,0,4.0,3.0,1,2,10,0,10,0,0,5,5,3,,,,,,,626.9959132920485,626.9959132920485,628.0104419169948,628.329873458948,628.5440919168759,628.5440919168759,628.5440919168759,629.9773256250191,629.9773256250191,629.9773256250191,629.9773256250191,630.9958618339151,200004,005,2023-03-31_11h25.59.057,DMS_et_12-36,2022.2.4,None,
98,PRED,12,0.5818865272372324,2,images/picture_3.png,images/picture_1.png,0,"[11.733433509789464, 11.733433509789462]",11.733433509789464,11.733433509789462,images/picture_2.png,1,"[-11.733433509789462, 11.733433509789464]",-11.733433509789462,11.733433509789464,images/picture_3.png,2,"[11.733433509789462, -11.733433509789466]",11.733433509789462,-11.733433509789464,0,1,1,0.5818865272372324,1.5818865272372324,1.4181134727627676,3.0,1,1.3318865272372324,0,4.0,3.0,1,2,10,0,10,0,0,6,6,8,,,,,,,630.9958618339151,630.9958618339151,632.0105996669736,632.3299034589436,632.5625867089257,632.5625867089257,632.5625867089257,633.9767752918415,633.9767752918415,633.9767752918415,633.9767752918415,634.995977750048,200004,005,2023-03-31_11h25.59.057,DMS_et_12-36,2022.2.4,None,
96,PRED,12,0.5818865272372324,2,images/picture_3.png,images/picture_1.png,0,"[11.733433509789464, 11.733433509789462]",11.733433509789464,11.733433509789462,images/picture_2.png,1,"[-11.733433509789462, 11.733433509789464]",-11.733433509789462,11.733433509789464,images/picture_3.png,2,"[-11.733433509789466, -11.733433509789462]",-11.733433509789464,-11.733433509789462,0,1,1,0.5818865272372324,1.5818865272372324,1.4181134727627676,3.0,1,1.3318865272372324,0,4.0,3.0,1,2,10,0,10,0,0,7,7,6,,,,,,,634.995977750048,634.995977750048,636.0103581249714,636.3299889168702,636.543866291875,636.543866291875,636.543866291875,637.977146374993,637.977146374993,637.977146374993,637.977146374993,638.9958179169334,200004,005,2023-03-31_11h25.59.057,DMS_et_12-36,2022.2.4,None,
92,PRED,12,0.5818865272372324,2,images/picture_3.png,images/picture_1.png,0,"[11.733433509789462, -11.733433509789466]",11.733433509789462,-11.733433509789464,images/picture_2.png,1,"[-11.733433509789462, 11.733433509789464]",-11.733433509789462,11.733433509789464,images/picture_3.png,2,"[-11.733433509789466, -11.733433509789462]",-11.733433509789464,-11.733433509789462,0,1,1,0.5818865272372324,1.5818865272372324,1.4181134727627676,3.0,1,1.3318865272372324,0,4.0,3.0,1,2,10,0,10,0,0,8,8,2,,,,,,,638.9958179169334,638.9958179169334,640.0106151248328,640.3296878340188,640.5437927090097,640.5437927090097,640.5437927090097,641.9770694999024,641.9770694999024,641.9770694999024,641.9770694999024,643.0878168339841,200004,005,2023-03-31_11h25.59.057,DMS_et_12-36,2022.2.4,None,
,,,,,,,,,,,,,,,,,,,,,,,,,,,,,,,,,,,10,0,10,0,,,,,,,,,643.0878168339841,655.113473916892,,,,,,,,,,,,,200004,005,2023-03-31_11h25.59.057,DMS_et_12-36,2022.2.4,None,
106,UNPRED,12,0.5818865272372324,0,images/picture_1.png,images/picture_1.png,0,"[11.733433509789464, 11.733433509789462]",11.733433509789464,11.733433509789462,images/picture_2.png,1,"[-11.733433509789466, -11.733433509789462]",-11.733433509789464,-11.733433509789462,images/picture_3.png,2,"[11.733433509789462, -11.733433509789466]",11.733433509789462,-11.733433509789464,0,1,1,0.5818865272372324,1.5818865272372324,1.4181134727627676,3.0,1,1.3318865272372324,0,4.0,3.0,1,2,11,0,11,0,0,0,0,7,,,,,,,655.113473916892,655.113473916892,656.1104643340223,656.4438712920528,656.6965461249929,656.6965461249929,656.6965461249929,658.1106149170082,658.1297105420381,658.1297105420381,658.1297105420381,659.1100695838686,200004,005,2023-03-31_11h25.59.057,DMS_et_12-36,2022.2.4,None,
104,UNPRED,12,0.5818865272372324,0,images/picture_1.png,images/picture_1.png,0,"[-11.733433509789462, 11.733433509789464]",-11.733433509789462,11.733433509789464,images/picture_2.png,1,"[-11.733433509789466, -11.733433509789462]",-11.733433509789464,-11.733433509789462,images/picture_3.png,2,"[11.733433509789462, -11.733433509789466]",11.733433509789462,-11.733433509789464,0,1,1,0.5818865272372324,1.5818865272372324,1.4181134727627676,3.0,1,1.3318865272372324,0,4.0,3.0,1,2,11,0,11,0,0,1,1,5,,,,,,,659.1100695838686,659.1100695838686,660.1106355418451,660.4438028340228,660.6772854588926,660.6772854588926,660.6772854588926,662.1105588749051,662.1105588749051,662.1105588749051,662.1105588749051,663.1099459589459,200004,005,2023-03-31_11h25.59.057,DMS_et_12-36,2022.2.4,None,
102,UNPRED,12,0.5818865272372324,0,images/picture_1.png,images/picture_1.png,0,"[11.733433509789462, -11.733433509789466]",11.733433509789462,-11.733433509789464,images/picture_2.png,1,"[-11.733433509789462, 11.733433509789464]",-11.733433509789462,11.733433509789464,images/picture_3.png,2,"[-11.733433509789466, -11.733433509789462]",-11.733433509789464,-11.733433509789462,0,1,1,0.5818865272372324,1.5818865272372324,1.4181134727627676,3.0,1,1.3318865272372324,0,4.0,3.0,1,2,11,0,11,0,0,2,2,3,,,,,,,663.1099459589459,663.1099459589459,664.1105963338632,664.4438135840464,664.6974875838496,664.6974875838496,664.6974875838496,666.110549459001,666.1297829998657,666.1297829998657,666.1297829998657,667.1100869169459,200004,005,2023-03-31_11h25.59.057,DMS_et_12-36,2022.2.4,None,
101,UNPRED,12,0.5818865272372324,1,images/picture_2.png,images/picture_1.png,0,"[-11.733433509789466, -11.733433509789462]",-11.733433509789464,-11.733433509789462,images/picture_2.png,1,"[11.733433509789464, 11.733433509789462]",11.733433509789464,11.733433509789462,images/picture_3.png,2,"[11.733433509789462, -11.733433509789466]",11.733433509789462,-11.733433509789464,0,1,1,0.5818865272372324,1.5818865272372324,1.4181134727627676,3.0,1,1.3318865272372324,0,4.0,3.0,1,2,11,0,11,0,0,3,3,2,,,,,,,667.1100869169459,667.1100869169459,668.1105501248967,668.4438663339242,668.6770494170487,668.6770494170487,668.6770494170487,670.1103924170602,670.1103924170602,670.1103924170602,670.1103924170602,671.1099277499598,200004,005,2023-03-31_11h25.59.057,DMS_et_12-36,2022.2.4,None,
99,UNPRED,12,0.5818865272372324,1,images/picture_2.png,images/picture_1.png,0,"[-11.733433509789462, 11.733433509789464]",-11.733433509789462,11.733433509789464,images/picture_2.png,1,"[11.733433509789464, 11.733433509789462]",11.733433509789464,11.733433509789462,images/picture_3.png,2,"[-11.733433509789466, -11.733433509789462]",-11.733433509789464,-11.733433509789462,0,1,1,0.5818865272372324,1.5818865272372324,1.4181134727627676,3.0,1,1.3318865272372324,0,4.0,3.0,1,2,11,0,11,0,0,4,4,0,,,,,,,671.1099277499598,671.1099277499598,672.1102060419507,672.4435369998682,672.6959691250231,672.6959691250231,672.6959691250231,674.1105296669994,674.1297940840013,674.1297940840013,674.1297940840013,675.1099997500423,200004,005,2023-03-31_11h25.59.057,DMS_et_12-36,2022.2.4,None,
100,UNPRED,12,0.5818865272372324,1,images/picture_2.png,images/picture_1.png,0,"[-11.733433509789462, 11.733433509789464]",-11.733433509789462,11.733433509789464,images/picture_2.png,1,"[11.733433509789462, -11.733433509789466]",11.733433509789462,-11.733433509789464,images/picture_3.png,2,"[-11.733433509789466, -11.733433509789462]",-11.733433509789464,-11.733433509789462,0,1,1,0.5818865272372324,1.5818865272372324,1.4181134727627676,3.0,1,1.3318865272372324,0,4.0,3.0,1,2,11,0,11,0,0,5,5,1,,,,,,,675.1099997500423,675.1099997500423,676.1101869589183,676.4435491668992,676.6769564589486,676.6769564589486,676.6769564589486,678.11038774997,678.11038774997,678.11038774997,678.11038774997,679.1292022089474,200004,005,2023-03-31_11h25.59.057,DMS_et_12-36,2022.2.4,None,
105,UNPRED,12,0.5818865272372324,2,images/picture_3.png,images/picture_1.png,0,"[11.733433509789464, 11.733433509789462]",11.733433509789464,11.733433509789462,images/picture_2.png,1,"[-11.733433509789462, 11.733433509789464]",-11.733433509789462,11.733433509789464,images/picture_3.png,2,"[-11.733433509789466, -11.733433509789462]",-11.733433509789464,-11.733433509789462,0,1,1,0.5818865272372324,1.5818865272372324,1.4181134727627676,3.0,1,1.3318865272372324,0,4.0,3.0,1,2,11,0,11,0,0,6,6,6,,,,,,,679.1292022089474,679.1292022089474,680.1437917088624,680.4634225838818,680.6772843748331,680.6772843748331,680.6772843748331,682.1100109589752,682.1100109589752,682.1100109589752,682.1100109589752,683.1097129590344,200004,005,2023-03-31_11h25.59.057,DMS_et_12-36,2022.2.4,None,
103,UNPRED,12,0.5818865272372324,0,images/picture_1.png,images/picture_1.png,0,"[11.733433509789464, 11.733433509789462]",11.733433509789464,11.733433509789462,images/picture_2.png,1,"[-11.733433509789466, -11.733433509789462]",-11.733433509789464,-11.733433509789462,images/picture_3.png,2,"[-11.733433509789462, 11.733433509789464]",-11.733433509789462,11.733433509789464,0,1,1,0.5818865272372324,1.5818865272372324,1.4181134727627676,3.0,1,1.3318865272372324,0,4.0,3.0,1,2,11,0,11,0,0,7,7,4,,,,,,,683.1097129590344,683.1097129590344,684.1105627089273,684.4438295420259,684.6770269169938,684.6770269169938,684.6770269169938,686.1105644998606,686.1105644998606,686.1105644998606,686.1105644998606,687.1100439999718,200004,005,2023-03-31_11h25.59.057,DMS_et_12-36,2022.2.4,None,
107,UNPRED,12,0.5818865272372324,0,images/picture_1.png,images/picture_1.png,0,"[11.733433509789462, -11.733433509789466]",11.733433509789462,-11.733433509789464,images/picture_2.png,1,"[-11.733433509789462, 11.733433509789464]",-11.733433509789462,11.733433509789464,images/picture_3.png,2,"[-11.733433509789466, -11.733433509789462]",-11.733433509789464,-11.733433509789462,0,1,1,0.5818865272372324,1.5818865272372324,1.4181134727627676,3.0,1,1.3318865272372324,0,4.0,3.0,1,2,11,0,11,0,0,8,8,8,,,,,,,687.1100439999718,687.1100439999718,688.1103902920149,688.443802291993,688.6770948339254,688.6770948339254,688.6770948339254,690.110536208842,690.110536208842,690.110536208842,690.110536208842,691.2760334589984,200004,005,2023-03-31_11h25.59.057,DMS_et_12-36,2022.2.4,None,
,,,,,,,,,,,,,,,,,,,,,,,,,,,,,,,,,,,11,0,11,0,,,,,,,,,691.2760334589984,703.392257333966,,,,,,,,,,,,,200004,005,2023-03-31_11h25.59.057,DMS_et_12-36,2022.2.4,None,
,,,,,,,,,,,,,,,,,,,,,,,,,,,,,,,,,,,,,,,,,,,,,,,703.392257333966,715.9184414169285,,,,,,,,,,,,,,,,,,,
