trial_count,blockType,blockNum,delay_time,stimImage_i,stimImage,responseImage1,responseImage1_i,responseImage1_pos,responseImage1_X,responseImage1_Y,responseImage2,responseImage2_i,responseImage2_pos,responseImage2_X,responseImage2_Y,responseImage3,responseImage3_i,responseImage3_pos,responseImage3_X,responseImage3_Y,cue_onset,cue_dur,delay_onset,delay_dur,resp_onset,resp_dur,rest_onset,rest_dur,circle_dur,circle_onset,total_dur,cross_onset,cross_dur,delay_resp_period,blocks.thisRepN,blocks.thisTrialN,blocks.thisN,blocks.thisIndex,trials.thisRepN,trials.thisTrialN,trials.thisN,trials.thisIndex,key_resp.started,text.started,key_resp.keys,key_resp.rt,text_2.started,text_2.stopped,etRecord.started,sample.started,Delay.started,sample.stopped,Response_1.started,Response_2.started,Response_3.started,Delay.stopped,Response_1.stopped,Response_2.stopped,Response_3.stopped,polygon.started,polygon.stopped,etRecord.stopped,participant,session,date,expName,psychopyVersion,frameRate,
,,,,,,,,,,,,,,,,,,,,,,,,,,,,,,,,,,,,,,,,,,,125.1094703329727,125.1094703329727,t,54.799660541000776,,,,,,,,,,,,,,,,,200003,005,2023-03-22_13h42.39.431,DMS_et_12-36,2022.2.4,None,
3,PRED,12,1.114010525684081,1,images/picture_2.png,images/picture_1.png,0,"[11.733433509789462, -11.733433509789466]",11.733433509789462,-11.733433509789464,images/picture_2.png,1,"[11.733433509789464, 11.733433509789462]",11.733433509789464,11.733433509789462,images/picture_3.png,2,"[-11.733433509789466, -11.733433509789462]",-11.733433509789464,-11.733433509789462,0,1,1,1.114010525684081,2.114010525684081,0.8859894743159189,3.0,1,1.864010525684081,0,4.0,3.0,1,2,0,0,0,0,0,0,0,3,,,,,179.9198967500124,192.50570541596971,0.006174582988023758,192.50570541596971,192.50570541596971,193.5201871659374,194.0531914579915,194.0531914579915,194.0531914579915,194.37294124998152,194.9533018330112,194.9533018330112,194.9533018330112,194.9533018330112,195.95314474997576,4.566512624965981,200003,005,2023-03-22_13h42.39.431,DMS_et_12-36,2022.2.4,None,
6,PRED,12,1.114010525684081,1,images/picture_2.png,images/picture_1.png,0,"[-11.733433509789462, 11.733433509789464]",-11.733433509789462,11.733433509789464,images/picture_2.png,1,"[11.733433509789464, 11.733433509789462]",11.733433509789464,11.733433509789462,images/picture_3.png,2,"[11.733433509789462, -11.733433509789466]",11.733433509789462,-11.733433509789464,0,1,1,1.114010525684081,2.114010525684081,0.8859894743159189,3.0,1,1.864010525684081,0,4.0,3.0,1,2,0,0,0,0,0,1,1,6,,,,,,,0.006485083024017513,197.53896545793395,197.53896545793395,198.55342174996622,199.14025133301038,199.14025133301038,199.14025133301038,199.40678391593974,200.03992466593627,200.03992466593627,200.03992466593627,200.02015662495978,201.019965665997,4.526074417051859,200003,005,2023-03-22_13h42.39.431,DMS_et_12-36,2022.2.4,None,
1,PRED,12,1.114010525684081,1,images/picture_2.png,images/picture_1.png,0,"[-11.733433509789462, 11.733433509789464]",-11.733433509789462,11.733433509789464,images/picture_2.png,1,"[11.733433509789462, -11.733433509789466]",11.733433509789462,-11.733433509789464,images/picture_3.png,2,"[11.733433509789464, 11.733433509789462]",11.733433509789464,11.733433509789462,0,1,1,1.114010525684081,2.114010525684081,0.8859894743159189,3.0,1,1.864010525684081,0,4.0,3.0,1,2,0,0,0,0,0,2,2,1,,,,,,,0.006501832976937294,202.5756654579891,202.5756654579891,203.58686874993145,204.17354812496342,204.17354812496342,204.17354812496342,204.45345362497028,205.0732342909323,205.0732342909323,205.0732342909323,205.05341970792506,206.05321670800913,4.525256208027713,200003,005,2023-03-22_13h42.39.431,DMS_et_12-36,2022.2.4,None,
5,PRED,12,1.114010525684081,1,images/picture_2.png,images/picture_1.png,0,"[11.733433509789462, -11.733433509789466]",11.733433509789462,-11.733433509789464,images/picture_2.png,1,"[-11.733433509789466, -11.733433509789462]",-11.733433509789464,-11.733433509789462,images/picture_3.png,2,"[11.733433509789464, 11.733433509789462]",11.733433509789464,11.733433509789462,0,1,1,1.114010525684081,2.114010525684081,0.8859894743159189,3.0,1,1.864010525684081,0,4.0,3.0,1,2,0,0,0,0,0,3,3,5,,,,,,,0.005061457981355488,207.60831433301792,207.60831433301792,208.62022616597824,209.20595504099037,209.20595504099037,209.20595504099037,209.48710695793852,210.10662320791744,210.10662320791744,210.10662320791744,210.0869866659632,211.0868637500098,4.520712665980682,200003,005,2023-03-22_13h42.39.431,DMS_et_12-36,2022.2.4,None,
4,PRED,12,1.114010525684081,1,images/picture_2.png,images/picture_1.png,0,"[11.733433509789462, -11.733433509789466]",11.733433509789462,-11.733433509789464,images/picture_2.png,1,"[-11.733433509789466, -11.733433509789462]",-11.733433509789464,-11.733433509789462,images/picture_3.png,2,"[11.733433509789464, 11.733433509789462]",11.733433509789464,11.733433509789462,0,1,1,1.114010525684081,2.114010525684081,0.8859894743159189,3.0,1,1.864010525684081,0,4.0,3.0,1,2,0,0,0,0,0,4,4,4,,,,,,,0.006837541004642844,212.63406308298,212.63406308298,213.63976175000425,214.2397918329807,214.2397918329807,214.2397918329807,214.50644575001206,215.139818290947,215.139818290947,215.139818290947,215.1201950829709,216.12008791591506,4.505853333044797,200003,005,2023-03-22_13h42.39.431,DMS_et_12-36,2022.2.4,None,
2,PRED,12,1.114010525684081,1,images/picture_2.png,images/picture_1.png,0,"[11.733433509789462, -11.733433509789466]",11.733433509789462,-11.733433509789464,images/picture_2.png,1,"[-11.733433509789466, -11.733433509789462]",-11.733433509789464,-11.733433509789462,images/picture_3.png,2,"[11.733433509789464, 11.733433509789462]",11.733433509789464,11.733433509789462,0,1,1,1.114010525684081,2.114010525684081,0.8859894743159189,3.0,1,1.864010525684081,0,4.0,3.0,1,2,0,0,0,0,0,5,5,2,,,,,,,0.006200167001225054,217.6524291249225,217.6524291249225,218.65362849994563,219.2536102909362,219.2536102909362,219.2536102909362,219.52016087493394,220.15368204098195,220.15368204098195,220.15368204098195,220.13985658297315,221.15366870793514,4.5120173749746755,200003,005,2023-03-22_13h42.39.431,DMS_et_12-36,2022.2.4,None,
8,PRED,12,1.114010525684081,1,images/picture_2.png,images/picture_1.png,0,"[11.733433509789462, -11.733433509789466]",11.733433509789462,-11.733433509789464,images/picture_2.png,1,"[-11.733433509789462, 11.733433509789464]",-11.733433509789462,11.733433509789464,images/picture_3.png,2,"[11.733433509789464, 11.733433509789462]",11.733433509789464,11.733433509789462,0,1,1,1.114010525684081,2.114010525684081,0.8859894743159189,3.0,1,1.864010525684081,0,4.0,3.0,1,2,0,0,0,0,0,6,6,8,,,,,,,0.005086165969260037,222.67457862501033,222.67457862501033,223.6869434999535,224.27337020798586,224.27337020798586,224.27337020798586,224.55349095794372,225.17291862494312,225.17291862494312,225.17291862494312,225.15348866593558,226.1534062079154,4.519313082913868,200003,005,2023-03-22_13h42.39.431,DMS_et_12-36,2022.2.4,None,
7,PRED,12,1.114010525684081,1,images/picture_2.png,images/picture_1.png,0,"[11.733433509789462, -11.733433509789466]",11.733433509789462,-11.733433509789464,images/picture_2.png,1,"[-11.733433509789462, 11.733433509789464]",-11.733433509789462,11.733433509789464,images/picture_3.png,2,"[-11.733433509789466, -11.733433509789462]",-11.733433509789464,-11.733433509789462,0,1,1,1.114010525684081,2.114010525684081,0.8859894743159189,3.0,1,1.864010525684081,0,4.0,3.0,1,2,0,0,0,0,0,7,7,7,,,,,,,0.006492083077318966,227.69998795795254,227.69998795795254,228.70654425001703,229.3063347499119,229.3063347499119,229.3063347499119,229.5734454159392,230.20543037494645,230.20543037494645,230.20543037494645,230.18725462490693,231.18700408295263,4.506264500087127,200003,005,2023-03-22_13h42.39.431,DMS_et_12-36,2022.2.4,None,
0,PRED,12,1.114010525684081,1,images/picture_2.png,images/picture_1.png,0,"[11.733433509789462, -11.733433509789466]",11.733433509789462,-11.733433509789464,images/picture_2.png,1,"[-11.733433509789466, -11.733433509789462]",-11.733433509789464,-11.733433509789462,images/picture_3.png,2,"[-11.733433509789462, 11.733433509789464]",-11.733433509789462,11.733433509789464,0,1,1,1.114010525684081,2.114010525684081,0.8859894743159189,3.0,1,1.864010525684081,0,4.0,3.0,1,2,0,0,0,0,0,8,8,0,,,,,,,0.005649792030453682,232.71784295793623,232.71784295793623,233.720448790933,234.32023016596213,234.32023016596213,234.32023016596213,234.5869312499417,235.2202233329881,235.2202233329881,235.2202233329881,235.2062793750083,236.2201428329572,4.5118939590174705,200003,005,2023-03-22_13h42.39.431,DMS_et_12-36,2022.2.4,None,
,,,,,,,,,,,,,,,,,,,,,,,,,,,,,,,,,,,0,0,0,0,,,,,,,,,237.24035987490788,249.7979435409652,,,,,,,,,,,,,,,200003,005,2023-03-22_13h42.39.431,DMS_et_12-36,2022.2.4,None,
9,UNPRED,12,1.114010525684081,2,images/picture_3.png,images/picture_1.png,0,"[-11.733433509789462, 11.733433509789464]",-11.733433509789462,11.733433509789464,images/picture_2.png,1,"[-11.733433509789466, -11.733433509789462]",-11.733433509789464,-11.733433509789462,images/picture_3.png,2,"[11.733433509789462, -11.733433509789466]",11.733433509789462,-11.733433509789464,0,1,1,1.114010525684081,2.114010525684081,0.8859894743159189,3.0,1,1.864010525684081,0,4.0,3.0,1,2,1,0,1,0,0,0,0,0,,,,,,,0.020298791932873428,249.7979435409652,249.7979435409652,250.8063120410079,251.3869789999444,251.3869789999444,251.3869789999444,251.67300258297473,252.28692866594065,252.28692866594065,252.28692866594065,252.27309133298695,253.28699920792133,4.522162833018228,200003,005,2023-03-22_13h42.39.431,DMS_et_12-36,2022.2.4,None,
10,UNPRED,12,1.114010525684081,1,images/picture_2.png,images/picture_1.png,0,"[11.733433509789462, -11.733433509789466]",11.733433509789462,-11.733433509789464,images/picture_2.png,1,"[-11.733433509789462, 11.733433509789464]",-11.733433509789462,11.733433509789464,images/picture_3.png,2,"[11.733433509789464, 11.733433509789462]",11.733433509789464,11.733433509789462,0,1,1,1.114010525684081,2.114010525684081,0.8859894743159189,3.0,1,1.864010525684081,0,4.0,3.0,1,2,1,0,1,0,0,1,1,1,,,,,,,0.010747042018920183,254.81932050001342,254.81932050001342,255.82045024994295,256.4200694159372,256.4200694159372,256.4200694159372,256.6868553329259,257.3200167079922,257.3200167079922,257.3200167079922,257.30562095798086,258.3203930410091,4.511640709009953,200003,005,2023-03-22_13h42.39.431,DMS_et_12-36,2022.2.4,None,
17,UNPRED,12,1.114010525684081,2,images/picture_3.png,images/picture_1.png,0,"[-11.733433509789466, -11.733433509789462]",-11.733433509789464,-11.733433509789462,images/picture_2.png,1,"[11.733433509789464, 11.733433509789462]",11.733433509789464,11.733433509789462,images/picture_3.png,2,"[-11.733433509789462, 11.733433509789464]",-11.733433509789462,11.733433509789464,0,1,1,1.114010525684081,2.114010525684081,0.8859894743159189,3.0,1,1.864010525684081,0,4.0,3.0,1,2,1,0,1,0,0,2,2,8,,,,,,,0.025258417008444667,259.8581624159124,259.8581624159124,260.8730631659273,261.4397984999232,261.4397984999232,261.4397984999232,261.7204107909929,262.3389740829589,262.3389740829589,262.3389740829589,262.32048312493134,263.32050129096024,4.539059833972715,200003,005,2023-03-22_13h42.39.431,DMS_et_12-36,2022.2.4,None,
16,UNPRED,12,1.114010525684081,2,images/picture_3.png,images/picture_1.png,0,"[11.733433509789462, -11.733433509789466]",11.733433509789462,-11.733433509789464,images/picture_2.png,1,"[-11.733433509789462, 11.733433509789464]",-11.733433509789462,11.733433509789464,images/picture_3.png,2,"[11.733433509789464, 11.733433509789462]",11.733433509789464,11.733433509789462,0,1,1,1.114010525684081,2.114010525684081,0.8859894743159189,3.0,1,1.864010525684081,0,4.0,3.0,1,2,1,0,1,0,0,3,3,7,,,,,,,0.018364749965257943,264.9021740829339,264.9021740829339,265.9067020409275,266.4872442909982,266.4872442909982,266.4872442909982,266.77331112499814,267.3867589159636,267.3867589159636,267.3867589159636,267.37237929098774,268.38714312494267,4.520059874979779,200003,005,2023-03-22_13h42.39.431,DMS_et_12-36,2022.2.4,None,
13,UNPRED,12,1.114010525684081,1,images/picture_2.png,images/picture_1.png,0,"[-11.733433509789466, -11.733433509789462]",-11.733433509789464,-11.733433509789462,images/picture_2.png,1,"[11.733433509789462, -11.733433509789466]",11.733433509789462,-11.733433509789464,images/picture_3.png,2,"[-11.733433509789462, 11.733433509789464]",-11.733433509789462,11.733433509789464,0,1,1,1.114010525684081,2.114010525684081,0.8859894743159189,3.0,1,1.864010525684081,0,4.0,3.0,1,2,1,0,1,0,0,4,4,4,,,,,,,0.010461458005011082,269.92193999991287,269.92193999991287,270.9202189159114,271.5205299159279,271.5205299159279,271.5205299159279,271.78691458294634,272.42023229098413,272.42023229098413,272.42023229098413,272.40667441592086,273.4204019579338,4.512281249975786,200003,005,2023-03-22_13h42.39.431,DMS_et_12-36,2022.2.4,None,
12,UNPRED,12,1.114010525684081,1,images/picture_2.png,images/picture_1.png,0,"[11.733433509789462, -11.733433509789466]",11.733433509789462,-11.733433509789464,images/picture_2.png,1,"[-11.733433509789462, 11.733433509789464]",-11.733433509789462,11.733433509789464,images/picture_3.png,2,"[11.733433509789464, 11.733433509789462]",11.733433509789464,11.733433509789462,0,1,1,1.114010525684081,2.114010525684081,0.8859894743159189,3.0,1,1.864010525684081,0,4.0,3.0,1,2,1,0,1,0,0,5,5,3,,,,,,,0.005111458012834191,274.94094374997076,274.94094374997076,275.9536905409768,276.540400207974,276.540400207974,276.540400207974,276.8202547499677,277.4390447079204,277.4390447079204,277.4390447079204,277.4200783330016,278.4208677909337,4.519525958108716,200003,005,2023-03-22_13h42.39.431,DMS_et_12-36,2022.2.4,None,
15,UNPRED,12,1.114010525684081,0,images/picture_1.png,images/picture_1.png,0,"[11.733433509789462, -11.733433509789466]",11.733433509789462,-11.733433509789464,images/picture_2.png,1,"[11.733433509789464, 11.733433509789462]",11.733433509789464,11.733433509789462,images/picture_3.png,2,"[-11.733433509789462, 11.733433509789464]",-11.733433509789462,11.733433509789464,0,1,1,1.114010525684081,2.114010525684081,0.8859894743159189,3.0,1,1.864010525684081,0,4.0,3.0,1,2,1,0,1,0,0,6,6,6,,,,,,,0.007517750025726855,279.96717745799106,279.96717745799106,280.9732559999684,281.57301991595887,281.57301991595887,281.57301991595887,281.8398142500082,282.47274204099085,282.47274204099085,282.47274204099085,282.45387287496123,283.45345508295577,4.507972459075972,200003,005,2023-03-22_13h42.39.431,DMS_et_12-36,2022.2.4,None,
11,UNPRED,12,1.114010525684081,2,images/picture_3.png,images/picture_1.png,0,"[-11.733433509789462, 11.733433509789464]",-11.733433509789462,11.733433509789464,images/picture_2.png,1,"[11.733433509789462, -11.733433509789466]",11.733433509789462,-11.733433509789464,images/picture_3.png,2,"[11.733433509789464, 11.733433509789462]",11.733433509789464,11.733433509789462,0,1,1,1.114010525684081,2.114010525684081,0.8859894743159189,3.0,1,1.864010525684081,0,4.0,3.0,1,2,1,0,1,0,0,7,7,2,,,,,,,0.02319362503476441,285.00318670796696,285.00318670796696,286.00650575000327,286.5870111249387,286.5870111249387,286.5870111249387,286.8735643749824,287.48693266592454,287.48693266592454,287.48693266592454,287.47269049996976,288.48696579097304,4.525832875049673,200003,005,2023-03-22_13h42.39.431,DMS_et_12-36,2022.2.4,None,
14,UNPRED,12,1.114010525684081,1,images/picture_2.png,images/picture_1.png,0,"[-11.733433509789466, -11.733433509789462]",-11.733433509789464,-11.733433509789462,images/picture_2.png,1,"[11.733433509789462, -11.733433509789466]",11.733433509789462,-11.733433509789464,images/picture_3.png,2,"[-11.733433509789462, 11.733433509789464]",-11.733433509789462,11.733433509789464,0,1,1,1.114010525684081,2.114010525684081,0.8859894743159189,3.0,1,1.864010525684081,0,4.0,3.0,1,2,1,0,1,0,0,8,8,5,,,,,,,0.007922665914520621,290.0236871249508,290.0236871249508,291.02032699994743,291.6204888749635,291.6204888749635,291.6204888749635,291.88712933298666,292.52087754092645,292.52087754092645,292.52087754092645,292.5071937079774,293.52064195799176,4.506862332927994,200003,005,2023-03-22_13h42.39.431,DMS_et_12-36,2022.2.4,None,
,,,,,,,,,,,,,,,,,,,,,,,,,,,,,,,,,,,1,0,1,0,,,,,,,,,294.5628907500068,307.11298979097046,,,,,,,,,,,,,,,200003,005,2023-03-22_13h42.39.431,DMS_et_12-36,2022.2.4,None,
26,PRED,12,1.114010525684081,2,images/picture_3.png,images/picture_1.png,0,"[11.733433509789464, 11.733433509789462]",11.733433509789464,11.733433509789462,images/picture_2.png,1,"[-11.733433509789462, 11.733433509789464]",-11.733433509789462,11.733433509789464,images/picture_3.png,2,"[11.733433509789462, -11.733433509789466]",11.733433509789462,-11.733433509789464,0,1,1,1.114010525684081,2.114010525684081,0.8859894743159189,3.0,1,1.864010525684081,0,4.0,3.0,1,2,2,0,2,0,0,0,0,8,,,,,,,0.015020875027403235,307.11298979097046,307.11298979097046,308.1199551660102,308.70553008292336,308.70553008292336,308.70553008292336,308.98663924995344,309.6058586660074,309.6058586660074,309.6058586660074,309.5865797079168,310.5868882079376,4.522183792083524,200003,005,2023-03-22_13h42.39.431,DMS_et_12-36,2022.2.4,None,
18,PRED,12,1.114010525684081,2,images/picture_3.png,images/picture_1.png,0,"[-11.733433509789462, 11.733433509789464]",-11.733433509789462,11.733433509789464,images/picture_2.png,1,"[11.733433509789462, -11.733433509789466]",11.733433509789462,-11.733433509789464,images/picture_3.png,2,"[-11.733433509789466, -11.733433509789462]",-11.733433509789464,-11.733433509789462,0,1,1,1.114010525684081,2.114010525684081,0.8859894743159189,3.0,1,1.864010525684081,0,4.0,3.0,1,2,2,0,2,0,0,1,1,0,,,,,,,0.020802500075660646,312.15962704096455,312.15962704096455,313.1727195829153,313.7399914159905,313.7399914159905,313.7399914159905,314.03955916594714,314.6399606249761,314.6399606249761,314.6399606249761,314.6203533329535,315.6201907079667,4.539819250116125,200003,005,2023-03-22_13h42.39.431,DMS_et_12-36,2022.2.4,None,
23,PRED,12,1.114010525684081,2,images/picture_3.png,images/picture_1.png,0,"[-11.733433509789466, -11.733433509789462]",-11.733433509789464,-11.733433509789462,images/picture_2.png,1,"[-11.733433509789462, 11.733433509789464]",-11.733433509789462,11.733433509789464,images/picture_3.png,2,"[11.733433509789462, -11.733433509789466]",11.733433509789462,-11.733433509789464,0,1,1,1.114010525684081,2.114010525684081,0.8859894743159189,3.0,1,1.864010525684081,0,4.0,3.0,1,2,2,0,2,0,0,2,2,5,,,,,,,0.01946204190608114,317.20549816591665,317.20549816591665,318.22003987501375,318.78666983300354,318.78666983300354,318.78666983300354,319.07240795798134,319.6866480410099,319.6866480410099,319.6866480410099,319.6724586249329,320.68687041592784,4.539417082909495,200003,005,2023-03-22_13h42.39.431,DMS_et_12-36,2022.2.4,None,
20,PRED,12,1.114010525684081,2,images/picture_3.png,images/picture_1.png,0,"[-11.733433509789466, -11.733433509789462]",-11.733433509789464,-11.733433509789462,images/picture_2.png,1,"[-11.733433509789462, 11.733433509789464]",-11.733433509789462,11.733433509789464,images/picture_3.png,2,"[11.733433509789464, 11.733433509789462]",11.733433509789464,11.733433509789462,0,1,1,1.114010525684081,2.114010525684081,0.8859894743159189,3.0,1,1.864010525684081,0,4.0,3.0,1,2,2,0,2,0,0,3,3,2,,,,,,,0.01993641594890505,322.2460538749583,322.2460538749583,323.2534507079981,323.839936165954,323.839936165954,323.839936165954,324.12019570800476,324.7394783749478,324.7394783749478,324.7394783749478,324.72018966590986,325.7201916659251,4.5254292079480365,200003,005,2023-03-22_13h42.39.431,DMS_et_12-36,2022.2.4,None,
25,PRED,12,1.114010525684081,2,images/picture_3.png,images/picture_1.png,0,"[-11.733433509789466, -11.733433509789462]",-11.733433509789464,-11.733433509789462,images/picture_2.png,1,"[11.733433509789462, -11.733433509789466]",11.733433509789462,-11.733433509789464,images/picture_3.png,2,"[-11.733433509789462, 11.733433509789464]",-11.733433509789462,11.733433509789464,0,1,1,1.114010525684081,2.114010525684081,0.8859894743159189,3.0,1,1.864010525684081,0,4.0,3.0,1,2,2,0,2,0,0,4,4,7,,,,,,,0.010371999931521714,327.2734317909926,327.2734317909926,328.2869118329836,328.87256312498357,328.87256312498357,328.87256312498357,329.13892433291767,329.7726941249566,329.7726941249566,329.7726941249566,329.75350641598925,330.7535858749179,4.528181915986352,200003,005,2023-03-22_13h42.39.431,DMS_et_12-36,2022.2.4,None,
21,PRED,12,1.114010525684081,2,images/picture_3.png,images/picture_1.png,0,"[11.733433509789462, -11.733433509789466]",11.733433509789462,-11.733433509789464,images/picture_2.png,1,"[-11.733433509789466, -11.733433509789462]",-11.733433509789464,-11.733433509789462,images/picture_3.png,2,"[11.733433509789464, 11.733433509789462]",11.733433509789464,11.733433509789462,0,1,1,1.114010525684081,2.114010525684081,0.8859894743159189,3.0,1,1.864010525684081,0,4.0,3.0,1,2,2,0,2,0,0,5,5,3,,,,,,,0.018893957952968776,332.3219856659416,332.3219856659416,333.32020012498833,333.90701291593723,333.90701291593723,333.90701291593723,334.1867041249061,334.8064377079718,334.8064377079718,334.8064377079718,334.78673541592434,335.7868655829225,4.5200859169708565,200003,005,2023-03-22_13h42.39.431,DMS_et_12-36,2022.2.4,None,
19,PRED,12,1.114010525684081,2,images/picture_3.png,images/picture_1.png,0,"[11.733433509789464, 11.733433509789462]",11.733433509789464,11.733433509789462,images/picture_2.png,1,"[-11.733433509789466, -11.733433509789462]",-11.733433509789464,-11.733433509789462,images/picture_3.png,2,"[11.733433509789462, -11.733433509789466]",11.733433509789462,-11.733433509789464,0,1,1,1.114010525684081,2.114010525684081,0.8859894743159189,3.0,1,1.864010525684081,0,4.0,3.0,1,2,2,0,2,0,0,6,6,1,,,,,,,0.02010083303321153,337.3475508749252,337.3475508749252,338.35362362500746,338.93963566597085,338.93963566597085,338.93963566597085,339.21976012492087,339.83918412495404,339.83918412495404,339.83918412495404,339.819982624962,340.8203435000032,4.5254064169712365,200003,005,2023-03-22_13h42.39.431,DMS_et_12-36,2022.2.4,None,
24,PRED,12,1.114010525684081,2,images/picture_3.png,images/picture_1.png,0,"[-11.733433509789466, -11.733433509789462]",-11.733433509789464,-11.733433509789462,images/picture_2.png,1,"[11.733433509789462, -11.733433509789466]",11.733433509789462,-11.733433509789464,images/picture_3.png,2,"[11.733433509789464, 11.733433509789462]",11.733433509789464,11.733433509789462,0,1,1,1.114010525684081,2.114010525684081,0.8859894743159189,3.0,1,1.864010525684081,0,4.0,3.0,1,2,2,0,2,0,0,7,7,6,,,,,,,0.02090770797803998,342.38877137494273,342.38877137494273,343.38685433298815,343.9730187909445,343.9730187909445,343.9730187909445,344.25363729090896,344.873301415937,344.873301415937,344.873301415937,344.8535004579462,345.85352345800493,4.523351875017397,200003,005,2023-03-22_13h42.39.431,DMS_et_12-36,2022.2.4,None,
22,PRED,12,1.114010525684081,2,images/picture_3.png,images/picture_1.png,0,"[11.733433509789462, -11.733433509789466]",11.733433509789462,-11.733433509789464,images/picture_2.png,1,"[-11.733433509789466, -11.733433509789462]",-11.733433509789464,-11.733433509789462,images/picture_3.png,2,"[11.733433509789464, 11.733433509789462]",11.733433509789464,11.733433509789462,0,1,1,1.114010525684081,2.114010525684081,0.8859894743159189,3.0,1,1.864010525684081,0,4.0,3.0,1,2,2,0,2,0,0,8,8,4,,,,,,,0.01871237508021295,347.4239105830202,347.4239105830202,348.42018920800183,349.00625083292834,349.00625083292834,349.00625083292834,349.2873461249983,349.905470083002,349.905470083002,349.905470083002,349.88664083299227,350.88692612492014,4.518721708096564,200003,005,2023-03-22_13h42.39.431,DMS_et_12-36,2022.2.4,None,
,,,,,,,,,,,,,,,,,,,,,,,,,,,,,,,,,,,2,0,2,0,,,,,,,,,351.983494957909,364.5338604579447,,,,,,,,,,,,,,,200003,005,2023-03-22_13h42.39.431,DMS_et_12-36,2022.2.4,None,
28,UNPRED,12,1.114010525684081,2,images/picture_3.png,images/picture_1.png,0,"[-11.733433509789466, -11.733433509789462]",-11.733433509789464,-11.733433509789462,images/picture_2.png,1,"[11.733433509789462, -11.733433509789466]",11.733433509789462,-11.733433509789464,images/picture_3.png,2,"[11.733433509789464, 11.733433509789462]",11.733433509789464,11.733433509789462,0,1,1,1.114010525684081,2.114010525684081,0.8859894743159189,3.0,1,1.864010525684081,0,4.0,3.0,1,2,3,0,3,0,0,0,0,1,,,,,,,0.01364370808005333,364.5338604579447,364.5338604579447,365.5397851249436,366.12017666595057,366.12017666595057,366.12017666595057,366.4058267909568,367.0201281659538,367.0201281659538,367.0201281659538,367.00634179101326,368.0201482910197,4.516287415986881,200003,005,2023-03-22_13h42.39.431,DMS_et_12-36,2022.2.4,None,
27,UNPRED,12,1.114010525684081,1,images/picture_2.png,images/picture_1.png,0,"[-11.733433509789466, -11.733433509789462]",-11.733433509789464,-11.733433509789462,images/picture_2.png,1,"[-11.733433509789462, 11.733433509789464]",-11.733433509789462,11.733433509789464,images/picture_3.png,2,"[11.733433509789462, -11.733433509789466]",11.733433509789462,-11.733433509789464,0,1,1,1.114010525684081,2.114010525684081,0.8859894743159189,3.0,1,1.864010525684081,0,4.0,3.0,1,2,3,0,3,0,0,1,1,0,,,,,,,0.008379540988244116,369.5562740409514,369.5562740409514,370.5535537499236,371.15371970797423,371.15371970797423,371.15371970797423,371.420239457977,372.05362324998714,372.05362324998714,372.05362324998714,372.03957004100084,373.05345479096286,4.506195833091624,200003,005,2023-03-22_13h42.39.431,DMS_et_12-36,2022.2.4,None,
29,UNPRED,12,1.114010525684081,1,images/picture_2.png,images/picture_1.png,0,"[-11.733433509789466, -11.733433509789462]",-11.733433509789464,-11.733433509789462,images/picture_2.png,1,"[11.733433509789462, -11.733433509789466]",11.733433509789462,-11.733433509789464,images/picture_3.png,2,"[11.733433509789464, 11.733433509789462]",11.733433509789464,11.733433509789462,0,1,1,1.114010525684081,2.114010525684081,0.8859894743159189,3.0,1,1.864010525684081,0,4.0,3.0,1,2,3,0,3,0,0,2,2,2,,,,,,,0.005961666000075638,374.56441699992865,374.56441699992865,375.57317562494427,376.17275091598276,376.17275091598276,376.17275091598276,376.4397864160128,377.07320804090705,377.07320804090705,377.07320804090705,377.05344408296514,378.05349700001534,4.506821250077337,200003,005,2023-03-22_13h42.39.431,DMS_et_12-36,2022.2.4,None,
32,UNPRED,12,1.114010525684081,2,images/picture_3.png,images/picture_1.png,0,"[11.733433509789462, -11.733433509789466]",11.733433509789462,-11.733433509789464,images/picture_2.png,1,"[11.733433509789464, 11.733433509789462]",11.733433509789464,11.733433509789462,images/picture_3.png,2,"[-11.733433509789462, 11.733433509789464]",-11.733433509789462,11.733433509789464,0,1,1,1.114010525684081,2.114010525684081,0.8859894743159189,3.0,1,1.864010525684081,0,4.0,3.0,1,2,3,0,3,0,0,3,3,5,,,,,,,0.02352124999742955,379.60229833296034,379.60229833296034,380.60563695791643,381.18667766591534,381.18667766591534,381.18667766591534,381.4732373749139,382.08690312493127,382.08690312493127,382.08690312493127,382.07295391592197,383.0869678329909,4.527010750025511,200003,005,2023-03-22_13h42.39.431,DMS_et_12-36,2022.2.4,None,
31,UNPRED,12,1.114010525684081,2,images/picture_3.png,images/picture_1.png,0,"[11.733433509789464, 11.733433509789462]",11.733433509789464,11.733433509789462,images/picture_2.png,1,"[-11.733433509789466, -11.733433509789462]",-11.733433509789464,-11.733433509789462,images/picture_3.png,2,"[11.733433509789462, -11.733433509789466]",11.733433509789462,-11.733433509789464,0,1,1,1.114010525684081,2.114010525684081,0.8859894743159189,3.0,1,1.864010525684081,0,4.0,3.0,1,2,3,0,3,0,0,4,4,4,,,,,,,0.018667416996322572,384.6370149999857,384.6370149999857,385.6401469579432,386.22017241595313,386.22017241595313,386.22017241595313,386.50624649995007,387.1201619579224,387.1201619579224,387.1201619579224,387.10630149999633,388.1200577080017,4.520458708982915,200003,005,2023-03-22_13h42.39.431,DMS_et_12-36,2022.2.4,None,
34,UNPRED,12,1.114010525684081,0,images/picture_1.png,images/picture_1.png,0,"[-11.733433509789462, 11.733433509789464]",-11.733433509789462,11.733433509789464,images/picture_2.png,1,"[-11.733433509789466, -11.733433509789462]",-11.733433509789464,-11.733433509789462,images/picture_3.png,2,"[11.733433509789462, -11.733433509789466]",11.733433509789462,-11.733433509789464,0,1,1,1.114010525684081,2.114010525684081,0.8859894743159189,3.0,1,1.864010525684081,0,4.0,3.0,1,2,3,0,3,0,0,5,5,7,,,,,,,0.008291750098578632,389.6604762499919,389.6604762499919,390.6726953329053,391.2534371250076,391.2534371250076,391.2534371250076,391.5390719160205,392.1534047499299,392.1534047499299,392.1534047499299,392.14040433301125,393.15352574991994,4.525548000005074,200003,005,2023-03-22_13h42.39.431,DMS_et_12-36,2022.2.4,None,
35,UNPRED,12,1.114010525684081,1,images/picture_2.png,images/picture_1.png,0,"[11.733433509789464, 11.733433509789462]",11.733433509789464,11.733433509789462,images/picture_2.png,1,"[-11.733433509789462, 11.733433509789464]",-11.733433509789462,11.733433509789464,images/picture_3.png,2,"[11.733433509789462, -11.733433509789466]",11.733433509789462,-11.733433509789464,0,1,1,1.114010525684081,2.114010525684081,0.8859894743159189,3.0,1,1.864010525684081,0,4.0,3.0,1,2,3,0,3,0,0,6,6,8,,,,,,,0.008705791900865734,394.6889494159259,394.6889494159259,395.68691979092546,396.28689570794813,396.28689570794813,396.28689570794813,396.55350704095326,397.18691808299627,397.18691808299627,397.18691808299627,397.17290766595397,398.186876499909,4.511735541978851,200003,005,2023-03-22_13h42.39.431,DMS_et_12-36,2022.2.4,None,
33,UNPRED,12,1.114010525684081,1,images/picture_2.png,images/picture_1.png,0,"[-11.733433509789466, -11.733433509789462]",-11.733433509789464,-11.733433509789462,images/picture_2.png,1,"[11.733433509789464, 11.733433509789462]",11.733433509789464,11.733433509789462,images/picture_3.png,2,"[11.733433509789462, -11.733433509789466]",11.733433509789462,-11.733433509789464,0,1,1,1.114010525684081,2.114010525684081,0.8859894743159189,3.0,1,1.864010525684081,0,4.0,3.0,1,2,3,0,3,0,0,7,7,6,,,,,,,0.0050510409055277705,399.7095549160149,399.7095549160149,400.72023191594053,401.30537537497,401.30537537497,401.30537537497,401.5867389579071,402.2064440830145,402.2064440830145,402.2064440830145,402.18687524995767,403.18685362499673,4.52088083291892,200003,005,2023-03-22_13h42.39.431,DMS_et_12-36,2022.2.4,None,
30,UNPRED,12,1.114010525684081,2,images/picture_3.png,images/picture_1.png,0,"[11.733433509789464, 11.733433509789462]",11.733433509789464,11.733433509789462,images/picture_2.png,1,"[-11.733433509789466, -11.733433509789462]",-11.733433509789464,-11.733433509789462,images/picture_3.png,2,"[11.733433509789462, -11.733433509789466]",11.733433509789462,-11.733433509789464,0,1,1,1.114010525684081,2.114010525684081,0.8859894743159189,3.0,1,1.864010525684081,0,4.0,3.0,1,2,3,0,3,0,0,8,8,3,,,,,,,0.022325375000946224,404.75420770794153,404.75420770794153,405.75331724993885,406.3404355829116,406.3404355829116,406.3404355829116,406.62023483298253,407.23992470791563,407.23992470791563,407.23992470791563,407.22029362490866,408.2201679999707,4.524458208004944,200003,005,2023-03-22_13h42.39.431,DMS_et_12-36,2022.2.4,None,
,,,,,,,,,,,,,,,,,,,,,,,,,,,,,,,,,,,3,0,3,0,,,,,,,,,409.32810070796404,421.8582026249496,,,,,,,,,,,,,,,200003,005,2023-03-22_13h42.39.431,DMS_et_12-36,2022.2.4,None,
39,PRED,12,1.114010525684081,1,images/picture_2.png,images/picture_1.png,0,"[11.733433509789464, 11.733433509789462]",11.733433509789464,11.733433509789462,images/picture_2.png,1,"[-11.733433509789462, 11.733433509789464]",-11.733433509789462,11.733433509789464,images/picture_3.png,2,"[11.733433509789462, -11.733433509789466]",11.733433509789462,-11.733433509789464,0,1,1,1.114010525684081,2.114010525684081,0.8859894743159189,3.0,1,1.864010525684081,0,4.0,3.0,1,2,4,0,4,0,0,0,0,3,,,,,,,0.0038051250157877803,421.8582026249496,421.8582026249496,422.87214112491347,423.453335374943,423.453335374943,423.453335374943,423.7201737499563,424.35349283297546,424.35349283297546,424.35349283297546,424.35349283297546,425.3536684999708,4.514824750018306,200003,005,2023-03-22_13h42.39.431,DMS_et_12-36,2022.2.4,None,
43,PRED,12,1.114010525684081,1,images/picture_2.png,images/picture_1.png,0,"[-11.733433509789466, -11.733433509789462]",-11.733433509789464,-11.733433509789462,images/picture_2.png,1,"[11.733433509789462, -11.733433509789466]",11.733433509789462,-11.733433509789464,images/picture_3.png,2,"[11.733433509789464, 11.733433509789462]",11.733433509789464,11.733433509789462,0,1,1,1.114010525684081,2.114010525684081,0.8859894743159189,3.0,1,1.864010525684081,0,4.0,3.0,1,2,4,0,4,0,0,1,1,7,,,,,,,0.0050246670143678784,426.88701587496325,426.88701587496325,427.8868835410103,428.4868914579274,428.4868914579274,428.4868914579274,428.75345437496435,429.3869857499376,429.3869857499376,429.3869857499376,429.3731993329711,430.3869666249957,4.5070481250295416,200003,005,2023-03-22_13h42.39.431,DMS_et_12-36,2022.2.4,None,
44,PRED,12,1.114010525684081,1,images/picture_2.png,images/picture_1.png,0,"[11.733433509789464, 11.733433509789462]",11.733433509789464,11.733433509789462,images/picture_2.png,1,"[11.733433509789462, -11.733433509789466]",11.733433509789462,-11.733433509789464,images/picture_3.png,2,"[-11.733433509789466, -11.733433509789462]",-11.733433509789464,-11.733433509789462,0,1,1,1.114010525684081,2.114010525684081,0.8859894743159189,3.0,1,1.864010525684081,0,4.0,3.0,1,2,4,0,4,0,0,2,2,8,,,,,,,0.003915291978046298,431.89896558295004,431.89896558295004,432.9062200830085,433.50615191599354,433.50615191599354,433.50615191599354,433.77332883293275,434.4063194579212,434.4063194579212,434.4063194579212,434.38690804096404,435.38694037497044,4.506388875073753,200003,005,2023-03-22_13h42.39.431,DMS_et_12-36,2022.2.4,None,
42,PRED,12,1.114010525684081,1,images/picture_2.png,images/picture_1.png,0,"[-11.733433509789462, 11.733433509789464]",-11.733433509789462,11.733433509789464,images/picture_2.png,1,"[11.733433509789462, -11.733433509789466]",11.733433509789462,-11.733433509789464,images/picture_3.png,2,"[11.733433509789464, 11.733433509789462]",11.733433509789464,11.733433509789462,0,1,1,1.114010525684081,2.114010525684081,0.8859894743159189,3.0,1,1.864010525684081,0,4.0,3.0,1,2,4,0,4,0,0,3,3,6,,,,,,,0.004997874959371984,436.9248138749972,436.9248138749972,437.9399827909656,438.52014470798895,438.52014470798895,438.52014470798895,438.78673516598064,439.4200437499676,439.4200437499676,439.4200437499676,439.40600049996283,440.42014962492976,4.51941387495026,200003,005,2023-03-22_13h42.39.431,DMS_et_12-36,2022.2.4,None,
37,PRED,12,1.114010525684081,1,images/picture_2.png,images/picture_1.png,0,"[11.733433509789462, -11.733433509789466]",11.733433509789462,-11.733433509789464,images/picture_2.png,1,"[-11.733433509789462, 11.733433509789464]",-11.733433509789462,11.733433509789464,images/picture_3.png,2,"[11.733433509789464, 11.733433509789462]",11.733433509789464,11.733433509789462,0,1,1,1.114010525684081,2.114010525684081,0.8859894743159189,3.0,1,1.864010525684081,0,4.0,3.0,1,2,4,0,4,0,0,4,4,1,,,,,,,0.004755874979309738,441.9416357909795,441.9416357909795,442.95349124993663,443.553449290921,443.553449290921,443.553449290921,443.8201940410072,444.45344924996607,444.45344924996607,444.45344924996607,444.43951254093554,445.4534019159619,4.513477209024131,200003,005,2023-03-22_13h42.39.431,DMS_et_12-36,2022.2.4,None,
41,PRED,12,1.114010525684081,1,images/picture_2.png,images/picture_1.png,0,"[11.733433509789462, -11.733433509789466]",11.733433509789462,-11.733433509789464,images/picture_2.png,1,"[-11.733433509789466, -11.733433509789462]",-11.733433509789464,-11.733433509789462,images/picture_3.png,2,"[11.733433509789464, 11.733433509789462]",11.733433509789464,11.733433509789462,0,1,1,1.114010525684081,2.114010525684081,0.8859894743159189,3.0,1,1.864010525684081,0,4.0,3.0,1,2,4,0,4,0,0,5,5,5,,,,,,,0.00641770800575614,446.9712749159662,446.9712749159662,447.9869592079194,448.57357675000094,448.57357675000094,448.57357675000094,448.83965820795856,449.4733703749953,449.4733703749953,449.4733703749953,449.45348216593266,450.4534154579742,4.526005082996562,200003,005,2023-03-22_13h42.39.431,DMS_et_12-36,2022.2.4,None,
38,PRED,12,1.114010525684081,1,images/picture_2.png,images/picture_1.png,0,"[-11.733433509789462, 11.733433509789464]",-11.733433509789462,11.733433509789464,images/picture_2.png,1,"[-11.733433509789466, -11.733433509789462]",-11.733433509789464,-11.733433509789462,images/picture_3.png,2,"[11.733433509789464, 11.733433509789462]",11.733433509789464,11.733433509789462,0,1,1,1.114010525684081,2.114010525684081,0.8859894743159189,3.0,1,1.864010525684081,0,4.0,3.0,1,2,4,0,4,0,0,6,6,2,,,,,,,0.0050544580444693565,452.00466266600415,452.00466266600415,453.0202563329367,453.6056208749069,453.6056208749069,453.6056208749069,453.87302499997895,454.5054529159097,454.5054529159097,454.5054529159097,454.4864637500141,455.48692749999464,4.522132458048873,200003,005,2023-03-22_13h42.39.431,DMS_et_12-36,2022.2.4,None,
36,PRED,12,1.114010525684081,1,images/picture_2.png,images/picture_1.png,0,"[11.733433509789462, -11.733433509789466]",11.733433509789462,-11.733433509789464,images/picture_2.png,1,"[-11.733433509789466, -11.733433509789462]",-11.733433509789464,-11.733433509789462,images/picture_3.png,2,"[-11.733433509789462, 11.733433509789464]",-11.733433509789462,11.733433509789464,0,1,1,1.114010525684081,2.114010525684081,0.8859894743159189,3.0,1,1.864010525684081,0,4.0,3.0,1,2,4,0,4,0,0,7,7,0,,,,,,,0.006185582955367863,457.03258370794356,457.03258370794356,458.0397230410017,458.639584624907,458.639584624907,458.639584624907,458.9064616250107,459.5395227499539,459.5395227499539,459.5395227499539,459.52035362494644,460.5202299579978,4.506791832973249,200003,005,2023-03-22_13h42.39.431,DMS_et_12-36,2022.2.4,None,
40,PRED,12,1.114010525684081,1,images/picture_2.png,images/picture_1.png,0,"[11.733433509789464, 11.733433509789462]",11.733433509789464,11.733433509789462,images/picture_2.png,1,"[-11.733433509789462, 11.733433509789464]",-11.733433509789462,11.733433509789464,images/picture_3.png,2,"[-11.733433509789466, -11.733433509789462]",-11.733433509789464,-11.733433509789462,0,1,1,1.114010525684081,2.114010525684081,0.8859894743159189,3.0,1,1.864010525684081,0,4.0,3.0,1,2,4,0,4,0,0,8,8,4,,,,,,,0.006046290975064039,462.05072816601023,462.05072816601023,463.05335291591473,463.65346679091454,463.65346679091454,463.65346679091454,463.9202454999322,464.5534570409218,464.5534570409218,464.5534570409218,464.5403108749306,465.5536072909599,4.510941000073217,200003,005,2023-03-22_13h42.39.431,DMS_et_12-36,2022.2.4,None,
,,,,,,,,,,,,,,,,,,,,,,,,,,,,,,,,,,,4,0,4,0,,,,,,,,,466.64105049998034,479.20085354091134,,,,,,,,,,,,,,,200003,005,2023-03-22_13h42.39.431,DMS_et_12-36,2022.2.4,None,
46,UNPRED,12,1.114010525684081,2,images/picture_3.png,images/picture_1.png,0,"[11.733433509789462, -11.733433509789466]",11.733433509789462,-11.733433509789464,images/picture_2.png,1,"[-11.733433509789462, 11.733433509789464]",-11.733433509789462,11.733433509789464,images/picture_3.png,2,"[11.733433509789464, 11.733433509789462]",11.733433509789464,11.733433509789462,0,1,1,1.114010525684081,2.114010525684081,0.8859894743159189,3.0,1,1.864010525684081,0,4.0,3.0,1,2,5,0,5,0,0,0,0,1,,,,,,,0.015666416962631047,479.20085354091134,479.20085354091134,480.20698429096956,480.78670279099606,480.78670279099606,480.78670279099606,481.07304016593844,481.6869077079464,481.6869077079464,481.6869077079464,481.6869077079464,482.6867274160031,4.514010707964189,200003,005,2023-03-22_13h42.39.431,DMS_et_12-36,2022.2.4,None,
53,UNPRED,12,1.114010525684081,1,images/picture_2.png,images/picture_1.png,0,"[-11.733433509789462, 11.733433509789464]",-11.733433509789462,11.733433509789464,images/picture_2.png,1,"[-11.733433509789466, -11.733433509789462]",-11.733433509789464,-11.733433509789462,images/picture_3.png,2,"[11.733433509789462, -11.733433509789466]",11.733433509789462,-11.733433509789464,0,1,1,1.114010525684081,2.114010525684081,0.8859894743159189,3.0,1,1.864010525684081,0,4.0,3.0,1,2,5,0,5,0,0,1,1,8,,,,,,,0.009673250024206936,484.22023754101247,484.22023754101247,485.22027933294885,485.8202603330137,485.8202603330137,485.8202603330137,486.0868171249749,486.7198032909073,486.7198032909073,486.7198032909073,486.70550779101904,487.720223082928,4.51056712504942,200003,005,2023-03-22_13h42.39.431,DMS_et_12-36,2022.2.4,None,
50,UNPRED,12,1.114010525684081,0,images/picture_1.png,images/picture_1.png,0,"[11.733433509789464, 11.733433509789462]",11.733433509789464,11.733433509789462,images/picture_2.png,1,"[11.733433509789462, -11.733433509789466]",11.733433509789462,-11.733433509789464,images/picture_3.png,2,"[-11.733433509789462, 11.733433509789464]",-11.733433509789462,11.733433509789464,0,1,1,1.114010525684081,2.114010525684081,0.8859894743159189,3.0,1,1.864010525684081,0,4.0,3.0,1,2,5,0,5,0,0,2,2,5,,,,,,,0.006414958043023944,489.24408924998716,489.24408924998716,490.25344150001183,490.8394204999786,490.8394204999786,490.8394204999786,491.1201723749982,491.73951287497766,491.73951287497766,491.73951287497766,491.72022849996574,492.7200619999785,4.525124500039965,200003,005,2023-03-22_13h42.39.431,DMS_et_12-36,2022.2.4,None,
51,UNPRED,12,1.114010525684081,0,images/picture_1.png,images/picture_1.png,0,"[11.733433509789464, 11.733433509789462]",11.733433509789464,11.733433509789462,images/picture_2.png,1,"[11.733433509789462, -11.733433509789466]",11.733433509789462,-11.733433509789464,images/picture_3.png,2,"[-11.733433509789462, 11.733433509789464]",-11.733433509789462,11.733433509789464,0,1,1,1.114010525684081,2.114010525684081,0.8859894743159189,3.0,1,1.864010525684081,0,4.0,3.0,1,2,5,0,5,0,0,3,3,6,,,,,,,0.003437791019678116,494.2752578749787,494.2752578749787,495.28694170794915,495.87306591600645,495.87306591600645,495.87306591600645,496.1536277909763,496.77290362492204,496.77290362492204,496.77290362492204,496.75359204097185,497.75367733300664,4.52141991595272,200003,005,2023-03-22_13h42.39.431,DMS_et_12-36,2022.2.4,None,
47,UNPRED,12,1.114010525684081,1,images/picture_2.png,images/picture_1.png,0,"[11.733433509789462, -11.733433509789466]",11.733433509789462,-11.733433509789464,images/picture_2.png,1,"[-11.733433509789462, 11.733433509789464]",-11.733433509789462,11.733433509789464,images/picture_3.png,2,"[-11.733433509789466, -11.733433509789462]",-11.733433509789464,-11.733433509789462,0,1,1,1.114010525684081,2.114010525684081,0.8859894743159189,3.0,1,1.864010525684081,0,4.0,3.0,1,2,5,0,5,0,0,4,4,2,,,,,,,0.00881104206200689,499.30540320801083,499.30540320801083,500.32013804093003,500.9059426659951,500.9059426659951,500.9059426659951,501.17311462492216,501.8068473750027,501.8068473750027,501.8068473750027,501.78708204091527,502.7865298750112,4.525517459027469,200003,005,2023-03-22_13h42.39.431,DMS_et_12-36,2022.2.4,None,
45,UNPRED,12,1.114010525684081,2,images/picture_3.png,images/picture_1.png,0,"[-11.733433509789462, 11.733433509789464]",-11.733433509789462,11.733433509789464,images/picture_2.png,1,"[-11.733433509789466, -11.733433509789462]",-11.733433509789464,-11.733433509789462,images/picture_3.png,2,"[11.733433509789464, 11.733433509789462]",11.733433509789464,11.733433509789462,0,1,1,1.114010525684081,2.114010525684081,0.8859894743159189,3.0,1,1.864010525684081,0,4.0,3.0,1,2,5,0,5,0,0,5,5,0,,,,,,,0.023616708000190556,504.3549510409357,504.3549510409357,505.35376295796596,505.94003279099707,505.94003279099707,505.94003279099707,506.22014879097696,506.83963900001254,506.83963900001254,506.83963900001254,506.8201169159729,507.82058512500953,4.527920416905545,200003,005,2023-03-22_13h42.39.431,DMS_et_12-36,2022.2.4,None,
52,UNPRED,12,1.114010525684081,2,images/picture_3.png,images/picture_1.png,0,"[11.733433509789462, -11.733433509789466]",11.733433509789462,-11.733433509789464,images/picture_2.png,1,"[-11.733433509789462, 11.733433509789464]",-11.733433509789462,11.733433509789464,images/picture_3.png,2,"[11.733433509789464, 11.733433509789462]",11.733433509789464,11.733433509789462,0,1,1,1.114010525684081,2.114010525684081,0.8859894743159189,3.0,1,1.864010525684081,0,4.0,3.0,1,2,5,0,5,0,0,6,6,7,,,,,,,0.01826029096264392,509.3882152909646,509.3882152909646,510.3869180409238,510.9733032910153,510.9733032910153,510.9733032910153,511.2537564159138,511.8730028329883,511.8730028329883,511.8730028329883,511.85366158292163,512.853506000014,4.520002332981676,200003,005,2023-03-22_13h42.39.431,DMS_et_12-36,2022.2.4,None,
49,UNPRED,12,1.114010525684081,2,images/picture_3.png,images/picture_1.png,0,"[11.733433509789464, 11.733433509789462]",11.733433509789464,11.733433509789462,images/picture_2.png,1,"[-11.733433509789466, -11.733433509789462]",-11.733433509789464,-11.733433509789462,images/picture_3.png,2,"[-11.733433509789462, 11.733433509789464]",-11.733433509789462,11.733433509789464,0,1,1,1.114010525684081,2.114010525684081,0.8859894743159189,3.0,1,1.864010525684081,0,4.0,3.0,1,2,5,0,5,0,0,7,7,4,,,,,,,0.011091249994933605,514.406884499942,514.406884499942,515.4204281249549,516.0066824579844,516.0066824579844,516.0066824579844,516.2737230409402,516.9066254999489,516.9066254999489,516.9066254999489,516.8868934579659,517.8868868330028,4.526358250062913,200003,005,2023-03-22_13h42.39.431,DMS_et_12-36,2022.2.4,None,
48,UNPRED,12,1.114010525684081,0,images/picture_1.png,images/picture_1.png,0,"[-11.733433509789462, 11.733433509789464]",-11.733433509789462,11.733433509789464,images/picture_2.png,1,"[-11.733433509789466, -11.733433509789462]",-11.733433509789464,-11.733433509789462,images/picture_3.png,2,"[11.733433509789464, 11.733433509789462]",11.733433509789464,11.733433509789462,0,1,1,1.114010525684081,2.114010525684081,0.8859894743159189,3.0,1,1.864010525684081,0,4.0,3.0,1,2,5,0,5,0,0,8,8,3,,,,,,,0.0029503749683499336,519.4342918749899,519.4342918749899,520.4396844159346,521.0401041249279,521.0401041249279,521.0401041249279,521.3071686249459,521.9399114579428,521.9399114579428,521.9399114579428,521.9199380410137,522.9201884579379,4.505378584028222,200003,005,2023-03-22_13h42.39.431,DMS_et_12-36,2022.2.4,None,
,,,,,,,,,,,,,,,,,,,,,,,,,,,,,,,,,,,5,0,5,0,,,,,,,,,524.1011445829645,536.6352479999186,,,,,,,,,,,,,,,200003,005,2023-03-22_13h42.39.431,DMS_et_12-36,2022.2.4,None,
54,PRED,12,1.114010525684081,0,images/picture_1.png,images/picture_1.png,0,"[11.733433509789464, 11.733433509789462]",11.733433509789464,11.733433509789462,images/picture_2.png,1,"[-11.733433509789462, 11.733433509789464]",-11.733433509789462,11.733433509789464,images/picture_3.png,2,"[-11.733433509789466, -11.733433509789462]",-11.733433509789464,-11.733433509789462,0,1,1,1.114010525684081,2.114010525684081,0.8859894743159189,3.0,1,1.864010525684081,0,4.0,3.0,1,2,6,0,6,0,0,0,0,0,,,,,,,0.0027595830615609884,536.6352479999186,536.6352479999186,537.6397526249057,538.2397319159936,538.2397319159936,538.2397319159936,538.5057420409285,539.1397304999409,539.1397304999409,539.1397304999409,539.1202427499229,540.1201731659239,4.4986253750976175,200003,005,2023-03-22_13h42.39.431,DMS_et_12-36,2022.2.4,None,
56,PRED,12,1.114010525684081,0,images/picture_1.png,images/picture_1.png,0,"[-11.733433509789466, -11.733433509789462]",-11.733433509789464,-11.733433509789462,images/picture_2.png,1,"[11.733433509789464, 11.733433509789462]",11.733433509789464,11.733433509789462,images/picture_3.png,2,"[-11.733433509789462, 11.733433509789464]",-11.733433509789462,11.733433509789464,0,1,1,1.114010525684081,2.114010525684081,0.8859894743159189,3.0,1,1.864010525684081,0,4.0,3.0,1,2,6,0,6,0,0,1,1,2,,,,,,,0.004465749952942133,541.6517870830139,541.6517870830139,542.6536770829698,543.253622374963,543.253622374963,543.253622374963,543.5202319159871,544.1532382909209,544.1532382909209,544.1532382909209,544.1390440829564,545.1536737079732,4.511104332981631,200003,005,2023-03-22_13h42.39.431,DMS_et_12-36,2022.2.4,None,
60,PRED,12,1.114010525684081,0,images/picture_1.png,images/picture_1.png,0,"[-11.733433509789462, 11.733433509789464]",-11.733433509789462,11.733433509789464,images/picture_2.png,1,"[11.733433509789462, -11.733433509789466]",11.733433509789462,-11.733433509789464,images/picture_3.png,2,"[-11.733433509789466, -11.733433509789462]",-11.733433509789464,-11.733433509789462,0,1,1,1.114010525684081,2.114010525684081,0.8859894743159189,3.0,1,1.864010525684081,0,4.0,3.0,1,2,6,0,6,0,0,2,2,6,,,,,,,0.0037085829535499215,546.6754265829222,546.6754265829222,547.6867376249284,548.2731464579701,548.2731464579701,548.2731464579701,548.5536799579859,549.1729624159634,549.1729624159634,549.1729624159634,549.1534657080192,550.1537324159872,4.5204778329934925,200003,005,2023-03-22_13h42.39.431,DMS_et_12-36,2022.2.4,None,
57,PRED,12,1.114010525684081,0,images/picture_1.png,images/picture_1.png,0,"[-11.733433509789466, -11.733433509789462]",-11.733433509789464,-11.733433509789462,images/picture_2.png,1,"[11.733433509789464, 11.733433509789462]",11.733433509789464,11.733433509789462,images/picture_3.png,2,"[-11.733433509789462, 11.733433509789464]",-11.733433509789462,11.733433509789464,0,1,1,1.114010525684081,2.114010525684081,0.8859894743159189,3.0,1,1.864010525684081,0,4.0,3.0,1,2,6,0,6,0,0,3,3,3,,,,,,,0.00505670893471688,551.7025934580015,551.7025934580015,552.7064476249507,553.3064254159108,553.3064254159108,553.3064254159108,553.5732575409347,554.2060307909269,554.2060307909269,554.2060307909269,554.1866284579737,555.1869417079724,4.507406499935314,200003,005,2023-03-22_13h42.39.431,DMS_et_12-36,2022.2.4,None,
61,PRED,12,1.114010525684081,0,images/picture_1.png,images/picture_1.png,0,"[11.733433509789462, -11.733433509789466]",11.733433509789462,-11.733433509789464,images/picture_2.png,1,"[-11.733433509789466, -11.733433509789462]",-11.733433509789464,-11.733433509789462,images/picture_3.png,2,"[11.733433509789464, 11.733433509789462]",11.733433509789464,11.733433509789462,0,1,1,1.114010525684081,2.114010525684081,0.8859894743159189,3.0,1,1.864010525684081,0,4.0,3.0,1,2,6,0,6,0,0,4,4,7,,,,,,,0.004493542015552521,556.7208496249514,556.7208496249514,557.7202150829835,558.3201441660058,558.3201441660058,558.3201441660058,558.5868584999116,559.2201859579654,559.2201859579654,559.2201859579654,559.2063519159565,560.2202042079298,4.510441416990943,200003,005,2023-03-22_13h42.39.431,DMS_et_12-36,2022.2.4,None,
59,PRED,12,1.114010525684081,0,images/picture_1.png,images/picture_1.png,0,"[-11.733433509789462, 11.733433509789464]",-11.733433509789462,11.733433509789464,images/picture_2.png,1,"[11.733433509789462, -11.733433509789466]",11.733433509789462,-11.733433509789464,images/picture_3.png,2,"[11.733433509789464, 11.733433509789462]",11.733433509789464,11.733433509789462,0,1,1,1.114010525684081,2.114010525684081,0.8859894743159189,3.0,1,1.864010525684081,0,4.0,3.0,1,2,6,0,6,0,0,5,5,5,,,,,,,0.003499167039990425,561.7457894999534,561.7457894999534,562.7535457909107,563.3398236659123,563.3398236659123,563.3398236659123,563.6202125829877,564.2395318750059,564.2395318750059,564.2395318750059,564.2199263329385,565.2200115409214,4.521057834033854,200003,005,2023-03-22_13h42.39.431,DMS_et_12-36,2022.2.4,None,
55,PRED,12,1.114010525684081,0,images/picture_1.png,images/picture_1.png,0,"[-11.733433509789462, 11.733433509789464]",-11.733433509789462,11.733433509789464,images/picture_2.png,1,"[11.733433509789464, 11.733433509789462]",11.733433509789464,11.733433509789462,images/picture_3.png,2,"[11.733433509789462, -11.733433509789466]",11.733433509789462,-11.733433509789464,0,1,1,1.114010525684081,2.114010525684081,0.8859894743159189,3.0,1,1.864010525684081,0,4.0,3.0,1,2,6,0,6,0,0,6,6,1,,,,,,,0.004844458075240254,566.7699934159173,566.7699934159173,567.7731156660011,568.3727498749504,568.3727498749504,568.3727498749504,568.6399674999993,569.2731230409117,569.2731230409117,569.2731230409117,569.2534434159752,570.253454624908,4.506543625029735,200003,005,2023-03-22_13h42.39.431,DMS_et_12-36,2022.2.4,None,
58,PRED,12,1.114010525684081,0,images/picture_1.png,images/picture_1.png,0,"[11.733433509789464, 11.733433509789462]",11.733433509789464,11.733433509789462,images/picture_2.png,1,"[11.733433509789462, -11.733433509789466]",11.733433509789462,-11.733433509789464,images/picture_3.png,2,"[-11.733433509789466, -11.733433509789462]",-11.733433509789464,-11.733433509789462,0,1,1,1.114010525684081,2.114010525684081,0.8859894743159189,3.0,1,1.864010525684081,0,4.0,3.0,1,2,6,0,6,0,0,7,7,4,,,,,,,0.004921458079479635,571.7868258329108,571.7868258329108,572.7868248749292,573.3869110000087,573.3869110000087,573.3869110000087,573.653674916015,574.2868868329097,574.2868868329097,574.2868868329097,574.2729030830087,575.2867664159276,4.512405208079144,200003,005,2023-03-22_13h42.39.431,DMS_et_12-36,2022.2.4,None,
62,PRED,12,1.114010525684081,0,images/picture_1.png,images/picture_1.png,0,"[11.733433509789462, -11.733433509789466]",11.733433509789462,-11.733433509789464,images/picture_2.png,1,"[-11.733433509789466, -11.733433509789462]",-11.733433509789464,-11.733433509789462,images/picture_3.png,2,"[11.733433509789464, 11.733433509789462]",11.733433509789464,11.733433509789462,0,1,1,1.114010525684081,2.114010525684081,0.8859894743159189,3.0,1,1.864010525684081,0,4.0,3.0,1,2,6,0,6,0,0,8,8,8,,,,,,,0.0036265829112380743,576.8105819999473,576.8105819999473,577.8202892909758,578.4062619159231,578.4062619159231,578.4062619159231,578.6868819579249,579.3062891659793,579.3062891659793,579.3062891659793,579.2868912079139,580.2869277499849,4.520265582948923,200003,005,2023-03-22_13h42.39.431,DMS_et_12-36,2022.2.4,None,
,,,,,,,,,,,,,,,,,,,,,,,,,,,,,,,,,,,6,0,6,0,,,,,,,,,581.4233380409423,593.9635838329559,,,,,,,,,,,,,,,200003,005,2023-03-22_13h42.39.431,DMS_et_12-36,2022.2.4,None,
67,UNPRED,12,1.114010525684081,1,images/picture_2.png,images/picture_1.png,0,"[-11.733433509789466, -11.733433509789462]",-11.733433509789464,-11.733433509789462,images/picture_2.png,1,"[11.733433509789464, 11.733433509789462]",11.733433509789464,11.733433509789462,images/picture_3.png,2,"[-11.733433509789462, 11.733433509789464]",-11.733433509789462,11.733433509789464,0,1,1,1.114010525684081,2.114010525684081,0.8859894743159189,3.0,1,1.864010525684081,0,4.0,3.0,1,2,7,0,7,0,0,0,0,4,,,,,,,0.004314334015361965,593.9635838329559,593.9635838329559,594.9736682079965,595.5533358749235,595.5533358749235,595.5533358749235,595.8389192499453,596.4533986659953,596.4533986659953,596.4533986659953,596.4533986659953,597.4535557499621,4.511415750021115,200003,005,2023-03-22_13h42.39.431,DMS_et_12-36,2022.2.4,None,
64,UNPRED,12,1.114010525684081,2,images/picture_3.png,images/picture_1.png,0,"[11.733433509789464, 11.733433509789462]",11.733433509789464,11.733433509789462,images/picture_2.png,1,"[-11.733433509789462, 11.733433509789464]",-11.733433509789462,11.733433509789464,images/picture_3.png,2,"[-11.733433509789466, -11.733433509789462]",-11.733433509789464,-11.733433509789462,0,1,1,1.114010525684081,2.114010525684081,0.8859894743159189,3.0,1,1.864010525684081,0,4.0,3.0,1,2,7,0,7,0,0,1,1,1,,,,,,,0.023556667030788958,599.0037379579153,599.0037379579153,600.0072379999328,600.5868879579939,600.5868879579939,600.5868879579939,600.873085332918,601.4867214999394,601.4867214999394,601.4867214999394,601.4730126659852,602.4869011249393,4.521554874954745,200003,005,2023-03-22_13h42.39.431,DMS_et_12-36,2022.2.4,None,
66,UNPRED,12,1.114010525684081,0,images/picture_1.png,images/picture_1.png,0,"[-11.733433509789466, -11.733433509789462]",-11.733433509789464,-11.733433509789462,images/picture_2.png,1,"[11.733433509789464, 11.733433509789462]",11.733433509789464,11.733433509789462,images/picture_3.png,2,"[-11.733433509789462, 11.733433509789464]",-11.733433509789462,11.733433509789464,0,1,1,1.114010525684081,2.114010525684081,0.8859894743159189,3.0,1,1.864010525684081,0,4.0,3.0,1,2,7,0,7,0,0,2,2,3,,,,,,,0.00794162496458739,604.0162514159456,604.0162514159456,605.0201791659929,605.6200543330051,605.6200543330051,605.6200543330051,605.8866320829839,606.5203894159058,606.5203894159058,606.5203894159058,606.5057989580091,607.5206094579771,4.5108260420383886,200003,005,2023-03-22_13h42.39.431,DMS_et_12-36,2022.2.4,None,
63,UNPRED,12,1.114010525684081,2,images/picture_3.png,images/picture_1.png,0,"[-11.733433509789462, 11.733433509789464]",-11.733433509789462,11.733433509789464,images/picture_2.png,1,"[-11.733433509789466, -11.733433509789462]",-11.733433509789464,-11.733433509789462,images/picture_3.png,2,"[11.733433509789462, -11.733433509789466]",11.733433509789462,-11.733433509789464,0,1,1,1.114010525684081,2.114010525684081,0.8859894743159189,3.0,1,1.864010525684081,0,4.0,3.0,1,2,7,0,7,0,0,3,3,0,,,,,,,0.02323541697114706,609.0546182079706,609.0546182079706,610.0533805409214,610.6396052909549,610.6396052909549,610.6396052909549,610.920198165928,611.5397469159216,611.5397469159216,611.5397469159216,611.5201215000125,612.5202769580064,4.527248499915004,200003,005,2023-03-22_13h42.39.431,DMS_et_12-36,2022.2.4,None,
69,UNPRED,12,1.114010525684081,2,images/picture_3.png,images/picture_1.png,0,"[-11.733433509789466, -11.733433509789462]",-11.733433509789464,-11.733433509789462,images/picture_2.png,1,"[11.733433509789464, 11.733433509789462]",11.733433509789464,11.733433509789462,images/picture_3.png,2,"[-11.733433509789462, 11.733433509789464]",-11.733433509789462,11.733433509789464,0,1,1,1.114010525684081,2.114010525684081,0.8859894743159189,3.0,1,1.864010525684081,0,4.0,3.0,1,2,7,0,7,0,0,4,4,6,,,,,,,0.018504500039853156,614.0898527909303,614.0898527909303,615.0868362499168,615.6727338749915,615.6727338749915,615.6727338749915,615.9531512910035,616.5728753330186,616.5728753330186,616.5728753330186,616.5533905409975,617.5536064159824,4.518281833035871,200003,005,2023-03-22_13h42.39.431,DMS_et_12-36,2022.2.4,None,
68,UNPRED,12,1.114010525684081,2,images/picture_3.png,images/picture_1.png,0,"[11.733433509789464, 11.733433509789462]",11.733433509789464,11.733433509789462,images/picture_2.png,1,"[-11.733433509789466, -11.733433509789462]",-11.733433509789464,-11.733433509789462,images/picture_3.png,2,"[-11.733433509789462, 11.733433509789464]",-11.733433509789462,11.733433509789464,0,1,1,1.114010525684081,2.114010525684081,0.8859894743159189,3.0,1,1.864010525684081,0,4.0,3.0,1,2,7,0,7,0,0,5,5,5,,,,,,,0.021058708894997835,619.11703716591,619.11703716591,620.1201641659718,620.70647799992,620.70647799992,620.70647799992,620.9868757079821,621.6062844579574,621.6062844579574,621.6062844579574,621.586889707949,622.5868787500076,4.525096124969423,200003,005,2023-03-22_13h42.39.431,DMS_et_12-36,2022.2.4,None,
65,UNPRED,12,1.114010525684081,0,images/picture_1.png,images/picture_1.png,0,"[11.733433509789462, -11.733433509789466]",11.733433509789462,-11.733433509789464,images/picture_2.png,1,"[-11.733433509789466, -11.733433509789462]",-11.733433509789464,-11.733433509789462,images/picture_3.png,2,"[-11.733433509789462, 11.733433509789464]",-11.733433509789462,11.733433509789464,0,1,1,1.114010525684081,2.114010525684081,0.8859894743159189,3.0,1,1.864010525684081,0,4.0,3.0,1,2,7,0,7,0,0,6,6,2,,,,,,,0.007977084023877978,624.1410799159203,624.1410799159203,625.1534692079294,625.7396157910116,625.7396157910116,625.7396157910116,626.0198768329574,626.6388972079149,626.6388972079149,626.6388972079149,626.6200695829466,627.6203017499065,4.525365834007971,200003,005,2023-03-22_13h42.39.431,DMS_et_12-36,2022.2.4,None,
71,UNPRED,12,1.114010525684081,2,images/picture_3.png,images/picture_1.png,0,"[-11.733433509789462, 11.733433509789464]",-11.733433509789462,11.733433509789464,images/picture_2.png,1,"[11.733433509789462, -11.733433509789466]",11.733433509789462,-11.733433509789464,images/picture_3.png,2,"[11.733433509789464, 11.733433509789462]",11.733433509789464,11.733433509789462,0,1,1,1.114010525684081,2.114010525684081,0.8859894743159189,3.0,1,1.864010525684081,0,4.0,3.0,1,2,7,0,7,0,0,7,7,8,,,,,,,0.019862999906763434,629.1915477910079,629.1915477910079,630.2064684579382,630.772923749988,630.772923749988,630.772923749988,631.0534874579171,631.6730531660141,631.6730531660141,631.6730531660141,631.6534812499303,632.6535345409065,4.532564332941547,200003,005,2023-03-22_13h42.39.431,DMS_et_12-36,2022.2.4,None,
70,UNPRED,12,1.114010525684081,0,images/picture_1.png,images/picture_1.png,0,"[11.733433509789464, 11.733433509789462]",11.733433509789464,11.733433509789462,images/picture_2.png,1,"[-11.733433509789462, 11.733433509789464]",-11.733433509789462,11.733433509789464,images/picture_3.png,2,"[11.733433509789462, -11.733433509789466]",11.733433509789462,-11.733433509789464,0,1,1,1.114010525684081,2.114010525684081,0.8859894743159189,3.0,1,1.864010525684081,0,4.0,3.0,1,2,7,0,7,0,0,8,8,7,,,,,,,0.007318624993786216,634.2154810409993,634.2154810409993,635.2202640830074,635.8202456659637,635.8202456659637,635.8202456659637,636.08672199992,636.7200070410036,636.7200070410036,636.7200070410036,636.7092307499843,637.7201912909513,4.511237915954553,200003,005,2023-03-22_13h42.39.431,DMS_et_12-36,2022.2.4,None,
,,,,,,,,,,,,,,,,,,,,,,,,,,,,,,,,,,,7,0,7,0,,,,,,,,,638.8295310829999,651.3810540409759,,,,,,,,,,,,,,,200003,005,2023-03-22_13h42.39.431,DMS_et_12-36,2022.2.4,None,
73,PRED,12,1.114010525684081,1,images/picture_2.png,images/picture_1.png,0,"[11.733433509789462, -11.733433509789466]",11.733433509789462,-11.733433509789464,images/picture_2.png,1,"[11.733433509789464, 11.733433509789462]",11.733433509789464,11.733433509789462,images/picture_3.png,2,"[-11.733433509789466, -11.733433509789462]",-11.733433509789464,-11.733433509789462,0,1,1,1.114010525684081,2.114010525684081,0.8859894743159189,3.0,1,1.864010525684081,0,4.0,3.0,1,2,8,0,8,0,0,0,0,1,,,,,,,0.004404334002174437,651.3810540409759,651.3810540409759,652.3868818749906,652.9866779579315,652.9866779579315,652.9866779579315,653.2534785829484,653.8870232909685,653.8870232909685,653.8870232909685,653.8731480829883,654.8869664159138,4.513544666930102,200003,005,2023-03-22_13h42.39.431,DMS_et_12-36,2022.2.4,None,
78,PRED,12,1.114010525684081,1,images/picture_2.png,images/picture_1.png,0,"[-11.733433509789466, -11.733433509789462]",-11.733433509789464,-11.733433509789462,images/picture_2.png,1,"[11.733433509789462, -11.733433509789466]",11.733433509789462,-11.733433509789464,images/picture_3.png,2,"[-11.733433509789462, 11.733433509789464]",-11.733433509789462,11.733433509789464,0,1,1,1.114010525684081,2.114010525684081,0.8859894743159189,3.0,1,1.864010525684081,0,4.0,3.0,1,2,8,0,8,0,0,1,1,6,,,,,,,0.002085082931444049,656.4010523749748,656.4010523749748,657.4058534159558,658.006806874997,658.006806874997,658.006806874997,658.2722194999224,658.9053152910201,658.9053152910201,658.9053152910201,658.8864179579541,659.8867481249617,4.503739665960893,200003,005,2023-03-22_13h42.39.431,DMS_et_12-36,2022.2.4,None,
77,PRED,12,1.114010525684081,1,images/picture_2.png,images/picture_1.png,0,"[11.733433509789464, 11.733433509789462]",11.733433509789464,11.733433509789462,images/picture_2.png,1,"[-11.733433509789466, -11.733433509789462]",-11.733433509789464,-11.733433509789462,images/picture_3.png,2,"[11.733433509789462, -11.733433509789466]",11.733433509789462,-11.733433509789464,0,1,1,1.114010525684081,2.114010525684081,0.8859894743159189,3.0,1,1.864010525684081,0,4.0,3.0,1,2,8,0,8,0,0,2,2,5,,,,,,,0.003896165988408029,661.4155837500002,661.4155837500002,662.420246707974,663.0202460410073,663.0202460410073,663.0202460410073,663.286964791012,663.92021199991,663.92021199991,663.92021199991,663.9063002499752,664.9202232499374,4.511563082924113,200003,005,2023-03-22_13h42.39.431,DMS_et_12-36,2022.2.4,None,
74,PRED,12,1.114010525684081,1,images/picture_2.png,images/picture_1.png,0,"[-11.733433509789466, -11.733433509789462]",-11.733433509789464,-11.733433509789462,images/picture_2.png,1,"[-11.733433509789462, 11.733433509789464]",-11.733433509789462,11.733433509789464,images/picture_3.png,2,"[11.733433509789462, -11.733433509789466]",11.733433509789462,-11.733433509789464,0,1,1,1.114010525684081,2.114010525684081,0.8859894743159189,3.0,1,1.864010525684081,0,4.0,3.0,1,2,8,0,8,0,0,3,3,2,,,,,,,0.005097375018522143,666.4423121250002,666.4423121250002,667.4533096660161,668.0390391659457,668.0390391659457,668.0390391659457,668.3202815830009,668.9398496659705,668.9398496659705,668.9398496659705,668.9200578329619,669.9202028330183,4.519967000000179,200003,005,2023-03-22_13h42.39.431,DMS_et_12-36,2022.2.4,None,
80,PRED,12,1.114010525684081,1,images/picture_2.png,images/picture_1.png,0,"[11.733433509789462, -11.733433509789466]",11.733433509789462,-11.733433509789464,images/picture_2.png,1,"[-11.733433509789462, 11.733433509789464]",-11.733433509789462,11.733433509789464,images/picture_3.png,2,"[11.733433509789464, 11.733433509789462]",11.733433509789464,11.733433509789462,0,1,1,1.114010525684081,2.114010525684081,0.8859894743159189,3.0,1,1.864010525684081,0,4.0,3.0,1,2,8,0,8,0,0,4,4,8,,,,,,,0.005842500017024577,671.4678473329404,671.4678473329404,672.4729849579744,673.0730119999498,673.0730119999498,673.0730119999498,673.3397134579718,673.9728766250191,673.9728766250191,673.9728766250191,673.9534485829063,674.953367708018,4.504427667008713,200003,005,2023-03-22_13h42.39.431,DMS_et_12-36,2022.2.4,None,
79,PRED,12,1.114010525684081,1,images/picture_2.png,images/picture_1.png,0,"[-11.733433509789466, -11.733433509789462]",-11.733433509789464,-11.733433509789462,images/picture_2.png,1,"[-11.733433509789462, 11.733433509789464]",-11.733433509789462,11.733433509789464,images/picture_3.png,2,"[11.733433509789462, -11.733433509789466]",11.733433509789462,-11.733433509789464,0,1,1,1.114010525684081,2.114010525684081,0.8859894743159189,3.0,1,1.864010525684081,0,4.0,3.0,1,2,8,0,8,0,0,5,5,7,,,,,,,0.006538541056215763,676.4858657079749,676.4858657079749,677.4866143749095,678.0868330409285,678.0868330409285,678.0868330409285,678.353133165976,678.9869702499127,678.9869702499127,678.9869702499127,678.9719992079772,679.9869074159069,4.511433958075941,200003,005,2023-03-22_13h42.39.431,DMS_et_12-36,2022.2.4,None,
76,PRED,12,1.114010525684081,1,images/picture_2.png,images/picture_1.png,0,"[-11.733433509789466, -11.733433509789462]",-11.733433509789464,-11.733433509789462,images/picture_2.png,1,"[11.733433509789464, 11.733433509789462]",11.733433509789464,11.733433509789462,images/picture_3.png,2,"[-11.733433509789462, 11.733433509789464]",-11.733433509789462,11.733433509789464,0,1,1,1.114010525684081,2.114010525684081,0.8859894743159189,3.0,1,1.864010525684081,0,4.0,3.0,1,2,8,0,8,0,0,6,6,4,,,,,,,0.005534374970011413,681.5090302909957,681.5090302909957,682.5201970409835,683.1065531249624,683.1065531249624,683.1065531249624,683.386903333012,684.0059146250132,684.0059146250132,684.0059146250132,683.9865384160075,684.9868924159091,4.520598041941412,200003,005,2023-03-22_13h42.39.431,DMS_et_12-36,2022.2.4,None,
72,PRED,12,1.114010525684081,1,images/picture_2.png,images/picture_1.png,0,"[-11.733433509789466, -11.733433509789462]",-11.733433509789464,-11.733433509789462,images/picture_2.png,1,"[-11.733433509789462, 11.733433509789464]",-11.733433509789462,11.733433509789464,images/picture_3.png,2,"[11.733433509789464, 11.733433509789462]",11.733433509789464,11.733433509789462,0,1,1,1.114010525684081,2.114010525684081,0.8859894743159189,3.0,1,1.864010525684081,0,4.0,3.0,1,2,8,0,8,0,0,7,7,0,,,,,,,0.0065851249964907765,686.5346204579109,686.5346204579109,687.5397481250111,688.140075666015,688.140075666015,688.140075666015,688.4058955829823,689.0397863329854,689.0397863329854,689.0397863329854,689.020260249963,690.020139375003,4.506126709049568,200003,005,2023-03-22_13h42.39.431,DMS_et_12-36,2022.2.4,None,
75,PRED,12,1.114010525684081,1,images/picture_2.png,images/picture_1.png,0,"[11.733433509789464, 11.733433509789462]",11.733433509789464,11.733433509789462,images/picture_2.png,1,"[-11.733433509789462, 11.733433509789464]",-11.733433509789462,11.733433509789464,images/picture_3.png,2,"[-11.733433509789466, -11.733433509789462]",-11.733433509789464,-11.733433509789462,0,1,1,1.114010525684081,2.114010525684081,0.8859894743159189,3.0,1,1.864010525684081,0,4.0,3.0,1,2,8,0,8,0,0,8,8,3,,,,,,,0.006612166063860059,691.553539665998,691.553539665998,692.5537422909401,693.1534620829625,693.1534620829625,693.1534620829625,693.4207576659974,694.0534609579481,694.0534609579481,694.0534609579481,694.0397497079102,695.0534572909819,4.510946499998681,200003,005,2023-03-22_13h42.39.431,DMS_et_12-36,2022.2.4,None,
,,,,,,,,,,,,,,,,,,,,,,,,,,,,,,,,,,,8,0,8,0,,,,,,,,,696.1756257909583,708.703948790906,,,,,,,,,,,,,,,200003,005,2023-03-22_13h42.39.431,DMS_et_12-36,2022.2.4,None,
83,UNPRED,12,1.114010525684081,0,images/picture_1.png,images/picture_1.png,0,"[-11.733433509789462, 11.733433509789464]",-11.733433509789462,11.733433509789464,images/picture_2.png,1,"[-11.733433509789466, -11.733433509789462]",-11.733433509789464,-11.733433509789462,images/picture_3.png,2,"[11.733433509789462, -11.733433509789466]",11.733433509789462,-11.733433509789464,0,1,1,1.114010525684081,2.114010525684081,0.8859894743159189,3.0,1,1.864010525684081,0,4.0,3.0,1,2,9,0,9,0,0,0,0,2,,,,,,,0.002210875041782856,708.703948790906,708.703948790906,709.7065556659363,710.3057641659398,710.3057641659398,710.3057641659398,710.5720519579481,711.2065065409988,711.2065065409988,711.2065065409988,711.1869228329742,712.1869111249689,4.497509750071913,200003,005,2023-03-22_13h42.39.431,DMS_et_12-36,2022.2.4,None,
82,UNPRED,12,1.114010525684081,1,images/picture_2.png,images/picture_1.png,0,"[-11.733433509789466, -11.733433509789462]",-11.733433509789464,-11.733433509789462,images/picture_2.png,1,"[11.733433509789462, -11.733433509789466]",11.733433509789462,-11.733433509789464,images/picture_3.png,2,"[-11.733433509789462, 11.733433509789464]",-11.733433509789462,11.733433509789464,0,1,1,1.114010525684081,2.114010525684081,0.8859894743159189,3.0,1,1.864010525684081,0,4.0,3.0,1,2,9,0,9,0,0,1,1,1,,,,,,,0.0050840419717133045,713.7146906659473,713.7146906659473,714.7201633329969,715.3199011249235,715.3199011249235,715.3199011249235,715.586451665964,716.2202365410049,716.2202365410049,716.2202365410049,716.205833582906,717.2199464159785,4.508292124955915,200003,005,2023-03-22_13h42.39.431,DMS_et_12-36,2022.2.4,None,
88,UNPRED,12,1.114010525684081,2,images/picture_3.png,images/picture_1.png,0,"[-11.733433509789462, 11.733433509789464]",-11.733433509789462,11.733433509789464,images/picture_2.png,1,"[-11.733433509789466, -11.733433509789462]",-11.733433509789464,-11.733433509789462,images/picture_3.png,2,"[11.733433509789462, -11.733433509789466]",11.733433509789462,-11.733433509789464,0,1,1,1.114010525684081,2.114010525684081,0.8859894743159189,3.0,1,1.864010525684081,0,4.0,3.0,1,2,9,0,9,0,0,2,2,7,,,,,,,0.0115813750308007,718.741106832982,718.741106832982,719.7537214579061,720.3397110829828,720.3397110829828,720.3397110829828,720.62039120798,721.2397323329933,721.2397323329933,721.2397323329933,721.2202024579747,722.2202141250018,4.528541542007588,200003,005,2023-03-22_13h42.39.431,DMS_et_12-36,2022.2.4,None,
81,UNPRED,12,1.114010525684081,2,images/picture_3.png,images/picture_1.png,0,"[11.733433509789462, -11.733433509789466]",11.733433509789462,-11.733433509789464,images/picture_2.png,1,"[-11.733433509789462, 11.733433509789464]",-11.733433509789462,11.733433509789464,images/picture_3.png,2,"[11.733433509789464, 11.733433509789462]",11.733433509789464,11.733433509789462,0,1,1,1.114010525684081,2.114010525684081,0.8859894743159189,3.0,1,1.864010525684081,0,4.0,3.0,1,2,9,0,9,0,0,3,3,0,,,,,,,0.02059854194521904,723.79431204102,723.79431204102,724.8060620829929,725.3725236660102,725.3725236660102,725.3725236660102,725.6734392499784,726.2733005830087,726.2733005830087,726.2733005830087,726.2534954159055,727.2536276249448,4.533277082955465,200003,005,2023-03-22_13h42.39.431,DMS_et_12-36,2022.2.4,None,
89,UNPRED,12,1.114010525684081,1,images/picture_2.png,images/picture_1.png,0,"[-11.733433509789466, -11.733433509789462]",-11.733433509789464,-11.733433509789462,images/picture_2.png,1,"[11.733433509789464, 11.733433509789462]",11.733433509789464,11.733433509789462,images/picture_3.png,2,"[-11.733433509789462, 11.733433509789464]",-11.733433509789462,11.733433509789464,0,1,1,1.114010525684081,2.114010525684081,0.8859894743159189,3.0,1,1.864010525684081,0,4.0,3.0,1,2,9,0,9,0,0,4,4,8,,,,,,,0.005439958069473505,728.8101678749081,728.8101678749081,729.8200488749426,730.4201985410182,730.4201985410182,730.4201985410182,730.6865467500174,731.3201236659661,731.3201236659661,731.3201236659661,731.3061869159574,732.3202027910156,4.5129251250764355,200003,005,2023-03-22_13h42.39.431,DMS_et_12-36,2022.2.4,None,
87,UNPRED,12,1.114010525684081,0,images/picture_1.png,images/picture_1.png,0,"[11.733433509789462, -11.733433509789466]",11.733433509789462,-11.733433509789464,images/picture_2.png,1,"[-11.733433509789466, -11.733433509789462]",-11.733433509789464,-11.733433509789462,images/picture_3.png,2,"[11.733433509789464, 11.733433509789462]",11.733433509789464,11.733433509789462,0,1,1,1.114010525684081,2.114010525684081,0.8859894743159189,3.0,1,1.864010525684081,0,4.0,3.0,1,2,9,0,9,0,0,5,5,6,,,,,,,0.007788749993778765,733.8405679579591,733.8405679579591,734.8534700829769,735.439840832958,735.439840832958,735.439840832958,735.7202018329408,736.3394982909085,736.3394982909085,736.3394982909085,736.3201447909232,737.3200443329988,4.5260375830112025,200003,005,2023-03-22_13h42.39.431,DMS_et_12-36,2022.2.4,None,
85,UNPRED,12,1.114010525684081,2,images/picture_3.png,images/picture_1.png,0,"[-11.733433509789462, 11.733433509789464]",-11.733433509789462,11.733433509789464,images/picture_2.png,1,"[11.733433509789462, -11.733433509789466]",11.733433509789462,-11.733433509789464,images/picture_3.png,2,"[-11.733433509789466, -11.733433509789462]",-11.733433509789464,-11.733433509789462,0,1,1,1.114010525684081,2.114010525684081,0.8859894743159189,3.0,1,1.864010525684081,0,4.0,3.0,1,2,9,0,9,0,0,6,6,4,,,,,,,0.016680417000316083,738.8810009999434,738.8810009999434,739.8869907499757,740.4733275409089,740.4733275409089,740.4733275409089,740.7537442079047,741.3725096249254,741.3725096249254,741.3725096249254,741.3532794999192,742.3530755829997,4.522588542080484,200003,005,2023-03-22_13h42.39.431,DMS_et_12-36,2022.2.4,None,
84,UNPRED,12,1.114010525684081,0,images/picture_1.png,images/picture_1.png,0,"[11.733433509789464, 11.733433509789462]",11.733433509789464,11.733433509789462,images/picture_2.png,1,"[-11.733433509789462, 11.733433509789464]",-11.733433509789462,11.733433509789464,images/picture_3.png,2,"[-11.733433509789466, -11.733433509789462]",-11.733433509789464,-11.733433509789462,0,1,1,1.114010525684081,2.114010525684081,0.8859894743159189,3.0,1,1.864010525684081,0,4.0,3.0,1,2,9,0,9,0,0,7,7,3,,,,,,,0.007105082971975207,743.9045374579728,743.9045374579728,744.9201268749312,745.5057990410132,745.5057990410132,745.5057990410132,745.7729540829314,746.4063035409199,746.4063035409199,746.4063035409199,746.38688383298,747.3870004159398,4.505580583005212,200003,005,2023-03-22_13h42.39.431,DMS_et_12-36,2022.2.4,None,
86,UNPRED,12,1.114010525684081,2,images/picture_3.png,images/picture_1.png,0,"[-11.733433509789466, -11.733433509789462]",-11.733433509789464,-11.733433509789462,images/picture_2.png,1,"[11.733433509789464, 11.733433509789462]",11.733433509789464,11.733433509789462,images/picture_3.png,2,"[-11.733433509789462, 11.733433509789464]",-11.733433509789462,11.733433509789464,0,1,1,1.114010525684081,2.114010525684081,0.8859894743159189,3.0,1,1.864010525684081,0,4.0,3.0,1,2,9,0,9,0,0,8,8,5,,,,,,,0.020023665972985327,748.9345541249495,748.9345541249495,749.939887540997,750.5201377499616,750.5201377499616,750.5201377499616,750.8069678749889,751.4199319999898,751.4199319999898,751.4199319999898,751.4058171249926,752.4201811249368,4.5206692080246285,200003,005,2023-03-22_13h42.39.431,DMS_et_12-36,2022.2.4,None,
,,,,,,,,,,,,,,,,,,,,,,,,,,,,,,,,,,,9,0,9,0,,,,,,,,,753.5628442909801,766.1175860409858,,,,,,,,,,,,,,,200003,005,2023-03-22_13h42.39.431,DMS_et_12-36,2022.2.4,None,
90,PRED,12,1.114010525684081,2,images/picture_3.png,images/picture_1.png,0,"[-11.733433509789462, 11.733433509789464]",-11.733433509789462,11.733433509789464,images/picture_2.png,1,"[-11.733433509789466, -11.733433509789462]",-11.733433509789464,-11.733433509789462,images/picture_3.png,2,"[11.733433509789464, 11.733433509789462]",11.733433509789464,11.733433509789462,0,1,1,1.114010525684081,2.114010525684081,0.8859894743159189,3.0,1,1.864010525684081,0,4.0,3.0,1,2,10,0,10,0,0,0,0,0,,,,,,,0.012792250025086105,766.1175860409858,766.1175860409858,767.1199703749735,767.7199699159246,767.7199699159246,767.7199699159246,767.9868814999936,768.6202126659919,768.6202126659919,768.6202126659919,768.6065625409828,769.6199762079632,4.5145227500470355,200003,005,2023-03-22_13h42.39.431,DMS_et_12-36,2022.2.4,None,
95,PRED,12,1.114010525684081,2,images/picture_3.png,images/picture_1.png,0,"[11.733433509789462, -11.733433509789466]",11.733433509789462,-11.733433509789464,images/picture_2.png,1,"[-11.733433509789466, -11.733433509789462]",-11.733433509789464,-11.733433509789462,images/picture_3.png,2,"[-11.733433509789462, 11.733433509789464]",-11.733433509789462,11.733433509789464,0,1,1,1.114010525684081,2.114010525684081,0.8859894743159189,3.0,1,1.864010525684081,0,4.0,3.0,1,2,10,0,10,0,0,1,1,5,,,,,,,0.010533416992984712,771.1423705829075,771.1423705829075,772.1534319579368,772.7385252079694,772.7385252079694,772.7385252079694,773.0200113329338,773.6387151249219,773.6387151249219,773.6387151249219,773.6197658330202,774.620960582979,4.524993916973472,200003,005,2023-03-22_13h42.39.431,DMS_et_12-36,2022.2.4,None,
97,PRED,12,1.114010525684081,2,images/picture_3.png,images/picture_1.png,0,"[-11.733433509789462, 11.733433509789464]",-11.733433509789462,11.733433509789464,images/picture_2.png,1,"[-11.733433509789466, -11.733433509789462]",-11.733433509789464,-11.733433509789462,images/picture_3.png,2,"[11.733433509789464, 11.733433509789462]",11.733433509789464,11.733433509789462,0,1,1,1.114010525684081,2.114010525684081,0.8859894743159189,3.0,1,1.864010525684081,0,4.0,3.0,1,2,10,0,10,0,0,2,2,7,,,,,,,0.018198125064373016,776.1919655000092,776.1919655000092,777.2060656249523,777.7731182909338,777.7731182909338,777.7731182909338,778.0536094999406,778.6728602909716,778.6728602909716,778.6728602909716,778.653497583,779.6532354999799,4.533881000010297,200003,005,2023-03-22_13h42.39.431,DMS_et_12-36,2022.2.4,None,
92,PRED,12,1.114010525684081,2,images/picture_3.png,images/picture_1.png,0,"[-11.733433509789462, 11.733433509789464]",-11.733433509789462,11.733433509789464,images/picture_2.png,1,"[11.733433509789462, -11.733433509789466]",11.733433509789462,-11.733433509789464,images/picture_3.png,2,"[-11.733433509789466, -11.733433509789462]",-11.733433509789464,-11.733433509789462,0,1,1,1.114010525684081,2.114010525684081,0.8859894743159189,3.0,1,1.864010525684081,0,4.0,3.0,1,2,10,0,10,0,0,3,3,2,,,,,,,0.020244084065780044,781.2315754159354,781.2315754159354,782.2399714579806,782.8201073330129,782.8201073330129,782.8201073330129,783.1063550409162,783.7201245829929,783.7201245829929,783.7201245829929,783.7062947079539,784.7202003749553,4.526035916991532,200003,005,2023-03-22_13h42.39.431,DMS_et_12-36,2022.2.4,None,
93,PRED,12,1.114010525684081,2,images/picture_3.png,images/picture_1.png,0,"[11.733433509789464, 11.733433509789462]",11.733433509789464,11.733433509789462,images/picture_2.png,1,"[-11.733433509789466, -11.733433509789462]",-11.733433509789464,-11.733433509789462,images/picture_3.png,2,"[-11.733433509789462, 11.733433509789464]",-11.733433509789462,11.733433509789464,0,1,1,1.114010525684081,2.114010525684081,0.8859894743159189,3.0,1,1.864010525684081,0,4.0,3.0,1,2,10,0,10,0,0,4,4,3,,,,,,,0.021103624952957034,786.2625659999903,786.2625659999903,787.2730705830036,787.853450082941,787.853450082941,787.853450082941,788.1397150829434,788.7536245000083,788.7536245000083,788.7536245000083,788.7395299159689,789.753494833014,4.526304458035156,200003,005,2023-03-22_13h42.39.431,DMS_et_12-36,2022.2.4,None,
91,PRED,12,1.114010525684081,2,images/picture_3.png,images/picture_1.png,0,"[-11.733433509789462, 11.733433509789464]",-11.733433509789462,11.733433509789464,images/picture_2.png,1,"[-11.733433509789466, -11.733433509789462]",-11.733433509789464,-11.733433509789462,images/picture_3.png,2,"[11.733433509789462, -11.733433509789466]",11.733433509789462,-11.733433509789464,0,1,1,1.114010525684081,2.114010525684081,0.8859894743159189,3.0,1,1.864010525684081,0,4.0,3.0,1,2,10,0,10,0,0,5,5,1,,,,,,,0.009716041968204081,791.2815825829748,791.2815825829748,792.2869591659401,792.8867744579911,792.8867744579911,792.8867744579911,793.1534271249548,793.7868957909523,793.7868957909523,793.7868957909523,793.7723138330039,794.7869440409122,4.513879042002372,200003,005,2023-03-22_13h42.39.431,DMS_et_12-36,2022.2.4,None,
96,PRED,12,1.114010525684081,2,images/picture_3.png,images/picture_1.png,0,"[-11.733433509789466, -11.733433509789462]",-11.733433509789464,-11.733433509789462,images/picture_2.png,1,"[11.733433509789464, 11.733433509789462]",11.733433509789464,11.733433509789462,images/picture_3.png,2,"[11.733433509789462, -11.733433509789466]",11.733433509789462,-11.733433509789464,0,1,1,1.114010525684081,2.114010525684081,0.8859894743159189,3.0,1,1.864010525684081,0,4.0,3.0,1,2,10,0,10,0,0,6,6,6,,,,,,,0.020170208998024464,796.3137992499396,796.3137992499396,797.3201795410132,797.906323208008,797.906323208008,797.906323208008,798.1869609159185,798.8064660829259,798.8064660829259,798.8064660829259,798.7869415410096,799.7870844999561,4.525304916896857,200003,005,2023-03-22_13h42.39.431,DMS_et_12-36,2022.2.4,None,
98,PRED,12,1.114010525684081,2,images/picture_3.png,images/picture_1.png,0,"[11.733433509789464, 11.733433509789462]",11.733433509789464,11.733433509789462,images/picture_2.png,1,"[-11.733433509789462, 11.733433509789464]",-11.733433509789462,11.733433509789464,images/picture_3.png,2,"[11.733433509789462, -11.733433509789466]",11.733433509789462,-11.733433509789464,0,1,1,1.114010525684081,2.114010525684081,0.8859894743159189,3.0,1,1.864010525684081,0,4.0,3.0,1,2,10,0,10,0,0,7,7,8,,,,,,,0.01118208293337375,801.3366371250013,801.3366371250013,802.3397765830159,802.9435839159414,802.9435839159414,802.9435839159414,803.2061728750123,803.8393487909343,803.8393487909343,803.8393487909343,803.8393487909343,804.8534514999483,4.508765707956627,200003,005,2023-03-22_13h42.39.431,DMS_et_12-36,2022.2.4,None,
94,PRED,12,1.114010525684081,2,images/picture_3.png,images/picture_1.png,0,"[11.733433509789462, -11.733433509789466]",11.733433509789462,-11.733433509789464,images/picture_2.png,1,"[11.733433509789464, 11.733433509789462]",11.733433509789464,11.733433509789462,images/picture_3.png,2,"[-11.733433509789462, 11.733433509789464]",-11.733433509789462,11.733433509789464,0,1,1,1.114010525684081,2.114010525684081,0.8859894743159189,3.0,1,1.864010525684081,0,4.0,3.0,1,2,10,0,10,0,0,8,8,4,,,,,,,0.02182483405340463,806.3583649159409,806.3583649159409,807.3732442909386,807.9530516659142,807.9530516659142,807.9530516659142,808.2202051249333,808.8534892909229,808.8534892909229,808.8534892909229,808.8413037909195,809.8722430409398,4.526103750104085,200003,005,2023-03-22_13h42.39.431,DMS_et_12-36,2022.2.4,None,
,,,,,,,,,,,,,,,,,,,,,,,,,,,,,,,,,,,10,0,10,0,,,,,,,,,810.9698221659055,823.510524207959,,,,,,,,,,,,,,,200003,005,2023-03-22_13h42.39.431,DMS_et_12-36,2022.2.4,None,
105,UNPRED,12,1.114010525684081,0,images/picture_1.png,images/picture_1.png,0,"[11.733433509789464, 11.733433509789462]",11.733433509789464,11.733433509789462,images/picture_2.png,1,"[-11.733433509789466, -11.733433509789462]",-11.733433509789464,-11.733433509789462,images/picture_3.png,2,"[-11.733433509789462, 11.733433509789464]",-11.733433509789462,11.733433509789464,0,1,1,1.114010525684081,2.114010525684081,0.8859894743159189,3.0,1,1.864010525684081,0,4.0,3.0,1,2,11,0,11,0,0,0,0,6,,,,,,,0.004199290997348726,823.510524207959,823.510524207959,824.5202616659226,825.1202745409682,825.1202745409682,825.1202745409682,825.3867070409469,826.0199232499581,826.0199232499581,826.0199232499581,826.0061947079375,827.0202316249488,4.5112754160072654,200003,005,2023-03-22_13h42.39.431,DMS_et_12-36,2022.2.4,None,
104,UNPRED,12,1.114010525684081,1,images/picture_2.png,images/picture_1.png,0,"[11.733433509789462, -11.733433509789466]",11.733433509789462,-11.733433509789464,images/picture_2.png,1,"[11.733433509789464, 11.733433509789462]",11.733433509789464,11.733433509789462,images/picture_3.png,2,"[-11.733433509789466, -11.733433509789462]",-11.733433509789464,-11.733433509789462,0,1,1,1.114010525684081,2.114010525684081,0.8859894743159189,3.0,1,1.864010525684081,0,4.0,3.0,1,2,11,0,11,0,0,1,1,5,,,,,,,0.005253415904007852,828.5308387909317,828.5308387909317,829.5388497079257,830.1400236659683,830.1400236659683,830.1400236659683,830.4054707079194,831.0394195829285,831.0394195829285,831.0394195829285,831.0198838330107,832.0198304159567,4.506768374936655,200003,005,2023-03-22_13h42.39.431,DMS_et_12-36,2022.2.4,None,
102,UNPRED,12,1.114010525684081,1,images/picture_2.png,images/picture_1.png,0,"[-11.733433509789462, 11.733433509789464]",-11.733433509789462,11.733433509789464,images/picture_2.png,1,"[-11.733433509789466, -11.733433509789462]",-11.733433509789464,-11.733433509789462,images/picture_3.png,2,"[11.733433509789462, -11.733433509789466]",11.733433509789462,-11.733433509789464,0,1,1,1.114010525684081,2.114010525684081,0.8859894743159189,3.0,1,1.864010525684081,0,4.0,3.0,1,2,11,0,11,0,0,2,2,3,,,,,,,0.006070583942346275,833.5474076250102,833.5474076250102,834.5536095829448,835.1535609579878,835.1535609579878,835.1535609579878,835.4202087909216,836.0535609159851,836.0535609159851,836.0535609159851,836.0393355409615,837.053808290977,4.511871166992933,200003,005,2023-03-22_13h42.39.431,DMS_et_12-36,2022.2.4,None,
107,UNPRED,12,1.114010525684081,2,images/picture_3.png,images/picture_1.png,0,"[11.733433509789462, -11.733433509789466]",11.733433509789462,-11.733433509789464,images/picture_2.png,1,"[11.733433509789464, 11.733433509789462]",11.733433509789464,11.733433509789462,images/picture_3.png,2,"[-11.733433509789466, -11.733433509789462]",-11.733433509789464,-11.733433509789462,0,1,1,1.114010525684081,2.114010525684081,0.8859894743159189,3.0,1,1.864010525684081,0,4.0,3.0,1,2,11,0,11,0,0,3,3,8,,,,,,,0.02166016702540219,838.5791465829825,838.5791465829825,839.5869845409179,840.1730691660196,840.1730691660196,840.1730691660196,840.4534562079934,841.0722261659103,841.0722261659103,841.0722261659103,841.0532654579729,842.0536391659407,4.52795741695445,200003,005,2023-03-22_13h42.39.431,DMS_et_12-36,2022.2.4,None,
106,UNPRED,12,1.114010525684081,0,images/picture_1.png,images/picture_1.png,0,"[11.733433509789462, -11.733433509789466]",11.733433509789462,-11.733433509789464,images/picture_2.png,1,"[-11.733433509789466, -11.733433509789462]",-11.733433509789464,-11.733433509789462,images/picture_3.png,2,"[11.733433509789464, 11.733433509789462]",11.733433509789464,11.733433509789462,0,1,1,1.114010525684081,2.114010525684081,0.8859894743159189,3.0,1,1.864010525684081,0,4.0,3.0,1,2,11,0,11,0,0,4,4,7,,,,,,,0.009728332981467247,843.6037627079058,843.6037627079058,844.6063080409076,845.2064541250002,845.2064541250002,845.2064541250002,845.4734057500027,846.1065288329264,846.1065288329264,846.1065288329264,846.086976707913,847.0869536659447,4.50586991594173,200003,005,2023-03-22_13h42.39.431,DMS_et_12-36,2022.2.4,None,
101,UNPRED,12,1.114010525684081,1,images/picture_2.png,images/picture_1.png,0,"[-11.733433509789466, -11.733433509789462]",-11.733433509789464,-11.733433509789462,images/picture_2.png,1,"[11.733433509789464, 11.733433509789462]",11.733433509789464,11.733433509789462,images/picture_3.png,2,"[11.733433509789462, -11.733433509789466]",11.733433509789462,-11.733433509789464,0,1,1,1.114010525684081,2.114010525684081,0.8859894743159189,3.0,1,1.864010525684081,0,4.0,3.0,1,2,11,0,11,0,0,5,5,2,,,,,,,0.0066676250426098704,848.6139730409486,848.6139730409486,849.6201864579925,850.2201958330115,850.2201958330115,850.2201958330115,850.4868967079092,851.119964707992,851.119964707992,851.119964707992,851.105795790907,852.1199366250075,4.511371041997336,200003,005,2023-03-22_13h42.39.431,DMS_et_12-36,2022.2.4,None,
100,UNPRED,12,1.114010525684081,1,images/picture_2.png,images/picture_1.png,0,"[11.733433509789462, -11.733433509789466]",11.733433509789462,-11.733433509789464,images/picture_2.png,1,"[-11.733433509789462, 11.733433509789464]",-11.733433509789462,11.733433509789464,images/picture_3.png,2,"[11.733433509789464, 11.733433509789462]",11.733433509789464,11.733433509789462,0,1,1,1.114010525684081,2.114010525684081,0.8859894743159189,3.0,1,1.864010525684081,0,4.0,3.0,1,2,11,0,11,0,0,6,6,1,,,,,,,0.0065420420141890645,853.6748160409043,853.6748160409043,854.6868927079486,855.2394510830054,855.2394510830054,855.2394510830054,855.5534908749396,856.1399039159296,856.1399039159296,856.1399039159296,856.1201693329494,857.1202652079519,4.557460375013761,200003,005,2023-03-22_13h42.39.431,DMS_et_12-36,2022.2.4,None,
99,UNPRED,12,1.114010525684081,1,images/picture_2.png,images/picture_1.png,0,"[-11.733433509789462, 11.733433509789464]",-11.733433509789462,11.733433509789464,images/picture_2.png,1,"[11.733433509789464, 11.733433509789462]",11.733433509789464,11.733433509789462,images/picture_3.png,2,"[-11.733433509789466, -11.733433509789462]",-11.733433509789464,-11.733433509789462,0,1,1,1.114010525684081,2.114010525684081,0.8859894743159189,3.0,1,1.864010525684081,0,4.0,3.0,1,2,11,0,11,0,0,7,7,0,,,,,,,0.006152583984658122,858.7010025409982,858.7010025409982,859.7068384159356,860.30634933291,860.30634933291,860.30634933291,860.573040499934,861.206364249927,861.206364249927,861.206364249927,861.1868969999487,862.1868780829245,4.508942249929532,200003,005,2023-03-22_13h42.39.431,DMS_et_12-36,2022.2.4,None,
103,UNPRED,12,1.114010525684081,0,images/picture_1.png,images/picture_1.png,0,"[-11.733433509789466, -11.733433509789462]",-11.733433509789464,-11.733433509789462,images/picture_2.png,1,"[11.733433509789462, -11.733433509789466]",11.733433509789462,-11.733433509789464,images/picture_3.png,2,"[-11.733433509789462, 11.733433509789464]",-11.733433509789462,11.733433509789464,0,1,1,1.114010525684081,2.114010525684081,0.8859894743159189,3.0,1,1.864010525684081,0,4.0,3.0,1,2,11,0,11,0,0,8,8,4,,,,,,,0.00728783302474767,863.7149831659626,863.7149831659626,864.7201253329404,865.3203879999928,865.3203879999928,865.3203879999928,865.5871889999835,866.2202832499752,866.2202832499752,866.2202832499752,866.2065303329146,867.2201710409718,4.512216542032547,200003,005,2023-03-22_13h42.39.431,DMS_et_12-36,2022.2.4,None,
,,,,,,,,,,,,,,,,,,,,,,,,,,,,,,,,,,,11,0,11,0,,,,,,,,,868.4403911249246,880.6000074580079,,,,,,,,,,,,,,,200003,005,2023-03-22_13h42.39.431,DMS_et_12-36,2022.2.4,None,
,,,,,,,,,,,,,,,,,,,,,,,,,,,,,,,,,,,,,,,,,,,,,,,880.6000074580079,892.6083617910044,,,,,,,,,,,,,,,,,,,,,
