trial_count,blockType,blockNum,delay_time,stimImage_i,stimImage,responseImage1,responseImage1_i,responseImage1_pos,responseImage1_X,responseImage1_Y,responseImage2,responseImage2_i,responseImage2_pos,responseImage2_X,responseImage2_Y,responseImage3,responseImage3_i,responseImage3_pos,responseImage3_X,responseImage3_Y,cue_onset,cue_dur,delay_onset,delay_dur,resp_onset,resp_dur,rest_onset,rest_dur,circle_dur,circle_onset,blocks.thisRepN,blocks.thisTrialN,blocks.thisN,blocks.thisIndex,trials.thisRepN,trials.thisTrialN,trials.thisN,trials.thisIndex,key_resp.started,text.started,key_resp.keys,key_resp.rt,text_2.started,text_2.stopped,etRecord.started,sample.started,Delay.started,sample.stopped,Delay.stopped,Response_1.started,Response_2.started,Response_3.started,polygon.started,Response_1.stopped,Response_2.stopped,Response_3.stopped,etRecord.stopped,polygon.stopped,participant,session,date,expName,psychopyVersion,frameRate,
,,,,,,,,,,,,,,,,,,,,,,,,,,,,,,,,,,,,,,,19.12203854099789,19.12203854099789,t,60.502305082998646,,,,,,,,,,,,,,,,,200001,004,2023-03-10_12h28.56.893,DMS_BEST_eyetracking_DAN_base_12-36_looped_10minWORKING,2022.2.4,None,
0,PRED,12,0.8747832825584425,0,images/picture_1.png,images/picture_1.png,0,"[11.733433509789462, -11.733433509789466]",11.733433509789462,-11.733433509789464,images/picture_2.png,1,"[11.733433509789464, 11.733433509789462]",11.733433509789464,11.733433509789462,images/picture_3.png,2,"[-11.733433509789466, -11.733433509789462]",-11.733433509789464,-11.733433509789462,0,1,1,0.8747832825584425,1.8747832825584425,1.1252167174415575,3,1,1.6247832825584425,0,0,0,0,0,0,0,0,0,,,,,79.64711083300062,91.68651029099783,,,,,,,,,,,,,,,200001,004,2023-03-10_12h28.56.893,DMS_BEST_eyetracking_DAN_base_12-36_looped_10minWORKING,2022.2.4,None,
0,PRED,12,0.8747832825584425,0,images/picture_1.png,images/picture_1.png,0,"[11.733433509789462, -11.733433509789466]",11.733433509789462,-11.733433509789464,images/picture_2.png,1,"[11.733433509789464, 11.733433509789462]",11.733433509789464,11.733433509789462,images/picture_3.png,2,"[-11.733433509789466, -11.733433509789462]",-11.733433509789464,-11.733433509789462,0,1,1,0.8747832825584425,1.8747832825584425,1.1252167174415575,3,1,1.6247832825584425,0,0,0,0,0,0,0,0,0,,,,,,,0.0044603749993257225,91.68651029099783,91.68651029099783,92.69506645799993,93.31454216600105,93.56152420799845,93.56152420799845,93.56152420799845,94.68123341599858,94.69500779100053,94.69500779100053,94.69500779100053,4.008781166998233,95.69589583299967,200001,004,2023-03-10_12h28.56.893,DMS_BEST_eyetracking_DAN_base_12-36_looped_10minWORKING,2022.2.4,None,
5,PRED,12,0.9111046056139104,0,images/picture_1.png,images/picture_1.png,0,"[11.733433509789462, -11.733433509789466]",11.733433509789462,-11.733433509789464,images/picture_2.png,1,"[11.733433509789464, 11.733433509789462]",11.733433509789464,11.733433509789462,images/picture_3.png,2,"[-11.733433509789466, -11.733433509789462]",-11.733433509789464,-11.733433509789462,0,1,1,0.9111046056139104,1.9111046056139105,1.0888953943860895,3,1,1.6611046056139105,0,0,0,0,0,0,1,1,5,,,,,,,,,,,,,,,,,,,,,200001,004,2023-03-10_12h28.56.893,DMS_BEST_eyetracking_DAN_base_12-36_looped_10minWORKING,2022.2.4,None,
5,PRED,12,0.9111046056139104,0,images/picture_1.png,images/picture_1.png,0,"[11.733433509789462, -11.733433509789466]",11.733433509789462,-11.733433509789464,images/picture_2.png,1,"[11.733433509789464, 11.733433509789462]",11.733433509789464,11.733433509789462,images/picture_3.png,2,"[-11.733433509789466, -11.733433509789462]",-11.733433509789464,-11.733433509789462,0,1,1,0.9111046056139104,1.9111046056139105,1.0888953943860895,3,1,1.6611046056139105,0,0,0,0,0,0,1,1,5,,,,,,,0.003486290999717312,95.69589583299967,95.69589583299967,96.69528279099904,97.36188579100053,97.59482845800085,97.59482845800085,97.59482845800085,98.69525541599796,98.69525541599796,98.69525541599796,98.69525541599796,3.99694391599769,99.71462025000073,200001,004,2023-03-10_12h28.56.893,DMS_BEST_eyetracking_DAN_base_12-36_looped_10minWORKING,2022.2.4,None,
6,PRED,12,0.8996892329543512,0,images/picture_1.png,images/picture_1.png,0,"[11.733433509789462, -11.733433509789466]",11.733433509789462,-11.733433509789464,images/picture_2.png,1,"[11.733433509789464, 11.733433509789462]",11.733433509789464,11.733433509789462,images/picture_3.png,2,"[-11.733433509789462, 11.733433509789464]",-11.733433509789462,11.733433509789464,0,1,1,0.8996892329543512,1.8996892329543515,1.100310767045649,3,1,1.649689232954351,0,0,0,0,0,0,2,2,6,,,,,,,,,,,,,,,,,,,,,200001,004,2023-03-10_12h28.56.893,DMS_BEST_eyetracking_DAN_base_12-36_looped_10minWORKING,2022.2.4,None,
6,PRED,12,0.8996892329543512,0,images/picture_1.png,images/picture_1.png,0,"[11.733433509789462, -11.733433509789466]",11.733433509789462,-11.733433509789464,images/picture_2.png,1,"[11.733433509789464, 11.733433509789462]",11.733433509789464,11.733433509789462,images/picture_3.png,2,"[-11.733433509789462, 11.733433509789464]",-11.733433509789462,11.733433509789464,0,1,1,0.8996892329543512,1.8996892329543515,1.100310767045649,3,1,1.649689232954351,0,0,0,0,0,0,2,2,6,,,,,,,0.0038175829977262765,99.71462025000073,99.71462025000073,100.72849370800031,101.36187041599987,101.59487729099783,101.59487729099783,101.59487729099783,102.69526637499803,102.69526637499803,102.69526637499803,102.69526637499803,4.029610249999678,103.69513104100042,200001,004,2023-03-10_12h28.56.893,DMS_BEST_eyetracking_DAN_base_12-36_looped_10minWORKING,2022.2.4,None,
7,PRED,12,0.8918972183429711,0,images/picture_1.png,images/picture_1.png,0,"[11.733433509789464, 11.733433509789462]",11.733433509789464,11.733433509789462,images/picture_2.png,1,"[-11.733433509789462, 11.733433509789464]",-11.733433509789462,11.733433509789464,images/picture_3.png,2,"[11.733433509789462, -11.733433509789466]",11.733433509789462,-11.733433509789464,0,1,1,0.8918972183429711,1.891897218342971,1.108102781657029,3,1,1.641897218342971,0,0,0,0,0,0,3,3,7,,,,,,,,,,,,,,,,,,,,,200001,004,2023-03-10_12h28.56.893,DMS_BEST_eyetracking_DAN_base_12-36_looped_10minWORKING,2022.2.4,None,
7,PRED,12,0.8918972183429711,0,images/picture_1.png,images/picture_1.png,0,"[11.733433509789464, 11.733433509789462]",11.733433509789464,11.733433509789462,images/picture_2.png,1,"[-11.733433509789462, 11.733433509789464]",-11.733433509789462,11.733433509789464,images/picture_3.png,2,"[11.733433509789462, -11.733433509789466]",11.733433509789462,-11.733433509789464,0,1,1,0.8918972183429711,1.891897218342971,1.108102781657029,3,1,1.641897218342971,0,0,0,0,0,0,3,3,7,,,,,,,0.002049250000709435,103.728024,103.728024,104.72814687500068,105.38095949999843,105.6147271660011,105.6147271660011,105.6147271660011,106.72852745799901,106.72852745799901,106.72852745799901,106.72852745799901,3.9984645420008746,107.74809729099798,200001,004,2023-03-10_12h28.56.893,DMS_BEST_eyetracking_DAN_base_12-36_looped_10minWORKING,2022.2.4,None,
2,PRED,12,0.718387172368596,0,images/picture_1.png,images/picture_1.png,0,"[-11.733433509789466, -11.733433509789462]",-11.733433509789464,-11.733433509789462,images/picture_2.png,1,"[-11.733433509789462, 11.733433509789464]",-11.733433509789462,11.733433509789464,images/picture_3.png,2,"[11.733433509789464, 11.733433509789462]",11.733433509789464,11.733433509789462,0,1,1,0.718387172368596,1.718387172368596,1.281612827631404,3,1,1.468387172368596,0,0,0,0,0,0,4,4,2,,,,,,,,,,,,,,,,,,,,,200001,004,2023-03-10_12h28.56.893,DMS_BEST_eyetracking_DAN_base_12-36_looped_10minWORKING,2022.2.4,None,
2,PRED,12,0.718387172368596,0,images/picture_1.png,images/picture_1.png,0,"[-11.733433509789466, -11.733433509789462]",-11.733433509789464,-11.733433509789462,images/picture_2.png,1,"[-11.733433509789462, 11.733433509789464]",-11.733433509789462,11.733433509789464,images/picture_3.png,2,"[11.733433509789464, 11.733433509789462]",11.733433509789464,11.733433509789462,0,1,1,0.718387172368596,1.718387172368596,1.281612827631404,3,1,1.468387172368596,0,0,0,0,0,0,4,4,2,,,,,,,0.003747165999811841,107.74809729099798,107.74809729099798,108.76197466599842,109.22858524999901,109.44818691600085,109.44818691600085,109.44818691600085,110.72858708299827,110.72858708299827,110.72858708299827,110.72858708299827,4.029702625000937,111.72863212499942,200001,004,2023-03-10_12h28.56.893,DMS_BEST_eyetracking_DAN_base_12-36_looped_10minWORKING,2022.2.4,None,
1,PRED,12,0.6896725538486164,0,images/picture_1.png,images/picture_1.png,0,"[-11.733433509789466, -11.733433509789462]",-11.733433509789464,-11.733433509789462,images/picture_2.png,1,"[11.733433509789462, -11.733433509789466]",11.733433509789462,-11.733433509789464,images/picture_3.png,2,"[11.733433509789464, 11.733433509789462]",11.733433509789464,11.733433509789462,0,1,1,0.6896725538486164,1.6896725538486164,1.3103274461513836,3,1,1.4396725538486164,0,0,0,0,0,0,5,5,1,,,,,,,,,,,,,,,,,,,,,200001,004,2023-03-10_12h28.56.893,DMS_BEST_eyetracking_DAN_base_12-36_looped_10minWORKING,2022.2.4,None,
1,PRED,12,0.6896725538486164,0,images/picture_1.png,images/picture_1.png,0,"[-11.733433509789466, -11.733433509789462]",-11.733433509789464,-11.733433509789462,images/picture_2.png,1,"[11.733433509789462, -11.733433509789466]",11.733433509789462,-11.733433509789464,images/picture_3.png,2,"[11.733433509789464, 11.733433509789462]",11.733433509789464,11.733433509789462,0,1,1,0.6896725538486164,1.6896725538486164,1.3103274461513836,3,1,1.4396725538486164,0,0,0,0,0,0,5,5,1,,,,,,,0.003501499999401858,111.7629295830011,111.7629295830011,112.76183008299995,113.21458291599993,113.44807562499773,113.44807562499773,113.44807562499773,114.76175879099901,114.76175879099901,114.76175879099901,114.76175879099901,3.9972902500012424,115.76302008299899,200001,004,2023-03-10_12h28.56.893,DMS_BEST_eyetracking_DAN_base_12-36_looped_10minWORKING,2022.2.4,None,
4,PRED,12,0.9396053322868758,0,images/picture_1.png,images/picture_1.png,0,"[11.733433509789462, -11.733433509789466]",11.733433509789462,-11.733433509789464,images/picture_2.png,1,"[11.733433509789464, 11.733433509789462]",11.733433509789464,11.733433509789462,images/picture_3.png,2,"[-11.733433509789466, -11.733433509789462]",-11.733433509789464,-11.733433509789462,0,1,1,0.9396053322868758,1.939605332286876,1.0603946677131242,3,1,1.6896053322868758,0,0,0,0,0,0,6,6,4,,,,,,,,,,,,,,,,,,,,,200001,004,2023-03-10_12h28.56.893,DMS_BEST_eyetracking_DAN_base_12-36_looped_10minWORKING,2022.2.4,None,
4,PRED,12,0.9396053322868758,0,images/picture_1.png,images/picture_1.png,0,"[11.733433509789462, -11.733433509789466]",11.733433509789462,-11.733433509789464,images/picture_2.png,1,"[11.733433509789464, 11.733433509789462]",11.733433509789464,11.733433509789462,images/picture_3.png,2,"[-11.733433509789466, -11.733433509789462]",-11.733433509789464,-11.733433509789462,0,1,1,0.9396053322868758,1.939605332286876,1.0603946677131242,3,1,1.6896053322868758,0,0,0,0,0,0,6,6,4,,,,,,,0.0034703749988693744,115.76302008299899,115.76302008299899,116.76202412500061,117.46213833299771,117.69508245799807,117.69508245799807,117.69508245799807,118.76188620799803,118.76188620799803,118.76188620799803,118.76188620799803,3.9968107499989856,119.78128308300074,200001,004,2023-03-10_12h28.56.893,DMS_BEST_eyetracking_DAN_base_12-36_looped_10minWORKING,2022.2.4,None,
8,PRED,12,0.8283333843168439,0,images/picture_1.png,images/picture_1.png,0,"[11.733433509789464, 11.733433509789462]",11.733433509789464,11.733433509789462,images/picture_2.png,1,"[11.733433509789462, -11.733433509789466]",11.733433509789462,-11.733433509789464,images/picture_3.png,2,"[-11.733433509789462, 11.733433509789464]",-11.733433509789462,11.733433509789464,0,1,1,0.8283333843168439,1.8283333843168441,1.1716666156831559,3,1,1.5783333843168441,0,0,0,0,0,0,7,7,8,,,,,,,,,,,,,,,,,,,,,200001,004,2023-03-10_12h28.56.893,DMS_BEST_eyetracking_DAN_base_12-36_looped_10minWORKING,2022.2.4,None,
8,PRED,12,0.8283333843168439,0,images/picture_1.png,images/picture_1.png,0,"[11.733433509789464, 11.733433509789462]",11.733433509789464,11.733433509789462,images/picture_2.png,1,"[11.733433509789462, -11.733433509789466]",11.733433509789462,-11.733433509789464,images/picture_3.png,2,"[-11.733433509789462, 11.733433509789464]",-11.733433509789462,11.733433509789464,0,1,1,0.8283333843168439,1.8283333843168441,1.1716666156831559,3,1,1.5783333843168441,0,0,0,0,0,0,7,7,8,,,,,,,0.0036341250015539117,119.78128308300074,119.78128308300074,120.79527195799892,121.36205462499856,121.59510849999788,121.59510849999788,121.59510849999788,122.76205712500087,122.78159379099816,122.78159379099816,122.78159379099816,4.02924775000065,123.76200516599783,200001,004,2023-03-10_12h28.56.893,DMS_BEST_eyetracking_DAN_base_12-36_looped_10minWORKING,2022.2.4,None,
3,PRED,12,1.0843976371716142,0,images/picture_1.png,images/picture_1.png,0,"[11.733433509789464, 11.733433509789462]",11.733433509789464,11.733433509789462,images/picture_2.png,1,"[-11.733433509789466, -11.733433509789462]",-11.733433509789464,-11.733433509789462,images/picture_3.png,2,"[11.733433509789462, -11.733433509789466]",11.733433509789462,-11.733433509789464,0,1,1,1.0843976371716142,2.0843976371716137,0.9156023628283858,3,1,1.8343976371716144,0,0,0,0,0,0,8,8,3,,,,,,,,,,,,,,,,,,,,,200001,004,2023-03-10_12h28.56.893,DMS_BEST_eyetracking_DAN_base_12-36_looped_10minWORKING,2022.2.4,None,
3,PRED,12,1.0843976371716142,0,images/picture_1.png,images/picture_1.png,0,"[11.733433509789464, 11.733433509789462]",11.733433509789464,11.733433509789462,images/picture_2.png,1,"[-11.733433509789466, -11.733433509789462]",-11.733433509789464,-11.733433509789462,images/picture_3.png,2,"[11.733433509789462, -11.733433509789466]",11.733433509789462,-11.733433509789464,0,1,1,1.0843976371716142,2.0843976371716137,0.9156023628283858,3,1,1.8343976371716144,0,0,0,0,0,0,8,8,3,,,,,,,0.0034649580011318903,123.79648466599974,123.79648466599974,124.79493166599786,125.62858170799882,125.88170308299959,125.88170308299959,125.88170308299959,126.79525124999782,126.79525124999782,126.79525124999782,126.79525124999782,3.9966079170008015,127.82113933299843,200001,004,2023-03-10_12h28.56.893,DMS_BEST_eyetracking_DAN_base_12-36_looped_10minWORKING,2022.2.4,None,
,,,,,,,,,,,,,,,,,,,,,,,,,,,,,,,0,0,0,0,,,,,,,,,127.82113933299843,139.84926037499827,,,,,,,,,,,,,,,200001,004,2023-03-10_12h28.56.893,DMS_BEST_eyetracking_DAN_base_12-36_looped_10minWORKING,2022.2.4,None,
10,UNPRED,12,1.1362992000636458,2,images/picture_3.png,images/picture_1.png,0,"[-11.733433509789466, -11.733433509789462]",-11.733433509789464,-11.733433509789462,images/picture_2.png,1,"[-11.733433509789462, 11.733433509789464]",-11.733433509789462,11.733433509789464,images/picture_3.png,2,"[11.733433509789464, 11.733433509789462]",11.733433509789464,11.733433509789462,0,1,1,1.1362992000636458,2.1362992000636463,0.8637007999363542,3,1,1.8862992000636456,0,1,0,1,0,0,0,0,1,,,,,,,,,,,,,,,,,,,,,200001,004,2023-03-10_12h28.56.893,DMS_BEST_eyetracking_DAN_base_12-36_looped_10minWORKING,2022.2.4,None,
10,UNPRED,12,1.1362992000636458,2,images/picture_3.png,images/picture_1.png,0,"[-11.733433509789466, -11.733433509789462]",-11.733433509789464,-11.733433509789462,images/picture_2.png,1,"[-11.733433509789462, 11.733433509789464]",-11.733433509789462,11.733433509789464,images/picture_3.png,2,"[11.733433509789464, 11.733433509789462]",11.733433509789464,11.733433509789462,0,1,1,1.1362992000636458,2.1362992000636463,0.8637007999363542,3,1,1.8862992000636456,0,1,0,1,0,0,0,0,1,,,,,,,0.0036127090024820063,139.84926037499827,139.84926037499827,140.86208274999808,141.74820879099934,141.98167850000027,141.98167850000027,141.98167850000027,142.8480544999984,142.8480544999984,142.8480544999984,142.8480544999984,4.009851792001427,143.86286574999758,200001,004,2023-03-10_12h28.56.893,DMS_BEST_eyetracking_DAN_base_12-36_looped_10minWORKING,2022.2.4,None,
11,UNPRED,12,0.7309983220912156,2,images/picture_3.png,images/picture_1.png,0,"[-11.733433509789466, -11.733433509789462]",-11.733433509789464,-11.733433509789462,images/picture_2.png,1,"[11.733433509789462, -11.733433509789466]",11.733433509789462,-11.733433509789464,images/picture_3.png,2,"[-11.733433509789462, 11.733433509789464]",-11.733433509789462,11.733433509789464,0,1,1,0.7309983220912156,1.7309983220912155,1.2690016779087845,3,1,1.4809983220912155,0,1,0,1,0,0,1,1,2,,,,,,,,,,,,,,,,,,,,,200001,004,2023-03-10_12h28.56.893,DMS_BEST_eyetracking_DAN_base_12-36_looped_10minWORKING,2022.2.4,None,
11,UNPRED,12,0.7309983220912156,2,images/picture_3.png,images/picture_1.png,0,"[-11.733433509789466, -11.733433509789462]",-11.733433509789464,-11.733433509789462,images/picture_2.png,1,"[11.733433509789462, -11.733433509789466]",11.733433509789462,-11.733433509789464,images/picture_3.png,2,"[-11.733433509789462, 11.733433509789464]",-11.733433509789462,11.733433509789464,0,1,1,0.7309983220912156,1.7309983220912155,1.2690016779087845,3,1,1.4809983220912155,0,1,0,1,0,0,1,1,2,,,,,,,0.0033338329994876403,143.86286574999758,143.86286574999758,144.8615707909994,145.3472532909982,145.59529229100008,145.59529229100008,145.59529229100008,146.86204295800053,146.86204295800053,146.86204295800053,146.86204295800053,3.9965762499996345,147.86294195799928,200001,004,2023-03-10_12h28.56.893,DMS_BEST_eyetracking_DAN_base_12-36_looped_10minWORKING,2022.2.4,None,
17,UNPRED,12,0.5595987215017759,2,images/picture_3.png,images/picture_1.png,0,"[-11.733433509789462, 11.733433509789464]",-11.733433509789462,11.733433509789464,images/picture_2.png,1,"[-11.733433509789466, -11.733433509789462]",-11.733433509789464,-11.733433509789462,images/picture_3.png,2,"[11.733433509789462, -11.733433509789466]",11.733433509789462,-11.733433509789464,0,1,1,0.5595987215017759,1.559598721501776,1.440401278498224,3,1,1.309598721501776,0,1,0,1,0,0,2,2,8,,,,,,,,,,,,,,,,,,,,,200001,004,2023-03-10_12h28.56.893,DMS_BEST_eyetracking_DAN_base_12-36_looped_10minWORKING,2022.2.4,None,
17,UNPRED,12,0.5595987215017759,2,images/picture_3.png,images/picture_1.png,0,"[-11.733433509789462, 11.733433509789464]",-11.733433509789462,11.733433509789464,images/picture_2.png,1,"[-11.733433509789466, -11.733433509789462]",-11.733433509789464,-11.733433509789462,images/picture_3.png,2,"[11.733433509789462, -11.733433509789466]",11.733433509789462,-11.733433509789464,0,1,1,0.5595987215017759,1.559598721501776,1.440401278498224,3,1,1.309598721501776,0,1,0,1,0,0,2,2,8,,,,,,,0.0032231670011242386,147.86294195799928,147.86294195799928,148.862077916001,149.18148133299837,149.4149104579992,149.4149104579992,149.4149104579992,150.86205816599977,150.86205816599977,150.86205816599977,150.86205816599977,3.9966480000002775,151.86287645799894,200001,004,2023-03-10_12h28.56.893,DMS_BEST_eyetracking_DAN_base_12-36_looped_10minWORKING,2022.2.4,None,
14,UNPRED,12,0.8200877845284678,2,images/picture_3.png,images/picture_1.png,0,"[11.733433509789464, 11.733433509789462]",11.733433509789464,11.733433509789462,images/picture_2.png,1,"[-11.733433509789462, 11.733433509789464]",-11.733433509789462,11.733433509789464,images/picture_3.png,2,"[11.733433509789462, -11.733433509789466]",11.733433509789462,-11.733433509789464,0,1,1,0.8200877845284678,1.820087784528468,1.1799122154715322,3,1,1.5700877845284678,0,1,0,1,0,0,3,3,5,,,,,,,,,,,,,,,,,,,,,200001,004,2023-03-10_12h28.56.893,DMS_BEST_eyetracking_DAN_base_12-36_looped_10minWORKING,2022.2.4,None,
14,UNPRED,12,0.8200877845284678,2,images/picture_3.png,images/picture_1.png,0,"[11.733433509789464, 11.733433509789462]",11.733433509789464,11.733433509789462,images/picture_2.png,1,"[-11.733433509789462, 11.733433509789464]",-11.733433509789462,11.733433509789464,images/picture_3.png,2,"[11.733433509789462, -11.733433509789466]",11.733433509789462,-11.733433509789464,0,1,1,0.8200877845284678,1.820087784528468,1.1799122154715322,3,1,1.5700877845284678,0,1,0,1,0,0,3,3,5,,,,,,,0.0033611670005484484,151.86287645799894,151.86287645799894,152.86205012500068,153.44847624999966,153.6814916250005,153.6814916250005,153.6814916250005,154.8616308749988,154.8616308749988,154.8616308749988,154.8616308749988,3.995953500001633,155.8810913749985,200001,004,2023-03-10_12h28.56.893,DMS_BEST_eyetracking_DAN_base_12-36_looped_10minWORKING,2022.2.4,None,
15,UNPRED,12,0.6876148351514757,2,images/picture_3.png,images/picture_1.png,0,"[11.733433509789462, -11.733433509789466]",11.733433509789462,-11.733433509789464,images/picture_2.png,1,"[-11.733433509789462, 11.733433509789464]",-11.733433509789462,11.733433509789464,images/picture_3.png,2,"[-11.733433509789466, -11.733433509789462]",-11.733433509789464,-11.733433509789462,0,1,1,0.6876148351514757,1.6876148351514757,1.3123851648485243,3,1,1.4376148351514757,0,1,0,1,0,0,4,4,6,,,,,,,,,,,,,,,,,,,,,200001,004,2023-03-10_12h28.56.893,DMS_BEST_eyetracking_DAN_base_12-36_looped_10minWORKING,2022.2.4,None,
15,UNPRED,12,0.6876148351514757,2,images/picture_3.png,images/picture_1.png,0,"[11.733433509789462, -11.733433509789466]",11.733433509789462,-11.733433509789464,images/picture_2.png,1,"[-11.733433509789462, 11.733433509789464]",-11.733433509789462,11.733433509789464,images/picture_3.png,2,"[-11.733433509789466, -11.733433509789462]",-11.733433509789464,-11.733433509789462,0,1,1,0.6876148351514757,1.6876148351514757,1.3123851648485243,3,1,1.4376148351514757,0,1,0,1,0,0,4,4,6,,,,,,,0.00313816700145253,155.8810913749985,155.8810913749985,156.8955192079993,157.3288224579992,157.548174208001,157.548174208001,157.548174208001,158.86205783300102,158.86205783300102,158.86205783300102,158.86205783300102,4.029497916999389,159.8620270829997,200001,004,2023-03-10_12h28.56.893,DMS_BEST_eyetracking_DAN_base_12-36_looped_10minWORKING,2022.2.4,None,
13,UNPRED,12,0.838988517604444,0,images/picture_1.png,images/picture_1.png,0,"[11.733433509789462, -11.733433509789466]",11.733433509789462,-11.733433509789464,images/picture_2.png,1,"[-11.733433509789462, 11.733433509789464]",-11.733433509789462,11.733433509789464,images/picture_3.png,2,"[-11.733433509789466, -11.733433509789462]",-11.733433509789464,-11.733433509789462,0,1,1,0.838988517604444,1.838988517604444,1.161011482395556,3,1,1.588988517604444,0,1,0,1,0,0,5,5,4,,,,,,,,,,,,,,,,,,,,,200001,004,2023-03-10_12h28.56.893,DMS_BEST_eyetracking_DAN_base_12-36_looped_10minWORKING,2022.2.4,None,
13,UNPRED,12,0.838988517604444,0,images/picture_1.png,images/picture_1.png,0,"[11.733433509789462, -11.733433509789466]",11.733433509789462,-11.733433509789464,images/picture_2.png,1,"[-11.733433509789462, 11.733433509789464]",-11.733433509789462,11.733433509789464,images/picture_3.png,2,"[-11.733433509789466, -11.733433509789462]",-11.733433509789464,-11.733433509789462,0,1,1,0.838988517604444,1.838988517604444,1.161011482395556,3,1,1.588988517604444,0,1,0,1,0,0,5,5,4,,,,,,,0.004949792000843445,159.91487791599866,159.91487791599866,160.92875216600078,161.5149457080006,161.72820554099962,161.72820554099962,161.72820554099962,162.89550904099815,162.89550904099815,162.89550904099815,162.89550904099815,4.029769834000035,163.89550025000062,200001,004,2023-03-10_12h28.56.893,DMS_BEST_eyetracking_DAN_base_12-36_looped_10minWORKING,2022.2.4,None,
16,UNPRED,12,0.97877488147949,2,images/picture_3.png,images/picture_1.png,0,"[11.733433509789462, -11.733433509789466]",11.733433509789462,-11.733433509789464,images/picture_2.png,1,"[-11.733433509789466, -11.733433509789462]",-11.733433509789464,-11.733433509789462,images/picture_3.png,2,"[-11.733433509789462, 11.733433509789464]",-11.733433509789462,11.733433509789464,0,1,1,0.97877488147949,1.9787748814794897,1.02122511852051,3,1,1.72877488147949,0,1,0,1,0,0,6,6,7,,,,,,,,,,,,,,,,,,,,,200001,004,2023-03-10_12h28.56.893,DMS_BEST_eyetracking_DAN_base_12-36_looped_10minWORKING,2022.2.4,None,
16,UNPRED,12,0.97877488147949,2,images/picture_3.png,images/picture_1.png,0,"[11.733433509789462, -11.733433509789466]",11.733433509789462,-11.733433509789464,images/picture_2.png,1,"[-11.733433509789466, -11.733433509789462]",-11.733433509789464,-11.733433509789462,images/picture_3.png,2,"[-11.733433509789462, 11.733433509789464]",-11.733433509789462,11.733433509789464,0,1,1,0.97877488147949,1.9787748814794897,1.02122511852051,3,1,1.72877488147949,0,1,0,1,0,0,6,6,7,,,,,,,0.004359416998340748,163.9482136660008,163.9482136660008,164.96178125000006,165.68088641599752,165.89508433299852,165.89508433299852,165.89508433299852,166.92883299999812,166.92883299999812,166.92883299999812,166.92883299999812,4.030505957998685,167.9287802910003,200001,004,2023-03-10_12h28.56.893,DMS_BEST_eyetracking_DAN_base_12-36_looped_10minWORKING,2022.2.4,None,
9,UNPRED,12,0.8731312721631219,1,images/picture_2.png,images/picture_1.png,0,"[-11.733433509789466, -11.733433509789462]",-11.733433509789464,-11.733433509789462,images/picture_2.png,1,"[11.733433509789462, -11.733433509789466]",11.733433509789462,-11.733433509789464,images/picture_3.png,2,"[-11.733433509789462, 11.733433509789464]",-11.733433509789462,11.733433509789464,0,1,1,0.8731312721631219,1.8731312721631217,1.126868727836878,3,1,1.6231312721631217,0,1,0,1,0,0,7,7,0,,,,,,,,,,,,,,,,,,,,,200001,004,2023-03-10_12h28.56.893,DMS_BEST_eyetracking_DAN_base_12-36_looped_10minWORKING,2022.2.4,None,
9,UNPRED,12,0.8731312721631219,1,images/picture_2.png,images/picture_1.png,0,"[-11.733433509789466, -11.733433509789462]",-11.733433509789464,-11.733433509789462,images/picture_2.png,1,"[11.733433509789462, -11.733433509789466]",11.733433509789462,-11.733433509789464,images/picture_3.png,2,"[-11.733433509789462, 11.733433509789464]",-11.733433509789462,11.733433509789464,0,1,1,0.8731312721631219,1.8731312721631217,1.126868727836878,3,1,1.6231312721631217,0,1,0,1,0,0,7,7,0,,,,,,,0.005029332998674363,167.98194595799941,167.98194595799941,168.99542699999802,169.61477270799878,169.8286229999976,169.8286229999976,169.8286229999976,170.9621614159987,170.9621614159987,170.9621614159987,170.9621614159987,4.02963945800002,171.96228604099815,200001,004,2023-03-10_12h28.56.893,DMS_BEST_eyetracking_DAN_base_12-36_looped_10minWORKING,2022.2.4,None,
12,UNPRED,12,0.5302079328795761,1,images/picture_2.png,images/picture_1.png,0,"[11.733433509789462, -11.733433509789466]",11.733433509789462,-11.733433509789464,images/picture_2.png,1,"[11.733433509789464, 11.733433509789462]",11.733433509789464,11.733433509789462,images/picture_3.png,2,"[-11.733433509789462, 11.733433509789464]",-11.733433509789462,11.733433509789464,0,1,1,0.5302079328795761,1.530207932879576,1.469792067120424,3,1,1.280207932879576,0,1,0,1,0,0,8,8,3,,,,,,,,,,,,,,,,,,,,,200001,004,2023-03-10_12h28.56.893,DMS_BEST_eyetracking_DAN_base_12-36_looped_10minWORKING,2022.2.4,None,
12,UNPRED,12,0.5302079328795761,1,images/picture_2.png,images/picture_1.png,0,"[11.733433509789462, -11.733433509789466]",11.733433509789462,-11.733433509789464,images/picture_2.png,1,"[11.733433509789464, 11.733433509789462]",11.733433509789464,11.733433509789462,images/picture_3.png,2,"[-11.733433509789462, 11.733433509789464]",-11.733433509789462,11.733433509789464,0,1,1,0.5302079328795761,1.530207932879576,1.469792067120424,3,1,1.280207932879576,0,1,0,1,0,0,8,8,3,,,,,,,0.005060708997916663,172.01529558299808,172.01529558299808,173.0288347909991,173.2955072500008,173.52854733300046,173.52854733300046,173.52854733300046,174.99531866599864,174.99531866599864,174.99531866599864,174.99531866599864,4.0295439589972375,175.9950969579986,200001,004,2023-03-10_12h28.56.893,DMS_BEST_eyetracking_DAN_base_12-36_looped_10minWORKING,2022.2.4,None,
,,,,,,,,,,,,,,,,,,,,,,,,,,,,,,,1,0,1,0,,,,,,,,,176.04709499999808,188.08188520800104,,,,,,,,,,,,,,,200001,004,2023-03-10_12h28.56.893,DMS_BEST_eyetracking_DAN_base_12-36_looped_10minWORKING,2022.2.4,None,
22,PRED,12,0.6373214425177617,1,images/picture_2.png,images/picture_1.png,0,"[-11.733433509789466, -11.733433509789462]",-11.733433509789464,-11.733433509789462,images/picture_2.png,1,"[11.733433509789464, 11.733433509789462]",11.733433509789464,11.733433509789462,images/picture_3.png,2,"[11.733433509789462, -11.733433509789466]",11.733433509789462,-11.733433509789464,0,1,1,0.6373214425177617,1.6373214425177616,1.3626785574822384,3,1,1.3873214425177616,0,2,0,2,0,0,0,0,4,,,,,,,,,,,,,,,,,,,,,200001,004,2023-03-10_12h28.56.893,DMS_BEST_eyetracking_DAN_base_12-36_looped_10minWORKING,2022.2.4,None,
22,PRED,12,0.6373214425177617,1,images/picture_2.png,images/picture_1.png,0,"[-11.733433509789466, -11.733433509789462]",-11.733433509789464,-11.733433509789462,images/picture_2.png,1,"[11.733433509789464, 11.733433509789462]",11.733433509789464,11.733433509789462,images/picture_3.png,2,"[11.733433509789462, -11.733433509789466]",11.733433509789462,-11.733433509789464,0,1,1,0.6373214425177617,1.6373214425177616,1.3626785574822384,3,1,1.3873214425177616,0,2,0,2,0,0,0,0,4,,,,,,,0.0038701669982401654,188.08188520800104,188.08188520800104,189.09552370799793,189.4815373329984,189.71530745799828,189.71530745799828,189.71530745799828,191.08172387499872,191.08172387499872,191.08172387499872,191.08172387499872,4.011021583999536,192.1151836249992,200001,004,2023-03-10_12h28.56.893,DMS_BEST_eyetracking_DAN_base_12-36_looped_10minWORKING,2022.2.4,None,
20,PRED,12,0.8625888687631706,1,images/picture_2.png,images/picture_1.png,0,"[-11.733433509789462, 11.733433509789464]",-11.733433509789462,11.733433509789464,images/picture_2.png,1,"[-11.733433509789466, -11.733433509789462]",-11.733433509789464,-11.733433509789462,images/picture_3.png,2,"[11.733433509789464, 11.733433509789462]",11.733433509789464,11.733433509789462,0,1,1,0.8625888687631706,1.8625888687631704,1.1374111312368294,3,1,1.6125888687631706,0,2,0,2,0,0,1,1,2,,,,,,,,,,,,,,,,,,,,,200001,004,2023-03-10_12h28.56.893,DMS_BEST_eyetracking_DAN_base_12-36_looped_10minWORKING,2022.2.4,None,
20,PRED,12,0.8625888687631706,1,images/picture_2.png,images/picture_1.png,0,"[-11.733433509789462, 11.733433509789464]",-11.733433509789462,11.733433509789464,images/picture_2.png,1,"[-11.733433509789466, -11.733433509789462]",-11.733433509789464,-11.733433509789462,images/picture_3.png,2,"[11.733433509789464, 11.733433509789462]",11.733433509789464,11.733433509789462,0,1,1,0.8625888687631706,1.8625888687631704,1.1374111312368294,3,1,1.6125888687631706,0,2,0,2,0,0,1,1,2,,,,,,,0.004883249999693362,192.1151836249992,192.1151836249992,193.12880570799825,193.72897899999953,193.9618934579994,193.9618934579994,193.9618934579994,195.09556154099846,195.09556154099846,195.09556154099846,195.09556154099846,4.029873250001401,196.09514712500095,200001,004,2023-03-10_12h28.56.893,DMS_BEST_eyetracking_DAN_base_12-36_looped_10minWORKING,2022.2.4,None,
25,PRED,12,0.7465218116201681,1,images/picture_2.png,images/picture_1.png,0,"[-11.733433509789466, -11.733433509789462]",-11.733433509789464,-11.733433509789462,images/picture_2.png,1,"[11.733433509789462, -11.733433509789466]",11.733433509789462,-11.733433509789464,images/picture_3.png,2,"[-11.733433509789462, 11.733433509789464]",-11.733433509789462,11.733433509789464,0,1,1,0.7465218116201681,1.7465218116201682,1.253478188379832,3,1,1.4965218116201682,0,2,0,2,0,0,2,2,7,,,,,,,,,,,,,,,,,,,,,200001,004,2023-03-10_12h28.56.893,DMS_BEST_eyetracking_DAN_base_12-36_looped_10minWORKING,2022.2.4,None,
25,PRED,12,0.7465218116201681,1,images/picture_2.png,images/picture_1.png,0,"[-11.733433509789466, -11.733433509789462]",-11.733433509789464,-11.733433509789462,images/picture_2.png,1,"[11.733433509789462, -11.733433509789466]",11.733433509789462,-11.733433509789464,images/picture_3.png,2,"[-11.733433509789462, 11.733433509789464]",-11.733433509789462,11.733433509789464,0,1,1,0.7465218116201681,1.7465218116201682,1.253478188379832,3,1,1.4965218116201682,0,2,0,2,0,0,2,2,7,,,,,,,0.0029522500008170027,196.1285176249985,196.1285176249985,197.12887808300002,197.6290015409977,197.86206499999753,197.86206499999753,197.86206499999753,199.12885908300086,199.12885908300086,199.12885908300086,199.12885908300086,3.9972009169978264,200.1484971659993,200001,004,2023-03-10_12h28.56.893,DMS_BEST_eyetracking_DAN_base_12-36_looped_10minWORKING,2022.2.4,None,
19,PRED,12,0.7842684144664444,1,images/picture_2.png,images/picture_1.png,0,"[11.733433509789462, -11.733433509789466]",11.733433509789462,-11.733433509789464,images/picture_2.png,1,"[11.733433509789464, 11.733433509789462]",11.733433509789464,11.733433509789462,images/picture_3.png,2,"[-11.733433509789462, 11.733433509789464]",-11.733433509789462,11.733433509789464,0,1,1,0.7842684144664444,1.7842684144664442,1.2157315855335558,3,1,1.5342684144664442,0,2,0,2,0,0,3,3,1,,,,,,,,,,,,,,,,,,,,,200001,004,2023-03-10_12h28.56.893,DMS_BEST_eyetracking_DAN_base_12-36_looped_10minWORKING,2022.2.4,None,
19,PRED,12,0.7842684144664444,1,images/picture_2.png,images/picture_1.png,0,"[11.733433509789462, -11.733433509789466]",11.733433509789462,-11.733433509789464,images/picture_2.png,1,"[11.733433509789464, 11.733433509789462]",11.733433509789464,11.733433509789462,images/picture_3.png,2,"[-11.733433509789462, 11.733433509789464]",-11.733433509789462,11.733433509789464,0,1,1,0.7842684144664444,1.7842684144664442,1.2157315855335558,3,1,1.5342684144664442,0,2,0,2,0,0,3,3,1,,,,,,,0.005029374999139691,200.1484971659993,200.1484971659993,201.1622687909985,201.6956144579999,201.91484887499973,201.91484887499973,201.91484887499973,203.12903741599803,203.12903741599803,203.12903741599803,203.12903741599803,4.030098249997536,204.12885012499828,200001,004,2023-03-10_12h28.56.893,DMS_BEST_eyetracking_DAN_base_12-36_looped_10minWORKING,2022.2.4,None,
23,PRED,12,0.828379645704145,1,images/picture_2.png,images/picture_1.png,0,"[11.733433509789464, 11.733433509789462]",11.733433509789464,11.733433509789462,images/picture_2.png,1,"[11.733433509789462, -11.733433509789466]",11.733433509789462,-11.733433509789464,images/picture_3.png,2,"[-11.733433509789466, -11.733433509789462]",-11.733433509789464,-11.733433509789462,0,1,1,0.828379645704145,1.8283796457041452,1.171620354295855,3,1,1.5783796457041452,0,2,0,2,0,0,4,4,5,,,,,,,,,,,,,,,,,,,,,200001,004,2023-03-10_12h28.56.893,DMS_BEST_eyetracking_DAN_base_12-36_looped_10minWORKING,2022.2.4,None,
23,PRED,12,0.828379645704145,1,images/picture_2.png,images/picture_1.png,0,"[11.733433509789464, 11.733433509789462]",11.733433509789464,11.733433509789462,images/picture_2.png,1,"[11.733433509789462, -11.733433509789466]",11.733433509789462,-11.733433509789464,images/picture_3.png,2,"[-11.733433509789466, -11.733433509789462]",-11.733433509789464,-11.733433509789462,0,1,1,0.828379645704145,1.8283796457041452,1.171620354295855,3,1,1.5783796457041452,0,2,0,2,0,0,4,4,5,,,,,,,0.004930791001243051,204.1822275409977,204.1822275409977,205.19552508299967,205.76191850000032,205.99508358299863,205.99508358299863,205.99508358299863,207.16224545799923,207.1813982499989,207.1813982499989,207.1813982499989,4.03009529100018,208.16229154100074,200001,004,2023-03-10_12h28.56.893,DMS_BEST_eyetracking_DAN_base_12-36_looped_10minWORKING,2022.2.4,None,
24,PRED,12,0.5038000795468923,1,images/picture_2.png,images/picture_1.png,0,"[-11.733433509789466, -11.733433509789462]",-11.733433509789464,-11.733433509789462,images/picture_2.png,1,"[11.733433509789462, -11.733433509789466]",11.733433509789462,-11.733433509789464,images/picture_3.png,2,"[11.733433509789464, 11.733433509789462]",11.733433509789464,11.733433509789462,0,1,1,0.5038000795468923,1.5038000795468922,1.4961999204531078,3,1,1.2538000795468922,0,2,0,2,0,0,5,5,6,,,,,,,,,,,,,,,,,,,,,200001,004,2023-03-10_12h28.56.893,DMS_BEST_eyetracking_DAN_base_12-36_looped_10minWORKING,2022.2.4,None,
24,PRED,12,0.5038000795468923,1,images/picture_2.png,images/picture_1.png,0,"[-11.733433509789466, -11.733433509789462]",-11.733433509789464,-11.733433509789462,images/picture_2.png,1,"[11.733433509789462, -11.733433509789466]",11.733433509789462,-11.733433509789464,images/picture_3.png,2,"[11.733433509789464, 11.733433509789462]",11.733433509789464,11.733433509789462,0,1,1,0.5038000795468923,1.5038000795468922,1.4961999204531078,3,1,1.2538000795468922,0,2,0,2,0,0,5,5,6,,,,,,,0.005086541001219302,208.21541358299874,208.21541358299874,209.22910649999903,209.48117883300074,209.6953199999989,209.6953199999989,209.6953199999989,211.19562391599902,211.19562391599902,211.19562391599902,211.19562391599902,4.029880791000323,212.19550712499768,200001,004,2023-03-10_12h28.56.893,DMS_BEST_eyetracking_DAN_base_12-36_looped_10minWORKING,2022.2.4,None,
18,PRED,12,1.1345778168819114,1,images/picture_2.png,images/picture_1.png,0,"[-11.733433509789462, 11.733433509789464]",-11.733433509789462,11.733433509789464,images/picture_2.png,1,"[-11.733433509789466, -11.733433509789462]",-11.733433509789464,-11.733433509789462,images/picture_3.png,2,"[11.733433509789464, 11.733433509789462]",11.733433509789464,11.733433509789462,0,1,1,1.1345778168819114,2.134577816881912,0.8654221831180886,3,1,1.884577816881912,0,2,0,2,0,0,6,6,0,,,,,,,,,,,,,,,,,,,,,200001,004,2023-03-10_12h28.56.893,DMS_BEST_eyetracking_DAN_base_12-36_looped_10minWORKING,2022.2.4,None,
18,PRED,12,1.1345778168819114,1,images/picture_2.png,images/picture_1.png,0,"[-11.733433509789462, 11.733433509789464]",-11.733433509789462,11.733433509789464,images/picture_2.png,1,"[-11.733433509789466, -11.733433509789462]",-11.733433509789464,-11.733433509789462,images/picture_3.png,2,"[11.733433509789464, 11.733433509789462]",11.733433509789464,11.733433509789462,0,1,1,1.1345778168819114,2.134577816881912,0.8654221831180886,3,1,1.884577816881912,0,2,0,2,0,0,6,6,0,,,,,,,0.005045624999183929,212.2488239159975,212.2488239159975,213.26232929099933,214.14838162500018,214.36204645799808,214.36204645799808,214.36204645799808,215.22903099999894,215.22903099999894,215.22903099999894,215.22903099999894,4.029563957999926,216.22864212499917,200001,004,2023-03-10_12h28.56.893,DMS_BEST_eyetracking_DAN_base_12-36_looped_10minWORKING,2022.2.4,None,
26,PRED,12,0.9995702866590624,1,images/picture_2.png,images/picture_1.png,0,"[-11.733433509789462, 11.733433509789464]",-11.733433509789462,11.733433509789464,images/picture_2.png,1,"[11.733433509789464, 11.733433509789462]",11.733433509789464,11.733433509789462,images/picture_3.png,2,"[11.733433509789462, -11.733433509789466]",11.733433509789462,-11.733433509789464,0,1,1,0.9995702866590624,1.9995702866590623,1.0004297133409377,3,1,1.7495702866590623,0,2,0,2,0,0,7,7,8,,,,,,,,,,,,,,,,,,,,,200001,004,2023-03-10_12h28.56.893,DMS_BEST_eyetracking_DAN_base_12-36_looped_10minWORKING,2022.2.4,None,
26,PRED,12,0.9995702866590624,1,images/picture_2.png,images/picture_1.png,0,"[-11.733433509789462, 11.733433509789464]",-11.733433509789462,11.733433509789464,images/picture_2.png,1,"[11.733433509789464, 11.733433509789462]",11.733433509789464,11.733433509789462,images/picture_3.png,2,"[11.733433509789462, -11.733433509789466]",11.733433509789462,-11.733433509789464,0,1,1,0.9995702866590624,1.9995702866590623,1.0004297133409377,3,1,1.7495702866590623,0,2,0,2,0,0,7,7,8,,,,,,,0.0021745409976574592,216.2616562080002,216.2616562080002,217.26231924999956,218.0144724999991,218.2621223749993,218.2621223749993,218.2621223749993,219.26237145800042,219.26237145800042,219.26237145800042,219.26237145800042,3.997567665999668,220.28162737499952,200001,004,2023-03-10_12h28.56.893,DMS_BEST_eyetracking_DAN_base_12-36_looped_10minWORKING,2022.2.4,None,
21,PRED,12,1.12587379744755,1,images/picture_2.png,images/picture_1.png,0,"[-11.733433509789462, 11.733433509789464]",-11.733433509789462,11.733433509789464,images/picture_2.png,1,"[11.733433509789462, -11.733433509789466]",11.733433509789462,-11.733433509789464,images/picture_3.png,2,"[11.733433509789464, 11.733433509789462]",11.733433509789464,11.733433509789462,0,1,1,1.12587379744755,2.12587379744755,0.8741262025524499,3,1,1.87587379744755,0,2,0,2,0,0,8,8,3,,,,,,,,,,,,,,,,,,,,,200001,004,2023-03-10_12h28.56.893,DMS_BEST_eyetracking_DAN_base_12-36_looped_10minWORKING,2022.2.4,None,
21,PRED,12,1.12587379744755,1,images/picture_2.png,images/picture_1.png,0,"[-11.733433509789462, 11.733433509789464]",-11.733433509789462,11.733433509789464,images/picture_2.png,1,"[11.733433509789462, -11.733433509789466]",11.733433509789462,-11.733433509789464,images/picture_3.png,2,"[11.733433509789464, 11.733433509789462]",11.733433509789464,11.733433509789462,0,1,1,1.12587379744755,2.12587379744755,0.8741262025524499,3,1,1.87587379744755,0,2,0,2,0,0,8,8,3,,,,,,,0.005069165999884717,220.28162737499952,220.28162737499952,221.2956395830006,222.16231920800055,222.38154437499907,222.38154437499907,222.38154437499907,223.26235670800088,223.26235670800088,223.26235670800088,223.26235670800088,4.029732833001617,224.26229166600024,200001,004,2023-03-10_12h28.56.893,DMS_BEST_eyetracking_DAN_base_12-36_looped_10minWORKING,2022.2.4,None,
,,,,,,,,,,,,,,,,,,,,,,,,,,,,,,,2,0,2,0,,,,,,,,,224.34986354099965,236.38110658299775,,,,,,,,,,,,,,,200001,004,2023-03-10_12h28.56.893,DMS_BEST_eyetracking_DAN_base_12-36_looped_10minWORKING,2022.2.4,None,
31,UNPRED,12,0.7888952108864842,0,images/picture_1.png,images/picture_1.png,0,"[11.733433509789462, -11.733433509789466]",11.733433509789462,-11.733433509789464,images/picture_2.png,1,"[-11.733433509789462, 11.733433509789464]",-11.733433509789462,11.733433509789464,images/picture_3.png,2,"[-11.733433509789466, -11.733433509789462]",-11.733433509789464,-11.733433509789462,0,1,1,0.7888952108864842,1.7888952108864842,1.2111047891135158,3,1,1.5388952108864842,0,3,0,3,0,0,0,0,4,,,,,,,,,,,,,,,,,,,,,200001,004,2023-03-10_12h28.56.893,DMS_BEST_eyetracking_DAN_base_12-36_looped_10minWORKING,2022.2.4,None,
31,UNPRED,12,0.7888952108864842,0,images/picture_1.png,images/picture_1.png,0,"[11.733433509789462, -11.733433509789466]",11.733433509789462,-11.733433509789464,images/picture_2.png,1,"[-11.733433509789462, 11.733433509789464]",-11.733433509789462,11.733433509789464,images/picture_3.png,2,"[-11.733433509789466, -11.733433509789462]",-11.733433509789464,-11.733433509789462,0,1,1,0.7888952108864842,1.7888952108864842,1.2111047891135158,3,1,1.5388952108864842,0,3,0,3,0,0,0,0,4,,,,,,,0.001878584000223782,236.38110658299775,236.38110658299775,237.39547529099946,237.92908983300003,238.14848991599865,238.14848991599865,238.14848991599865,239.36235250000027,239.36235250000027,239.36235250000027,239.36235250000027,4.025343834000523,240.36235687500084,200001,004,2023-03-10_12h28.56.893,DMS_BEST_eyetracking_DAN_base_12-36_looped_10minWORKING,2022.2.4,None,
35,UNPRED,12,0.5253514070924408,0,images/picture_1.png,images/picture_1.png,0,"[-11.733433509789466, -11.733433509789462]",-11.733433509789464,-11.733433509789462,images/picture_2.png,1,"[-11.733433509789462, 11.733433509789464]",-11.733433509789462,11.733433509789464,images/picture_3.png,2,"[11.733433509789464, 11.733433509789462]",11.733433509789464,11.733433509789462,0,1,1,0.5253514070924408,1.5253514070924408,1.4746485929075592,3,1,1.2753514070924408,0,3,0,3,0,0,1,1,8,,,,,,,,,,,,,,,,,,,,,200001,004,2023-03-10_12h28.56.893,DMS_BEST_eyetracking_DAN_base_12-36_looped_10minWORKING,2022.2.4,None,
35,UNPRED,12,0.5253514070924408,0,images/picture_1.png,images/picture_1.png,0,"[-11.733433509789466, -11.733433509789462]",-11.733433509789464,-11.733433509789462,images/picture_2.png,1,"[-11.733433509789462, 11.733433509789464]",-11.733433509789462,11.733433509789464,images/picture_3.png,2,"[11.733433509789464, 11.733433509789462]",11.733433509789464,11.733433509789462,0,1,1,0.5253514070924408,1.5253514070924408,1.4746485929075592,3,1,1.2753514070924408,0,3,0,3,0,0,1,1,8,,,,,,,0.0034595000033732504,240.39666524999848,240.39666524999848,241.39574133299902,241.6822017079976,241.91507766599898,241.91507766599898,241.91507766599898,243.39553766599784,243.39553766599784,243.39553766599784,243.39553766599784,3.997067917000095,244.41542887499963,200001,004,2023-03-10_12h28.56.893,DMS_BEST_eyetracking_DAN_base_12-36_looped_10minWORKING,2022.2.4,None,
29,UNPRED,12,0.8662005162118327,1,images/picture_2.png,images/picture_1.png,0,"[-11.733433509789462, 11.733433509789464]",-11.733433509789462,11.733433509789464,images/picture_2.png,1,"[11.733433509789464, 11.733433509789462]",11.733433509789464,11.733433509789462,images/picture_3.png,2,"[11.733433509789462, -11.733433509789466]",11.733433509789462,-11.733433509789464,0,1,1,0.8662005162118327,1.8662005162118327,1.1337994837881673,3,1,1.6162005162118327,0,3,0,3,0,0,2,2,2,,,,,,,,,,,,,,,,,,,,,200001,004,2023-03-10_12h28.56.893,DMS_BEST_eyetracking_DAN_base_12-36_looped_10minWORKING,2022.2.4,None,
29,UNPRED,12,0.8662005162118327,1,images/picture_2.png,images/picture_1.png,0,"[-11.733433509789462, 11.733433509789464]",-11.733433509789462,11.733433509789464,images/picture_2.png,1,"[11.733433509789464, 11.733433509789462]",11.733433509789464,11.733433509789462,images/picture_3.png,2,"[11.733433509789462, -11.733433509789466]",11.733433509789462,-11.733433509789464,0,1,1,0.8662005162118327,1.8662005162118327,1.1337994837881673,3,1,1.6162005162118327,0,3,0,3,0,0,2,2,2,,,,,,,0.005864416998520028,244.41542887499963,244.41542887499963,245.4290047079994,246.0291804999979,246.26217562500096,246.26217562500096,246.26217562500096,247.3954134159976,247.3954134159976,247.3954134159976,247.3954134159976,4.030006041997694,248.39577341599943,200001,004,2023-03-10_12h28.56.893,DMS_BEST_eyetracking_DAN_base_12-36_looped_10minWORKING,2022.2.4,None,
30,UNPRED,12,0.7550760313584876,2,images/picture_3.png,images/picture_1.png,0,"[11.733433509789462, -11.733433509789466]",11.733433509789462,-11.733433509789464,images/picture_2.png,1,"[-11.733433509789466, -11.733433509789462]",-11.733433509789464,-11.733433509789462,images/picture_3.png,2,"[11.733433509789464, 11.733433509789462]",11.733433509789464,11.733433509789462,0,1,1,0.7550760313584876,1.7550760313584877,1.2449239686415123,3,1,1.5050760313584877,0,3,0,3,0,0,3,3,3,,,,,,,,,,,,,,,,,,,,,200001,004,2023-03-10_12h28.56.893,DMS_BEST_eyetracking_DAN_base_12-36_looped_10minWORKING,2022.2.4,None,
30,UNPRED,12,0.7550760313584876,2,images/picture_3.png,images/picture_1.png,0,"[11.733433509789462, -11.733433509789466]",11.733433509789462,-11.733433509789464,images/picture_2.png,1,"[-11.733433509789466, -11.733433509789462]",-11.733433509789464,-11.733433509789462,images/picture_3.png,2,"[11.733433509789464, 11.733433509789462]",11.733433509789464,11.733433509789462,0,1,1,0.7550760313584876,1.7550760313584877,1.2449239686415123,3,1,1.5050760313584877,0,3,0,3,0,0,3,3,3,,,,,,,0.0034383749989501666,248.4302564999998,248.4302564999998,249.4290888329997,249.9487769160005,250.182305833001,250.182305833001,250.182305833001,251.42905624999912,251.42905624999912,251.42905624999912,251.42905624999912,3.996623750001163,252.44855612500032,200001,004,2023-03-10_12h28.56.893,DMS_BEST_eyetracking_DAN_base_12-36_looped_10minWORKING,2022.2.4,None,
28,UNPRED,12,0.5605198483362571,1,images/picture_2.png,images/picture_1.png,0,"[-11.733433509789466, -11.733433509789462]",-11.733433509789464,-11.733433509789462,images/picture_2.png,1,"[-11.733433509789462, 11.733433509789464]",-11.733433509789462,11.733433509789464,images/picture_3.png,2,"[11.733433509789462, -11.733433509789466]",11.733433509789462,-11.733433509789464,0,1,1,0.5605198483362571,1.5605198483362568,1.4394801516637432,3,1,1.310519848336257,0,3,0,3,0,0,4,4,1,,,,,,,,,,,,,,,,,,,,,200001,004,2023-03-10_12h28.56.893,DMS_BEST_eyetracking_DAN_base_12-36_looped_10minWORKING,2022.2.4,None,
28,UNPRED,12,0.5605198483362571,1,images/picture_2.png,images/picture_1.png,0,"[-11.733433509789466, -11.733433509789462]",-11.733433509789464,-11.733433509789462,images/picture_2.png,1,"[-11.733433509789462, 11.733433509789464]",-11.733433509789462,11.733433509789464,images/picture_3.png,2,"[11.733433509789462, -11.733433509789466]",11.733433509789462,-11.733433509789464,0,1,1,0.5605198483362571,1.5605198483362568,1.4394801516637432,3,1,1.310519848336257,0,3,0,3,0,0,4,4,1,,,,,,,0.005086749999463791,252.44855612500032,252.44855612500032,253.4625091659982,253.76239141599945,253.9818514159997,253.9818514159997,253.9818514159997,255.42911141600052,255.42911141600052,255.42911141600052,255.42911141600052,4.029642667002918,256.42908395799896,200001,004,2023-03-10_12h28.56.893,DMS_BEST_eyetracking_DAN_base_12-36_looped_10minWORKING,2022.2.4,None,
33,UNPRED,12,0.5507990115620577,2,images/picture_3.png,images/picture_1.png,0,"[11.733433509789462, -11.733433509789466]",11.733433509789462,-11.733433509789464,images/picture_2.png,1,"[-11.733433509789466, -11.733433509789462]",-11.733433509789464,-11.733433509789462,images/picture_3.png,2,"[-11.733433509789462, 11.733433509789464]",-11.733433509789462,11.733433509789464,0,1,1,0.5507990115620577,1.5507990115620576,1.4492009884379424,3,1,1.3007990115620576,0,3,0,3,0,0,5,5,6,,,,,,,,,,,,,,,,,,,,,200001,004,2023-03-10_12h28.56.893,DMS_BEST_eyetracking_DAN_base_12-36_looped_10minWORKING,2022.2.4,None,
33,UNPRED,12,0.5507990115620577,2,images/picture_3.png,images/picture_1.png,0,"[11.733433509789462, -11.733433509789466]",11.733433509789462,-11.733433509789464,images/picture_2.png,1,"[-11.733433509789466, -11.733433509789462]",-11.733433509789464,-11.733433509789462,images/picture_3.png,2,"[-11.733433509789462, 11.733433509789464]",-11.733433509789462,11.733433509789464,0,1,1,0.5507990115620577,1.5507990115620576,1.4492009884379424,3,1,1.3007990115620576,0,3,0,3,0,0,5,5,6,,,,,,,0.0033422919987060595,256.46310479100066,256.46310479100066,257.4620025410004,257.7623522499998,258.01503441599925,258.01503441599925,258.01503441599925,259.46254754099937,259.46254754099937,259.46254754099937,259.46254754099937,3.996717999998509,260.48217887499777,200001,004,2023-03-10_12h28.56.893,DMS_BEST_eyetracking_DAN_base_12-36_looped_10minWORKING,2022.2.4,None,
27,UNPRED,12,0.9390323358433595,0,images/picture_1.png,images/picture_1.png,0,"[11.733433509789462, -11.733433509789466]",11.733433509789462,-11.733433509789464,images/picture_2.png,1,"[-11.733433509789462, 11.733433509789464]",-11.733433509789462,11.733433509789464,images/picture_3.png,2,"[-11.733433509789466, -11.733433509789462]",-11.733433509789464,-11.733433509789462,0,1,1,0.9390323358433595,1.93903233584336,1.0609676641566403,3,1,1.6890323358433597,0,3,0,3,0,0,6,6,0,,,,,,,,,,,,,,,,,,,,,200001,004,2023-03-10_12h28.56.893,DMS_BEST_eyetracking_DAN_base_12-36_looped_10minWORKING,2022.2.4,None,
27,UNPRED,12,0.9390323358433595,0,images/picture_1.png,images/picture_1.png,0,"[11.733433509789462, -11.733433509789466]",11.733433509789462,-11.733433509789464,images/picture_2.png,1,"[-11.733433509789462, 11.733433509789464]",-11.733433509789462,11.733433509789464,images/picture_3.png,2,"[-11.733433509789466, -11.733433509789462]",-11.733433509789464,-11.733433509789462,0,1,1,0.9390323358433595,1.93903233584336,1.0609676641566403,3,1,1.6890323358433597,0,3,0,3,0,0,6,6,0,,,,,,,0.004789874998095911,260.48217887499777,260.48217887499777,261.4957790829976,262.18176058300014,262.39562391599975,262.39562391599975,262.39562391599975,263.4625286659975,263.4625286659975,263.4625286659975,263.4625286659975,4.02972937499726,264.46248537499923,200001,004,2023-03-10_12h28.56.893,DMS_BEST_eyetracking_DAN_base_12-36_looped_10minWORKING,2022.2.4,None,
34,UNPRED,12,0.7690032852829269,0,images/picture_1.png,images/picture_1.png,0,"[11.733433509789462, -11.733433509789466]",11.733433509789462,-11.733433509789464,images/picture_2.png,1,"[-11.733433509789466, -11.733433509789462]",-11.733433509789464,-11.733433509789462,images/picture_3.png,2,"[-11.733433509789462, 11.733433509789464]",-11.733433509789462,11.733433509789464,0,1,1,0.7690032852829269,1.769003285282927,1.230996714717073,3,1,1.519003285282927,0,3,0,3,0,0,7,7,7,,,,,,,,,,,,,,,,,,,,,200001,004,2023-03-10_12h28.56.893,DMS_BEST_eyetracking_DAN_base_12-36_looped_10minWORKING,2022.2.4,None,
34,UNPRED,12,0.7690032852829269,0,images/picture_1.png,images/picture_1.png,0,"[11.733433509789462, -11.733433509789466]",11.733433509789462,-11.733433509789464,images/picture_2.png,1,"[-11.733433509789466, -11.733433509789462]",-11.733433509789464,-11.733433509789462,images/picture_3.png,2,"[-11.733433509789462, 11.733433509789464]",-11.733433509789462,11.733433509789464,0,1,1,0.7690032852829269,1.769003285282927,1.230996714717073,3,1,1.519003285282927,0,3,0,3,0,0,7,7,7,,,,,,,0.0035600840019469615,264.49668854099946,264.49668854099946,265.4958630410001,266.0292354999983,266.2622227079992,266.2622227079992,266.2622227079992,267.49554808299945,267.49554808299945,267.49554808299945,267.49554808299945,3.9969612089989823,268.51567104100104,200001,004,2023-03-10_12h28.56.893,DMS_BEST_eyetracking_DAN_base_12-36_looped_10minWORKING,2022.2.4,None,
32,UNPRED,12,0.8790219786854152,1,images/picture_2.png,images/picture_1.png,0,"[11.733433509789464, 11.733433509789462]",11.733433509789464,11.733433509789462,images/picture_2.png,1,"[-11.733433509789466, -11.733433509789462]",-11.733433509789464,-11.733433509789462,images/picture_3.png,2,"[11.733433509789462, -11.733433509789466]",11.733433509789462,-11.733433509789464,0,1,1,0.8790219786854152,1.8790219786854152,1.1209780213145848,3,1,1.6290219786854152,0,3,0,3,0,0,8,8,5,,,,,,,,,,,,,,,,,,,,,200001,004,2023-03-10_12h28.56.893,DMS_BEST_eyetracking_DAN_base_12-36_looped_10minWORKING,2022.2.4,None,
32,UNPRED,12,0.8790219786854152,1,images/picture_2.png,images/picture_1.png,0,"[11.733433509789464, 11.733433509789462]",11.733433509789464,11.733433509789462,images/picture_2.png,1,"[-11.733433509789466, -11.733433509789462]",-11.733433509789464,-11.733433509789462,images/picture_3.png,2,"[11.733433509789462, -11.733433509789466]",11.733433509789462,-11.733433509789464,0,1,1,0.8790219786854152,1.8790219786854152,1.1209780213145848,3,1,1.6290219786854152,0,3,0,3,0,0,8,8,5,,,,,,,0.0061142500017012935,268.51567104100104,268.51567104100104,269.52926783300063,270.14901074999943,270.3621911249975,270.3621911249975,270.3621911249975,271.49583387500024,271.49583387500024,271.49583387500024,271.49583387500024,4.029954166002426,272.4957958329978,200001,004,2023-03-10_12h28.56.893,DMS_BEST_eyetracking_DAN_base_12-36_looped_10minWORKING,2022.2.4,None,
,,,,,,,,,,,,,,,,,,,,,,,,,,,,,,,3,0,3,0,,,,,,,,,272.5918340829994,284.615194957998,,,,,,,,,,,,,,,200001,004,2023-03-10_12h28.56.893,DMS_BEST_eyetracking_DAN_base_12-36_looped_10minWORKING,2022.2.4,None,
42,PRED,12,0.9794015071476818,2,images/picture_3.png,images/picture_1.png,0,"[11.733433509789464, 11.733433509789462]",11.733433509789464,11.733433509789462,images/picture_2.png,1,"[-11.733433509789462, 11.733433509789464]",-11.733433509789462,11.733433509789464,images/picture_3.png,2,"[-11.733433509789466, -11.733433509789462]",-11.733433509789464,-11.733433509789462,0,1,1,0.9794015071476818,1.9794015071476816,1.0205984928523182,3,1,1.7294015071476818,0,4,0,4,0,0,0,0,6,,,,,,,,,,,,,,,,,,,,,200001,004,2023-03-10_12h28.56.893,DMS_BEST_eyetracking_DAN_base_12-36_looped_10minWORKING,2022.2.4,None,
42,PRED,12,0.9794015071476818,2,images/picture_3.png,images/picture_1.png,0,"[11.733433509789464, 11.733433509789462]",11.733433509789464,11.733433509789462,images/picture_2.png,1,"[-11.733433509789462, 11.733433509789464]",-11.733433509789462,11.733433509789464,images/picture_3.png,2,"[-11.733433509789466, -11.733433509789462]",-11.733433509789464,-11.733433509789462,0,1,1,0.9794015071476818,1.9794015071476816,1.0205984928523182,3,1,1.7294015071476818,0,4,0,4,0,0,0,0,6,,,,,,,0.0025287499993282836,284.615194957998,284.615194957998,285.62928708300024,286.34849358299834,286.5959054999985,286.5959054999985,286.5959054999985,287.61455279099755,287.6289056659989,287.6289056659989,287.6289056659989,4.01158233300157,288.6485089159978,200001,004,2023-03-10_12h28.56.893,DMS_BEST_eyetracking_DAN_base_12-36_looped_10minWORKING,2022.2.4,None,
39,PRED,12,0.9491195037780008,2,images/picture_3.png,images/picture_1.png,0,"[11.733433509789464, 11.733433509789462]",11.733433509789464,11.733433509789462,images/picture_2.png,1,"[-11.733433509789466, -11.733433509789462]",-11.733433509789464,-11.733433509789462,images/picture_3.png,2,"[-11.733433509789462, 11.733433509789464]",-11.733433509789462,11.733433509789464,0,1,1,0.9491195037780008,1.9491195037780007,1.0508804962219993,3,1,1.6991195037780007,0,4,0,4,0,0,1,1,3,,,,,,,,,,,,,,,,,,,,,200001,004,2023-03-10_12h28.56.893,DMS_BEST_eyetracking_DAN_base_12-36_looped_10minWORKING,2022.2.4,None,
39,PRED,12,0.9491195037780008,2,images/picture_3.png,images/picture_1.png,0,"[11.733433509789464, 11.733433509789462]",11.733433509789464,11.733433509789462,images/picture_2.png,1,"[-11.733433509789466, -11.733433509789462]",-11.733433509789464,-11.733433509789462,images/picture_3.png,2,"[-11.733433509789462, 11.733433509789464]",-11.733433509789462,11.733433509789464,0,1,1,0.9491195037780008,1.9491195037780007,1.0508804962219993,3,1,1.6991195037780007,0,4,0,4,0,0,1,1,3,,,,,,,0.0034254999991389923,288.6485089159978,288.6485089159978,289.662354707998,290.3625955409989,290.58229641599974,290.58229641599974,290.58229641599974,291.62931645799836,291.64850749999823,291.64850749999823,291.64850749999823,4.029879916997743,292.6288203330005,200001,004,2023-03-10_12h28.56.893,DMS_BEST_eyetracking_DAN_base_12-36_looped_10minWORKING,2022.2.4,None,
41,PRED,12,0.8807105337720782,2,images/picture_3.png,images/picture_1.png,0,"[11.733433509789462, -11.733433509789466]",11.733433509789462,-11.733433509789464,images/picture_2.png,1,"[11.733433509789464, 11.733433509789462]",11.733433509789464,11.733433509789462,images/picture_3.png,2,"[-11.733433509789466, -11.733433509789462]",-11.733433509789464,-11.733433509789462,0,1,1,0.8807105337720782,1.8807105337720784,1.1192894662279218,3,1,1.6307105337720782,0,4,0,4,0,0,2,2,5,,,,,,,,,,,,,,,,,,,,,200001,004,2023-03-10_12h28.56.893,DMS_BEST_eyetracking_DAN_base_12-36_looped_10minWORKING,2022.2.4,None,
41,PRED,12,0.8807105337720782,2,images/picture_3.png,images/picture_1.png,0,"[11.733433509789462, -11.733433509789466]",11.733433509789462,-11.733433509789464,images/picture_2.png,1,"[11.733433509789464, 11.733433509789462]",11.733433509789464,11.733433509789462,images/picture_3.png,2,"[-11.733433509789466, -11.733433509789462]",-11.733433509789464,-11.733433509789462,0,1,1,0.8807105337720782,1.8807105337720784,1.1192894662279218,3,1,1.6307105337720782,0,4,0,4,0,0,2,2,5,,,,,,,0.0026384170014353003,292.68219675,292.68219675,293.6960546659975,294.3155176250002,294.5485680829988,294.5485680829988,294.5485680829988,295.6622885409997,295.68200358299873,295.68200358299873,295.68200358299873,4.028742917002091,296.66256387500107,200001,004,2023-03-10_12h28.56.893,DMS_BEST_eyetracking_DAN_base_12-36_looped_10minWORKING,2022.2.4,None,
38,PRED,12,1.1517202601659442,2,images/picture_3.png,images/picture_1.png,0,"[-11.733433509789462, 11.733433509789464]",-11.733433509789462,11.733433509789464,images/picture_2.png,1,"[11.733433509789464, 11.733433509789462]",11.733433509789464,11.733433509789462,images/picture_3.png,2,"[-11.733433509789466, -11.733433509789462]",-11.733433509789464,-11.733433509789462,0,1,1,1.1517202601659442,2.151720260165944,0.8482797398340559,3,1,1.9017202601659442,0,4,0,4,0,0,3,3,2,,,,,,,,,,,,,,,,,,,,,200001,004,2023-03-10_12h28.56.893,DMS_BEST_eyetracking_DAN_base_12-36_looped_10minWORKING,2022.2.4,None,
38,PRED,12,1.1517202601659442,2,images/picture_3.png,images/picture_1.png,0,"[-11.733433509789462, 11.733433509789464]",-11.733433509789462,11.733433509789464,images/picture_2.png,1,"[11.733433509789464, 11.733433509789462]",11.733433509789464,11.733433509789462,images/picture_3.png,2,"[-11.733433509789466, -11.733433509789462]",-11.733433509789464,-11.733433509789462,0,1,1,1.1517202601659442,2.151720260165944,0.8482797398340559,3,1,1.9017202601659442,0,4,0,4,0,0,3,3,2,,,,,,,0.003434917001868598,296.7152787499981,296.7152787499981,297.7288502499978,298.62881899999775,298.8482429579999,298.8482429579999,298.8482429579999,299.6958386660008,299.6958386660008,299.6958386660008,299.6958386660008,4.0286103329999605,300.6959957910003,200001,004,2023-03-10_12h28.56.893,DMS_BEST_eyetracking_DAN_base_12-36_looped_10minWORKING,2022.2.4,None,
44,PRED,12,0.6894221370206568,2,images/picture_3.png,images/picture_1.png,0,"[11.733433509789462, -11.733433509789466]",11.733433509789462,-11.733433509789464,images/picture_2.png,1,"[-11.733433509789462, 11.733433509789464]",-11.733433509789462,11.733433509789464,images/picture_3.png,2,"[-11.733433509789466, -11.733433509789462]",-11.733433509789464,-11.733433509789462,0,1,1,0.6894221370206568,1.6894221370206568,1.3105778629793432,3,1,1.4394221370206568,0,4,0,4,0,0,4,4,8,,,,,,,,,,,,,,,,,,,,,200001,004,2023-03-10_12h28.56.893,DMS_BEST_eyetracking_DAN_base_12-36_looped_10minWORKING,2022.2.4,None,
44,PRED,12,0.6894221370206568,2,images/picture_3.png,images/picture_1.png,0,"[11.733433509789462, -11.733433509789466]",11.733433509789462,-11.733433509789464,images/picture_2.png,1,"[-11.733433509789462, 11.733433509789464]",-11.733433509789462,11.733433509789464,images/picture_3.png,2,"[-11.733433509789466, -11.733433509789462]",-11.733433509789464,-11.733433509789462,0,1,1,0.6894221370206568,1.6894221370206568,1.3105778629793432,3,1,1.4394221370206568,0,4,0,4,0,0,4,4,8,,,,,,,0.003380166002898477,300.7298387499977,300.7298387499977,301.72932687499997,302.1823511250004,302.41553991600085,302.41553991600085,302.41553991600085,303.7292892910009,303.7292892910009,303.7292892910009,303.7292892910009,3.997543958001188,304.72921187500106,200001,004,2023-03-10_12h28.56.893,DMS_BEST_eyetracking_DAN_base_12-36_looped_10minWORKING,2022.2.4,None,
40,PRED,12,0.6552326237182435,2,images/picture_3.png,images/picture_1.png,0,"[-11.733433509789462, 11.733433509789464]",-11.733433509789462,11.733433509789464,images/picture_2.png,1,"[11.733433509789464, 11.733433509789462]",11.733433509789464,11.733433509789462,images/picture_3.png,2,"[11.733433509789462, -11.733433509789466]",11.733433509789462,-11.733433509789464,0,1,1,0.6552326237182435,1.6552326237182435,1.3447673762817565,3,1,1.4052326237182435,0,4,0,4,0,0,5,5,4,,,,,,,,,,,,,,,,,,,,,200001,004,2023-03-10_12h28.56.893,DMS_BEST_eyetracking_DAN_base_12-36_looped_10minWORKING,2022.2.4,None,
40,PRED,12,0.6552326237182435,2,images/picture_3.png,images/picture_1.png,0,"[-11.733433509789462, 11.733433509789464]",-11.733433509789462,11.733433509789464,images/picture_2.png,1,"[11.733433509789464, 11.733433509789462]",11.733433509789464,11.733433509789462,images/picture_3.png,2,"[11.733433509789462, -11.733433509789466]",11.733433509789462,-11.733433509789464,0,1,1,0.6552326237182435,1.6552326237182435,1.3447673762817565,3,1,1.4052326237182435,0,4,0,4,0,0,5,5,4,,,,,,,0.0027196669980185106,304.72921187500106,304.72921187500106,305.7292739580007,306.148709582998,306.38254374999815,306.38254374999815,306.38254374999815,307.7290307500007,307.7290307500007,307.7290307500007,307.7290307500007,3.9959725000007893,308.72882891599875,200001,004,2023-03-10_12h28.56.893,DMS_BEST_eyetracking_DAN_base_12-36_looped_10minWORKING,2022.2.4,None,
37,PRED,12,0.5119785311976572,2,images/picture_3.png,images/picture_1.png,0,"[-11.733433509789466, -11.733433509789462]",-11.733433509789464,-11.733433509789462,images/picture_2.png,1,"[11.733433509789462, -11.733433509789466]",11.733433509789462,-11.733433509789464,images/picture_3.png,2,"[11.733433509789464, 11.733433509789462]",11.733433509789464,11.733433509789462,0,1,1,0.5119785311976572,1.5119785311976572,1.4880214688023428,3,1,1.2619785311976572,0,4,0,4,0,0,6,6,1,,,,,,,,,,,,,,,,,,,,,200001,004,2023-03-10_12h28.56.893,DMS_BEST_eyetracking_DAN_base_12-36_looped_10minWORKING,2022.2.4,None,
37,PRED,12,0.5119785311976572,2,images/picture_3.png,images/picture_1.png,0,"[-11.733433509789466, -11.733433509789462]",-11.733433509789464,-11.733433509789462,images/picture_2.png,1,"[11.733433509789462, -11.733433509789466]",11.733433509789462,-11.733433509789464,images/picture_3.png,2,"[11.733433509789464, 11.733433509789462]",11.733433509789464,11.733433509789462,0,1,1,0.5119785311976572,1.5119785311976572,1.4880214688023428,3,1,1.2619785311976572,0,4,0,4,0,0,6,6,1,,,,,,,0.0012731659990095068,308.72882891599875,308.72882891599875,309.7293306249994,309.9960422910008,310.2290452499983,310.2290452499983,310.2290452499983,311.7293884999999,311.7293884999999,311.7293884999999,311.7293884999999,3.999414915997477,312.73025849999976,200001,004,2023-03-10_12h28.56.893,DMS_BEST_eyetracking_DAN_base_12-36_looped_10minWORKING,2022.2.4,None,
43,PRED,12,1.0903147568732368,2,images/picture_3.png,images/picture_1.png,0,"[-11.733433509789462, 11.733433509789464]",-11.733433509789462,11.733433509789464,images/picture_2.png,1,"[11.733433509789462, -11.733433509789466]",11.733433509789462,-11.733433509789464,images/picture_3.png,2,"[-11.733433509789466, -11.733433509789462]",-11.733433509789464,-11.733433509789462,0,1,1,1.0903147568732368,2.0903147568732368,0.9096852431267632,3,1,1.8403147568732368,0,4,0,4,0,0,7,7,7,,,,,,,,,,,,,,,,,,,,,200001,004,2023-03-10_12h28.56.893,DMS_BEST_eyetracking_DAN_base_12-36_looped_10minWORKING,2022.2.4,None,
43,PRED,12,1.0903147568732368,2,images/picture_3.png,images/picture_1.png,0,"[-11.733433509789462, 11.733433509789464]",-11.733433509789462,11.733433509789464,images/picture_2.png,1,"[11.733433509789462, -11.733433509789466]",11.733433509789462,-11.733433509789464,images/picture_3.png,2,"[-11.733433509789466, -11.733433509789462]",-11.733433509789464,-11.733433509789462,0,1,1,1.0903147568732368,2.0903147568732368,0.9096852431267632,3,1,1.8403147568732368,0,4,0,4,0,0,7,7,7,,,,,,,0.003375250002136454,312.73025849999976,312.73025849999976,313.72938950000025,314.58203974999924,314.81603837500006,314.81603837500006,314.81603837500006,315.7293209579984,315.7293209579984,315.7293209579984,315.7293209579984,3.9965088330027356,316.7296498329997,200001,004,2023-03-10_12h28.56.893,DMS_BEST_eyetracking_DAN_base_12-36_looped_10minWORKING,2022.2.4,None,
36,PRED,12,0.6715228665863657,2,images/picture_3.png,images/picture_1.png,0,"[-11.733433509789462, 11.733433509789464]",-11.733433509789462,11.733433509789464,images/picture_2.png,1,"[-11.733433509789466, -11.733433509789462]",-11.733433509789464,-11.733433509789462,images/picture_3.png,2,"[11.733433509789462, -11.733433509789466]",11.733433509789462,-11.733433509789464,0,1,1,0.6715228665863657,1.6715228665863655,1.3284771334136345,3,1,1.4215228665863655,0,4,0,4,0,0,8,8,0,,,,,,,,,,,,,,,,,,,,,200001,004,2023-03-10_12h28.56.893,DMS_BEST_eyetracking_DAN_base_12-36_looped_10minWORKING,2022.2.4,None,
36,PRED,12,0.6715228665863657,2,images/picture_3.png,images/picture_1.png,0,"[-11.733433509789462, 11.733433509789464]",-11.733433509789462,11.733433509789464,images/picture_2.png,1,"[-11.733433509789466, -11.733433509789462]",-11.733433509789464,-11.733433509789462,images/picture_3.png,2,"[11.733433509789462, -11.733433509789466]",11.733433509789462,-11.733433509789464,0,1,1,0.6715228665863657,1.6715228665863655,1.3284771334136345,3,1,1.4215228665863655,0,4,0,4,0,0,8,8,0,,,,,,,0.0033480830024927855,316.7296498329997,316.7296498329997,317.72931574999893,318.16229533300066,318.3956553749995,318.3956553749995,318.3956553749995,319.729364625,319.729364625,319.729364625,319.729364625,3.9970317500010424,320.80197150000095,200001,004,2023-03-10_12h28.56.893,DMS_BEST_eyetracking_DAN_base_12-36_looped_10minWORKING,2022.2.4,None,
,,,,,,,,,,,,,,,,,,,,,,,,,,,,,,,4,0,4,0,,,,,,,,,320.80197150000095,332.8277004999982,,,,,,,,,,,,,,,200001,004,2023-03-10_12h28.56.893,DMS_BEST_eyetracking_DAN_base_12-36_looped_10minWORKING,2022.2.4,None,
46,UNPRED,12,0.5997454571355678,2,images/picture_3.png,images/picture_1.png,0,"[-11.733433509789466, -11.733433509789462]",-11.733433509789464,-11.733433509789462,images/picture_2.png,1,"[11.733433509789464, 11.733433509789462]",11.733433509789464,11.733433509789462,images/picture_3.png,2,"[-11.733433509789462, 11.733433509789464]",-11.733433509789462,11.733433509789464,0,1,1,0.5997454571355678,1.5997454571355678,1.4002545428644322,3,1,1.3497454571355678,0,5,0,5,0,0,0,0,1,,,,,,,,,,,,,,,,,,,,,200001,004,2023-03-10_12h28.56.893,DMS_BEST_eyetracking_DAN_base_12-36_looped_10minWORKING,2022.2.4,None,
46,UNPRED,12,0.5997454571355678,2,images/picture_3.png,images/picture_1.png,0,"[-11.733433509789466, -11.733433509789462]",-11.733433509789464,-11.733433509789462,images/picture_2.png,1,"[11.733433509789464, 11.733433509789462]",11.733433509789464,11.733433509789462,images/picture_3.png,2,"[-11.733433509789462, 11.733433509789464]",-11.733433509789462,11.733433509789464,0,1,1,0.5997454571355678,1.5997454571355678,1.4002545428644322,3,1,1.3497454571355678,0,5,0,5,0,0,0,0,1,,,,,,,0.002623749998747371,332.8277004999982,332.8277004999982,333.82934487500097,334.1821875829992,334.42915362499843,334.42915362499843,334.42915362499843,335.82957854100096,335.82957854100096,335.82957854100096,335.82957854100096,3.9980027909987257,336.8488414579988,200001,004,2023-03-10_12h28.56.893,DMS_BEST_eyetracking_DAN_base_12-36_looped_10minWORKING,2022.2.4,None,
52,UNPRED,12,0.9036940144018436,0,images/picture_1.png,images/picture_1.png,0,"[11.733433509789462, -11.733433509789466]",11.733433509789462,-11.733433509789464,images/picture_2.png,1,"[-11.733433509789462, 11.733433509789464]",-11.733433509789462,11.733433509789464,images/picture_3.png,2,"[-11.733433509789466, -11.733433509789462]",-11.733433509789464,-11.733433509789462,0,1,1,0.9036940144018436,1.903694014401844,1.0963059855981565,3,1,1.6536940144018435,0,5,0,5,0,0,1,1,7,,,,,,,,,,,,,,,,,,,,,200001,004,2023-03-10_12h28.56.893,DMS_BEST_eyetracking_DAN_base_12-36_looped_10minWORKING,2022.2.4,None,
52,UNPRED,12,0.9036940144018436,0,images/picture_1.png,images/picture_1.png,0,"[11.733433509789462, -11.733433509789466]",11.733433509789462,-11.733433509789464,images/picture_2.png,1,"[-11.733433509789462, 11.733433509789464]",-11.733433509789462,11.733433509789464,images/picture_3.png,2,"[-11.733433509789466, -11.733433509789462]",-11.733433509789464,-11.733433509789462,0,1,1,0.9036940144018436,1.903694014401844,1.0963059855981565,3,1,1.6536940144018435,0,5,0,5,0,0,1,1,7,,,,,,,0.004760042000270914,336.8488414579988,336.8488414579988,337.8628083750009,338.51464358299927,338.7290764999998,338.7290764999998,338.7290764999998,339.82951975000105,339.82951975000105,339.82951975000105,339.82951975000105,4.0298381249995145,340.82952041599856,200001,004,2023-03-10_12h28.56.893,DMS_BEST_eyetracking_DAN_base_12-36_looped_10minWORKING,2022.2.4,None,
45,UNPRED,12,1.1985974460435438,0,images/picture_1.png,images/picture_1.png,0,"[-11.733433509789462, 11.733433509789464]",-11.733433509789462,11.733433509789464,images/picture_2.png,1,"[-11.733433509789466, -11.733433509789462]",-11.733433509789464,-11.733433509789462,images/picture_3.png,2,"[11.733433509789462, -11.733433509789466]",11.733433509789462,-11.733433509789464,0,1,1,1.1985974460435438,2.198597446043544,0.8014025539564562,3,1,1.948597446043544,0,5,0,5,0,0,2,2,0,,,,,,,,,,,,,,,,,,,,,200001,004,2023-03-10_12h28.56.893,DMS_BEST_eyetracking_DAN_base_12-36_looped_10minWORKING,2022.2.4,None,
45,UNPRED,12,1.1985974460435438,0,images/picture_1.png,images/picture_1.png,0,"[-11.733433509789462, 11.733433509789464]",-11.733433509789462,11.733433509789464,images/picture_2.png,1,"[-11.733433509789466, -11.733433509789462]",-11.733433509789464,-11.733433509789462,images/picture_3.png,2,"[11.733433509789462, -11.733433509789466]",11.733433509789462,-11.733433509789464,0,1,1,1.1985974460435438,2.198597446043544,0.8014025539564562,3,1,1.948597446043544,0,5,0,5,0,0,2,2,0,,,,,,,0.0036618329977500252,340.88187583299805,340.88187583299805,341.89598475000093,342.82953908299896,343.06260120799925,343.06260120799925,343.06260120799925,343.8628019579992,343.8628019579992,343.8628019579992,343.8628019579992,4.029730166999798,344.86275512499924,200001,004,2023-03-10_12h28.56.893,DMS_BEST_eyetracking_DAN_base_12-36_looped_10minWORKING,2022.2.4,None,
51,UNPRED,12,1.158433267808416,1,images/picture_2.png,images/picture_1.png,0,"[11.733433509789462, -11.733433509789466]",11.733433509789462,-11.733433509789464,images/picture_2.png,1,"[-11.733433509789462, 11.733433509789464]",-11.733433509789462,11.733433509789464,images/picture_3.png,2,"[11.733433509789464, 11.733433509789462]",11.733433509789464,11.733433509789462,0,1,1,1.158433267808416,2.158433267808416,0.8415667321915841,3,1,1.908433267808416,0,5,0,5,0,0,3,3,6,,,,,,,,,,,,,,,,,,,,,200001,004,2023-03-10_12h28.56.893,DMS_BEST_eyetracking_DAN_base_12-36_looped_10minWORKING,2022.2.4,None,
51,UNPRED,12,1.158433267808416,1,images/picture_2.png,images/picture_1.png,0,"[11.733433509789462, -11.733433509789466]",11.733433509789462,-11.733433509789464,images/picture_2.png,1,"[-11.733433509789462, 11.733433509789464]",-11.733433509789462,11.733433509789464,images/picture_3.png,2,"[11.733433509789464, 11.733433509789462]",11.733433509789464,11.733433509789462,0,1,1,1.158433267808416,2.158433267808416,0.8415667321915841,3,1,1.908433267808416,0,5,0,5,0,0,3,3,6,,,,,,,0.005955458000244107,344.9155034159994,344.9155034159994,345.92952254099873,346.82952904099875,347.04868262499804,347.04868262499804,347.04868262499804,347.89609941600065,347.89609941600065,347.89609941600065,347.89609941600065,4.029231417000119,348.89571041599993,200001,004,2023-03-10_12h28.56.893,DMS_BEST_eyetracking_DAN_base_12-36_looped_10minWORKING,2022.2.4,None,
47,UNPRED,12,1.1386174729854757,0,images/picture_1.png,images/picture_1.png,0,"[-11.733433509789462, 11.733433509789464]",-11.733433509789462,11.733433509789464,images/picture_2.png,1,"[11.733433509789464, 11.733433509789462]",11.733433509789464,11.733433509789462,images/picture_3.png,2,"[-11.733433509789466, -11.733433509789462]",-11.733433509789464,-11.733433509789462,0,1,1,1.1386174729854757,2.138617472985476,0.8613825270145243,3,1,1.888617472985476,0,5,0,5,0,0,4,4,2,,,,,,,,,,,,,,,,,,,,,200001,004,2023-03-10_12h28.56.893,DMS_BEST_eyetracking_DAN_base_12-36_looped_10minWORKING,2022.2.4,None,
47,UNPRED,12,1.1386174729854757,0,images/picture_1.png,images/picture_1.png,0,"[-11.733433509789462, 11.733433509789464]",-11.733433509789462,11.733433509789464,images/picture_2.png,1,"[11.733433509789464, 11.733433509789462]",11.733433509789464,11.733433509789462,images/picture_3.png,2,"[-11.733433509789466, -11.733433509789462]",-11.733433509789464,-11.733433509789462,0,1,1,1.1386174729854757,2.138617472985476,0.8613825270145243,3,1,1.888617472985476,0,5,0,5,0,0,4,4,2,,,,,,,0.0018765829991025385,348.9288268329983,348.9288268329983,349.92954191600074,350.88509712499945,351.06254162500045,351.06254162500045,351.06254162500045,351.9295294580006,351.9295294580006,351.9295294580006,351.9295294580006,3.9993154160001723,352.9491565829994,200001,004,2023-03-10_12h28.56.893,DMS_BEST_eyetracking_DAN_base_12-36_looped_10minWORKING,2022.2.4,None,
50,UNPRED,12,0.9494822234368684,2,images/picture_3.png,images/picture_1.png,0,"[-11.733433509789462, 11.733433509789464]",-11.733433509789462,11.733433509789464,images/picture_2.png,1,"[11.733433509789462, -11.733433509789466]",11.733433509789462,-11.733433509789464,images/picture_3.png,2,"[-11.733433509789466, -11.733433509789462]",-11.733433509789464,-11.733433509789462,0,1,1,0.9494822234368684,1.9494822234368685,1.0505177765631315,3,1,1.6994822234368685,0,5,0,5,0,0,5,5,5,,,,,,,,,,,,,,,,,,,,,200001,004,2023-03-10_12h28.56.893,DMS_BEST_eyetracking_DAN_base_12-36_looped_10minWORKING,2022.2.4,None,
50,UNPRED,12,0.9494822234368684,2,images/picture_3.png,images/picture_1.png,0,"[-11.733433509789462, 11.733433509789464]",-11.733433509789462,11.733433509789464,images/picture_2.png,1,"[11.733433509789462, -11.733433509789466]",11.733433509789462,-11.733433509789464,images/picture_3.png,2,"[-11.733433509789466, -11.733433509789462]",-11.733433509789464,-11.733433509789462,0,1,1,0.9494822234368684,1.9494822234368685,1.0505177765631315,3,1,1.6994822234368685,0,5,0,5,0,0,5,5,5,,,,,,,0.00453462500081514,352.9491565829994,352.9491565829994,353.962814333001,354.6627868329997,354.8829478330008,354.8829478330008,354.8829478330008,355.9295429160011,355.9485864579983,355.9485864579983,355.9485864579983,4.030241374999605,356.92951099999846,200001,004,2023-03-10_12h28.56.893,DMS_BEST_eyetracking_DAN_base_12-36_looped_10minWORKING,2022.2.4,None,
49,UNPRED,12,1.0827070199186035,2,images/picture_3.png,images/picture_1.png,0,"[11.733433509789464, 11.733433509789462]",11.733433509789464,11.733433509789462,images/picture_2.png,1,"[11.733433509789462, -11.733433509789466]",11.733433509789462,-11.733433509789464,images/picture_3.png,2,"[-11.733433509789466, -11.733433509789462]",-11.733433509789464,-11.733433509789462,0,1,1,1.0827070199186035,2.082707019918604,0.9172929800813964,3,1,1.832707019918604,0,5,0,5,0,0,6,6,4,,,,,,,,,,,,,,,,,,,,,200001,004,2023-03-10_12h28.56.893,DMS_BEST_eyetracking_DAN_base_12-36_looped_10minWORKING,2022.2.4,None,
49,UNPRED,12,1.0827070199186035,2,images/picture_3.png,images/picture_1.png,0,"[11.733433509789464, 11.733433509789462]",11.733433509789464,11.733433509789462,images/picture_2.png,1,"[11.733433509789462, -11.733433509789466]",11.733433509789462,-11.733433509789464,images/picture_3.png,2,"[-11.733433509789466, -11.733433509789462]",-11.733433509789464,-11.733433509789462,0,1,1,1.0827070199186035,2.082707019918604,0.9172929800813964,3,1,1.832707019918604,0,5,0,5,0,0,6,6,4,,,,,,,0.003430459000810515,356.98218983300103,356.98218983300103,357.99623037499987,358.82932691599854,359.0480093749975,359.0480093749975,359.0480093749975,359.9629428749977,359.9629428749977,359.9629428749977,359.9629428749977,4.029736500000581,360.9629231660001,200001,004,2023-03-10_12h28.56.893,DMS_BEST_eyetracking_DAN_base_12-36_looped_10minWORKING,2022.2.4,None,
53,UNPRED,12,1.0966000759159398,0,images/picture_1.png,images/picture_1.png,0,"[11.733433509789462, -11.733433509789466]",11.733433509789462,-11.733433509789464,images/picture_2.png,1,"[-11.733433509789462, 11.733433509789464]",-11.733433509789462,11.733433509789464,images/picture_3.png,2,"[11.733433509789464, 11.733433509789462]",11.733433509789464,11.733433509789462,0,1,1,1.0966000759159398,2.09660007591594,0.9033999240840602,3,1,1.84660007591594,0,5,0,5,0,0,7,7,8,,,,,,,,,,,,,,,,,,,,,200001,004,2023-03-10_12h28.56.893,DMS_BEST_eyetracking_DAN_base_12-36_looped_10minWORKING,2022.2.4,None,
53,UNPRED,12,1.0966000759159398,0,images/picture_1.png,images/picture_1.png,0,"[11.733433509789462, -11.733433509789466]",11.733433509789462,-11.733433509789464,images/picture_2.png,1,"[-11.733433509789462, 11.733433509789464]",-11.733433509789462,11.733433509789464,images/picture_3.png,2,"[11.733433509789464, 11.733433509789462]",11.733433509789464,11.733433509789462,0,1,1,1.0966000759159398,2.09660007591594,0.9033999240840602,3,1,1.84660007591594,0,5,0,5,0,0,7,7,8,,,,,,,0.004676292002841365,361.0154785409977,361.0154785409977,362.02953487500054,362.86284375000105,363.096014666,363.096014666,363.096014666,363.99608137500036,363.99608137500036,363.99608137500036,363.99608137500036,4.030216125000152,364.99625654099873,200001,004,2023-03-10_12h28.56.893,DMS_BEST_eyetracking_DAN_base_12-36_looped_10minWORKING,2022.2.4,None,
48,UNPRED,12,0.7922489631814611,1,images/picture_2.png,images/picture_1.png,0,"[11.733433509789464, 11.733433509789462]",11.733433509789464,11.733433509789462,images/picture_2.png,1,"[-11.733433509789466, -11.733433509789462]",-11.733433509789464,-11.733433509789462,images/picture_3.png,2,"[11.733433509789462, -11.733433509789466]",11.733433509789462,-11.733433509789464,0,1,1,0.7922489631814611,1.7922489631814609,1.2077510368185391,3,1,1.5422489631814609,0,5,0,5,0,0,8,8,3,,,,,,,,,,,,,,,,,,,,,200001,004,2023-03-10_12h28.56.893,DMS_BEST_eyetracking_DAN_base_12-36_looped_10minWORKING,2022.2.4,None,
48,UNPRED,12,0.7922489631814611,1,images/picture_2.png,images/picture_1.png,0,"[11.733433509789464, 11.733433509789462]",11.733433509789464,11.733433509789462,images/picture_2.png,1,"[-11.733433509789466, -11.733433509789462]",-11.733433509789464,-11.733433509789462,images/picture_3.png,2,"[11.733433509789462, -11.733433509789466]",11.733433509789462,-11.733433509789464,0,1,1,0.7922489631814611,1.7922489631814609,1.2077510368185391,3,1,1.5422489631814609,0,5,0,5,0,0,8,8,3,,,,,,,0.006020999997417675,365.0488822080006,365.0488822080006,366.0628149580007,366.5962814159975,366.815648415999,366.815648415999,366.815648415999,368.02955891599777,368.02955891599777,368.02955891599777,368.02955891599777,4.029557624999143,369.029108499999,200001,004,2023-03-10_12h28.56.893,DMS_BEST_eyetracking_DAN_base_12-36_looped_10minWORKING,2022.2.4,None,
,,,,,,,,,,,,,,,,,,,,,,,,,,,,,,,5,0,5,0,,,,,,,,,369.11205899999914,381.13139458300066,,,,,,,,,,,,,,,200001,004,2023-03-10_12h28.56.893,DMS_BEST_eyetracking_DAN_base_12-36_looped_10minWORKING,2022.2.4,None,
62,PRED,12,0.6857965080096715,0,images/picture_1.png,images/picture_1.png,0,"[-11.733433509789462, 11.733433509789464]",-11.733433509789462,11.733433509789464,images/picture_2.png,1,"[-11.733433509789466, -11.733433509789462]",-11.733433509789464,-11.733433509789462,images/picture_3.png,2,"[11.733433509789462, -11.733433509789466]",11.733433509789462,-11.733433509789464,0,1,1,0.6857965080096715,1.6857965080096715,1.3142034919903285,3,1,1.4357965080096715,0,6,0,6,0,0,0,0,8,,,,,,,,,,,,,,,,,,,,,200001,004,2023-03-10_12h28.56.893,DMS_BEST_eyetracking_DAN_base_12-36_looped_10minWORKING,2022.2.4,None,
62,PRED,12,0.6857965080096715,0,images/picture_1.png,images/picture_1.png,0,"[-11.733433509789462, 11.733433509789464]",-11.733433509789462,11.733433509789464,images/picture_2.png,1,"[-11.733433509789466, -11.733433509789462]",-11.733433509789464,-11.733433509789462,images/picture_3.png,2,"[11.733433509789462, -11.733433509789466]",11.733433509789462,-11.733433509789464,0,1,1,0.6857965080096715,1.6857965080096715,1.3142034919903285,3,1,1.4357965080096715,0,6,0,6,0,0,0,0,8,,,,,,,0.00378229200214264,381.13139458300066,381.13139458300066,382.1295779579996,382.5824225409997,382.8156439159975,382.8156439159975,382.8156439159975,384.1296949159987,384.1296949159987,384.1296949159987,384.1296949159987,3.9961405840003863,385.13037537499986,200001,004,2023-03-10_12h28.56.893,DMS_BEST_eyetracking_DAN_base_12-36_looped_10minWORKING,2022.2.4,None,
57,PRED,12,1.0784204627404188,0,images/picture_1.png,images/picture_1.png,0,"[11.733433509789464, 11.733433509789462]",11.733433509789464,11.733433509789462,images/picture_2.png,1,"[11.733433509789462, -11.733433509789466]",11.733433509789462,-11.733433509789464,images/picture_3.png,2,"[-11.733433509789462, 11.733433509789464]",-11.733433509789462,11.733433509789464,0,1,1,1.0784204627404188,2.078420462740419,0.9215795372595812,3,1,1.8284204627404188,0,6,0,6,0,0,1,1,3,,,,,,,,,,,,,,,,,,,,,200001,004,2023-03-10_12h28.56.893,DMS_BEST_eyetracking_DAN_base_12-36_looped_10minWORKING,2022.2.4,None,
57,PRED,12,1.0784204627404188,0,images/picture_1.png,images/picture_1.png,0,"[11.733433509789464, 11.733433509789462]",11.733433509789464,11.733433509789462,images/picture_2.png,1,"[11.733433509789462, -11.733433509789466]",11.733433509789462,-11.733433509789464,images/picture_3.png,2,"[-11.733433509789462, 11.733433509789464]",-11.733433509789462,11.733433509789464,0,1,1,1.0784204627404188,2.078420462740419,0.9215795372595812,3,1,1.8284204627404188,0,6,0,6,0,0,1,1,3,,,,,,,0.0034024590022454504,385.13037537499986,385.13037537499986,386.1295736659995,386.9630925829988,387.196054707998,387.196054707998,387.196054707998,388.12973066599807,388.12973066599807,388.12973066599807,388.12973066599807,3.996538250001322,389.12916829099777,200001,004,2023-03-10_12h28.56.893,DMS_BEST_eyetracking_DAN_base_12-36_looped_10minWORKING,2022.2.4,None,
60,PRED,12,0.814058861863302,0,images/picture_1.png,images/picture_1.png,0,"[-11.733433509789466, -11.733433509789462]",-11.733433509789464,-11.733433509789462,images/picture_2.png,1,"[-11.733433509789462, 11.733433509789464]",-11.733433509789462,11.733433509789464,images/picture_3.png,2,"[11.733433509789464, 11.733433509789462]",11.733433509789464,11.733433509789462,0,1,1,0.814058861863302,1.8140588618633018,1.185941138136698,3,1,1.5640588618633018,0,6,0,6,0,0,2,2,6,,,,,,,,,,,,,,,,,,,,,200001,004,2023-03-10_12h28.56.893,DMS_BEST_eyetracking_DAN_base_12-36_looped_10minWORKING,2022.2.4,None,
60,PRED,12,0.814058861863302,0,images/picture_1.png,images/picture_1.png,0,"[-11.733433509789466, -11.733433509789462]",-11.733433509789464,-11.733433509789462,images/picture_2.png,1,"[-11.733433509789462, 11.733433509789464]",-11.733433509789462,11.733433509789464,images/picture_3.png,2,"[11.733433509789464, 11.733433509789462]",11.733433509789464,11.733433509789462,0,1,1,0.814058861863302,1.8140588618633018,1.185941138136698,3,1,1.5640588618633018,0,6,0,6,0,0,2,2,6,,,,,,,0.0018356669970671646,389.12916829099777,389.12916829099777,390.12920216600105,390.6963494999982,390.9295677909977,390.9295677909977,390.9295677909977,392.12961016600093,392.12961016600093,392.12961016600093,392.12961016600093,3.998687583996798,393.14902304099815,200001,004,2023-03-10_12h28.56.893,DMS_BEST_eyetracking_DAN_base_12-36_looped_10minWORKING,2022.2.4,None,
54,PRED,12,0.9892518713448056,0,images/picture_1.png,images/picture_1.png,0,"[11.733433509789464, 11.733433509789462]",11.733433509789464,11.733433509789462,images/picture_2.png,1,"[-11.733433509789462, 11.733433509789464]",-11.733433509789462,11.733433509789464,images/picture_3.png,2,"[11.733433509789462, -11.733433509789466]",11.733433509789462,-11.733433509789464,0,1,1,0.9892518713448056,1.9892518713448053,1.0107481286551945,3,1,1.7392518713448055,0,6,0,6,0,0,3,3,0,,,,,,,,,,,,,,,,,,,,,200001,004,2023-03-10_12h28.56.893,DMS_BEST_eyetracking_DAN_base_12-36_looped_10minWORKING,2022.2.4,None,
54,PRED,12,0.9892518713448056,0,images/picture_1.png,images/picture_1.png,0,"[11.733433509789464, 11.733433509789462]",11.733433509789464,11.733433509789462,images/picture_2.png,1,"[-11.733433509789462, 11.733433509789464]",-11.733433509789462,11.733433509789464,images/picture_3.png,2,"[11.733433509789462, -11.733433509789466]",11.733433509789462,-11.733433509789464,0,1,1,0.9892518713448056,1.9892518713448053,1.0107481286551945,3,1,1.7392518713448055,0,6,0,6,0,0,3,3,0,,,,,,,0.003558958000212442,393.14902304099815,393.14902304099815,394.1630566249987,394.896494083001,395.11580675000005,395.11580675000005,395.11580675000005,396.12957749999987,396.12957749999987,396.12957749999987,396.12957749999987,4.029561374998593,397.12956904100065,200001,004,2023-03-10_12h28.56.893,DMS_BEST_eyetracking_DAN_base_12-36_looped_10minWORKING,2022.2.4,None,
59,PRED,12,0.5749092374594348,0,images/picture_1.png,images/picture_1.png,0,"[-11.733433509789466, -11.733433509789462]",-11.733433509789464,-11.733433509789462,images/picture_2.png,1,"[11.733433509789462, -11.733433509789466]",11.733433509789462,-11.733433509789464,images/picture_3.png,2,"[-11.733433509789462, 11.733433509789464]",-11.733433509789462,11.733433509789464,0,1,1,0.5749092374594348,1.574909237459435,1.425090762540565,3,1,1.324909237459435,0,6,0,6,0,0,4,4,5,,,,,,,,,,,,,,,,,,,,,200001,004,2023-03-10_12h28.56.893,DMS_BEST_eyetracking_DAN_base_12-36_looped_10minWORKING,2022.2.4,None,
59,PRED,12,0.5749092374594348,0,images/picture_1.png,images/picture_1.png,0,"[-11.733433509789466, -11.733433509789462]",-11.733433509789464,-11.733433509789462,images/picture_2.png,1,"[11.733433509789462, -11.733433509789466]",11.733433509789462,-11.733433509789464,images/picture_3.png,2,"[-11.733433509789462, 11.733433509789464]",-11.733433509789462,11.733433509789464,0,1,1,0.5749092374594348,1.574909237459435,1.425090762540565,3,1,1.324909237459435,0,6,0,6,0,0,4,4,5,,,,,,,0.0035421249995124526,397.16409808299795,397.16409808299795,398.1630089579994,398.49635637499887,398.72936537499845,398.72936537499845,398.72936537499845,400.162554874998,400.162554874998,400.162554874998,400.162554874998,3.9964461249983287,401.182211708001,200001,004,2023-03-10_12h28.56.893,DMS_BEST_eyetracking_DAN_base_12-36_looped_10minWORKING,2022.2.4,None,
56,PRED,12,0.9285144841417354,0,images/picture_1.png,images/picture_1.png,0,"[-11.733433509789462, 11.733433509789464]",-11.733433509789462,11.733433509789464,images/picture_2.png,1,"[11.733433509789462, -11.733433509789466]",11.733433509789462,-11.733433509789464,images/picture_3.png,2,"[11.733433509789464, 11.733433509789462]",11.733433509789464,11.733433509789462,0,1,1,0.9285144841417354,1.9285144841417357,1.0714855158582646,3,1,1.6785144841417354,0,6,0,6,0,0,5,5,2,,,,,,,,,,,,,,,,,,,,,200001,004,2023-03-10_12h28.56.893,DMS_BEST_eyetracking_DAN_base_12-36_looped_10minWORKING,2022.2.4,None,
56,PRED,12,0.9285144841417354,0,images/picture_1.png,images/picture_1.png,0,"[-11.733433509789462, 11.733433509789464]",-11.733433509789462,11.733433509789464,images/picture_2.png,1,"[11.733433509789462, -11.733433509789466]",11.733433509789462,-11.733433509789464,images/picture_3.png,2,"[11.733433509789464, 11.733433509789462]",11.733433509789464,11.733433509789462,0,1,1,0.9285144841417354,1.9285144841417357,1.0714855158582646,3,1,1.6785144841417354,0,6,0,6,0,0,5,5,2,,,,,,,0.0035655000028782524,401.182211708001,401.182211708001,402.1963629999991,402.8630296249976,403.0960754999978,403.0960754999978,403.0960754999978,404.1629958329977,404.1828154579998,404.1828154579998,404.1828154579998,4.029789875003189,405.1630490409989,200001,004,2023-03-10_12h28.56.893,DMS_BEST_eyetracking_DAN_base_12-36_looped_10minWORKING,2022.2.4,None,
58,PRED,12,0.9696263315631052,0,images/picture_1.png,images/picture_1.png,0,"[-11.733433509789462, 11.733433509789464]",-11.733433509789462,11.733433509789464,images/picture_2.png,1,"[11.733433509789464, 11.733433509789462]",11.733433509789464,11.733433509789462,images/picture_3.png,2,"[11.733433509789462, -11.733433509789466]",11.733433509789462,-11.733433509789464,0,1,1,0.9696263315631052,1.9696263315631053,1.0303736684368947,3,1,1.7196263315631053,0,6,0,6,0,0,6,6,4,,,,,,,,,,,,,,,,,,,,,200001,004,2023-03-10_12h28.56.893,DMS_BEST_eyetracking_DAN_base_12-36_looped_10minWORKING,2022.2.4,None,
58,PRED,12,0.9696263315631052,0,images/picture_1.png,images/picture_1.png,0,"[-11.733433509789462, 11.733433509789464]",-11.733433509789462,11.733433509789464,images/picture_2.png,1,"[11.733433509789464, 11.733433509789462]",11.733433509789464,11.733433509789462,images/picture_3.png,2,"[11.733433509789462, -11.733433509789466]",11.733433509789462,-11.733433509789464,0,1,1,0.9696263315631052,1.9696263315631053,1.0303736684368947,3,1,1.7196263315631053,0,6,0,6,0,0,6,6,4,,,,,,,0.0034967079991474748,405.19738558300014,405.19738558300014,406.19631354100056,406.9297862909989,407.1626591659988,407.1626591659988,407.1626591659988,408.1963570000007,408.1963570000007,408.1963570000007,408.1963570000007,3.99705512500077,409.2158786250002,200001,004,2023-03-10_12h28.56.893,DMS_BEST_eyetracking_DAN_base_12-36_looped_10minWORKING,2022.2.4,None,
55,PRED,12,0.7484991784739841,0,images/picture_1.png,images/picture_1.png,0,"[11.733433509789462, -11.733433509789466]",11.733433509789462,-11.733433509789464,images/picture_2.png,1,"[-11.733433509789466, -11.733433509789462]",-11.733433509789464,-11.733433509789462,images/picture_3.png,2,"[11.733433509789464, 11.733433509789462]",11.733433509789464,11.733433509789462,0,1,1,0.7484991784739841,1.748499178473984,1.251500821526016,3,1,1.498499178473984,0,6,0,6,0,0,7,7,1,,,,,,,,,,,,,,,,,,,,,200001,004,2023-03-10_12h28.56.893,DMS_BEST_eyetracking_DAN_base_12-36_looped_10minWORKING,2022.2.4,None,
55,PRED,12,0.7484991784739841,0,images/picture_1.png,images/picture_1.png,0,"[11.733433509789462, -11.733433509789466]",11.733433509789462,-11.733433509789464,images/picture_2.png,1,"[-11.733433509789466, -11.733433509789462]",-11.733433509789464,-11.733433509789462,images/picture_3.png,2,"[11.733433509789464, 11.733433509789462]",11.733433509789464,11.733433509789462,0,1,1,0.7484991784739841,1.748499178473984,1.251500821526016,3,1,1.498499178473984,0,6,0,6,0,0,7,7,1,,,,,,,0.0035745419991144445,409.2158786250002,409.2158786250002,410.229252582998,410.7294400409992,410.9496252499994,410.9496252499994,410.9496252499994,412.1964791249993,412.2157659580007,412.2157659580007,412.2157659580007,4.0286748750004335,413.1963784159998,200001,004,2023-03-10_12h28.56.893,DMS_BEST_eyetracking_DAN_base_12-36_looped_10minWORKING,2022.2.4,None,
61,PRED,12,1.086360993351715,0,images/picture_1.png,images/picture_1.png,0,"[11.733433509789462, -11.733433509789466]",11.733433509789462,-11.733433509789464,images/picture_2.png,1,"[-11.733433509789462, 11.733433509789464]",-11.733433509789462,11.733433509789464,images/picture_3.png,2,"[-11.733433509789466, -11.733433509789462]",-11.733433509789464,-11.733433509789462,0,1,1,1.086360993351715,2.0863609933517155,0.9136390066482848,3,1,1.8363609933517155,0,6,0,6,0,0,8,8,7,,,,,,,,,,,,,,,,,,,,,200001,004,2023-03-10_12h28.56.893,DMS_BEST_eyetracking_DAN_base_12-36_looped_10minWORKING,2022.2.4,None,
61,PRED,12,1.086360993351715,0,images/picture_1.png,images/picture_1.png,0,"[11.733433509789462, -11.733433509789466]",11.733433509789462,-11.733433509789464,images/picture_2.png,1,"[-11.733433509789462, 11.733433509789464]",-11.733433509789462,11.733433509789464,images/picture_3.png,2,"[-11.733433509789466, -11.733433509789462]",-11.733433509789464,-11.733433509789462,0,1,1,1.086360993351715,2.0863609933517155,0.9136390066482848,3,1,1.8363609933517155,0,6,0,6,0,0,8,8,7,,,,,,,0.003640334001829615,413.2488880409983,413.2488880409983,414.2631513749984,415.0965135000006,415.3157950829991,415.3157950829991,415.3157950829991,416.229866624999,416.229866624999,416.229866624999,416.229866624999,4.029917417003162,417.22975104099896,200001,004,2023-03-10_12h28.56.893,DMS_BEST_eyetracking_DAN_base_12-36_looped_10minWORKING,2022.2.4,None,
,,,,,,,,,,,,,,,,,,,,,,,,,,,,,,,6,0,6,0,,,,,,,,,417.3534008329989,429.38258879099885,,,,,,,,,,,,,,,200001,004,2023-03-10_12h28.56.893,DMS_BEST_eyetracking_DAN_base_12-36_looped_10minWORKING,2022.2.4,None,
65,UNPRED,12,0.6279149952846199,0,images/picture_1.png,images/picture_1.png,0,"[11.733433509789464, 11.733433509789462]",11.733433509789464,11.733433509789462,images/picture_2.png,1,"[-11.733433509789462, 11.733433509789464]",-11.733433509789462,11.733433509789464,images/picture_3.png,2,"[-11.733433509789466, -11.733433509789462]",-11.733433509789464,-11.733433509789462,0,1,1,0.6279149952846199,1.6279149952846201,1.3720850047153799,3,1,1.3779149952846201,0,7,0,7,0,0,0,0,2,,,,,,,,,,,,,,,,,,,,,200001,004,2023-03-10_12h28.56.893,DMS_BEST_eyetracking_DAN_base_12-36_looped_10minWORKING,2022.2.4,None,
65,UNPRED,12,0.6279149952846199,0,images/picture_1.png,images/picture_1.png,0,"[11.733433509789464, 11.733433509789462]",11.733433509789464,11.733433509789462,images/picture_2.png,1,"[-11.733433509789462, 11.733433509789464]",-11.733433509789462,11.733433509789464,images/picture_3.png,2,"[-11.733433509789466, -11.733433509789462]",-11.733433509789464,-11.733433509789462,0,1,1,0.6279149952846199,1.6279149952846201,1.3720850047153799,3,1,1.3779149952846201,0,7,0,7,0,0,0,0,2,,,,,,,0.0029203329977463,429.38258879099885,429.38258879099885,430.3960275829995,430.7630064999976,430.99597549999817,430.99597549999817,430.99597549999817,432.3826127499997,432.3826127499997,432.3826127499997,432.3826127499997,4.011397124999348,433.4161894159988,200001,004,2023-03-10_12h28.56.893,DMS_BEST_eyetracking_DAN_base_12-36_looped_10minWORKING,2022.2.4,None,
66,UNPRED,12,1.0252578019989391,2,images/picture_3.png,images/picture_1.png,0,"[11.733433509789464, 11.733433509789462]",11.733433509789464,11.733433509789462,images/picture_2.png,1,"[-11.733433509789462, 11.733433509789464]",-11.733433509789462,11.733433509789464,images/picture_3.png,2,"[11.733433509789462, -11.733433509789466]",11.733433509789462,-11.733433509789464,0,1,1,1.0252578019989391,2.025257801998939,0.9747421980010612,3,1,1.7752578019989391,0,7,0,7,0,0,1,1,3,,,,,,,,,,,,,,,,,,,,,200001,004,2023-03-10_12h28.56.893,DMS_BEST_eyetracking_DAN_base_12-36_looped_10minWORKING,2022.2.4,None,
66,UNPRED,12,1.0252578019989391,2,images/picture_3.png,images/picture_1.png,0,"[11.733433509789464, 11.733433509789462]",11.733433509789464,11.733433509789462,images/picture_2.png,1,"[-11.733433509789462, 11.733433509789464]",-11.733433509789462,11.733433509789464,images/picture_3.png,2,"[11.733433509789462, -11.733433509789466]",11.733433509789462,-11.733433509789464,0,1,1,1.0252578019989391,2.025257801998939,0.9747421980010612,3,1,1.7752578019989391,0,7,0,7,0,0,1,1,3,,,,,,,0.004370541002572281,433.4161894159988,433.4161894159988,434.42986245800057,435.1963635409993,435.41651391599953,435.41651391599953,435.41651391599953,436.39653245799855,436.39653245799855,436.39653245799855,436.39653245799855,4.029954333000205,437.3965938750007,200001,004,2023-03-10_12h28.56.893,DMS_BEST_eyetracking_DAN_base_12-36_looped_10minWORKING,2022.2.4,None,
63,UNPRED,12,0.8306731142102438,2,images/picture_3.png,images/picture_1.png,0,"[11.733433509789462, -11.733433509789466]",11.733433509789462,-11.733433509789464,images/picture_2.png,1,"[-11.733433509789462, 11.733433509789464]",-11.733433509789462,11.733433509789464,images/picture_3.png,2,"[-11.733433509789466, -11.733433509789462]",-11.733433509789464,-11.733433509789462,0,1,1,0.8306731142102438,1.8306731142102441,1.1693268857897559,3,1,1.5806731142102441,0,7,0,7,0,0,2,2,0,,,,,,,,,,,,,,,,,,,,,200001,004,2023-03-10_12h28.56.893,DMS_BEST_eyetracking_DAN_base_12-36_looped_10minWORKING,2022.2.4,None,
63,UNPRED,12,0.8306731142102438,2,images/picture_3.png,images/picture_1.png,0,"[11.733433509789462, -11.733433509789466]",11.733433509789462,-11.733433509789464,images/picture_2.png,1,"[-11.733433509789462, 11.733433509789464]",-11.733433509789462,11.733433509789464,images/picture_3.png,2,"[-11.733433509789466, -11.733433509789462]",-11.733433509789464,-11.733433509789462,0,1,1,0.8306731142102438,1.8306731142102441,1.1693268857897559,3,1,1.5806731142102441,0,7,0,7,0,0,2,2,0,,,,,,,0.0033071249999920838,437.43027837499903,437.43027837499903,438.4297886659988,439.0162500000006,439.26318125000034,439.26318125000034,439.26318125000034,440.42936162499973,440.42936162499973,440.42936162499973,440.42936162499973,3.996683249999478,441.4302307500002,200001,004,2023-03-10_12h28.56.893,DMS_BEST_eyetracking_DAN_base_12-36_looped_10minWORKING,2022.2.4,None,
67,UNPRED,12,0.8652417953245737,2,images/picture_3.png,images/picture_1.png,0,"[11.733433509789464, 11.733433509789462]",11.733433509789464,11.733433509789462,images/picture_2.png,1,"[-11.733433509789466, -11.733433509789462]",-11.733433509789464,-11.733433509789462,images/picture_3.png,2,"[11.733433509789462, -11.733433509789466]",11.733433509789462,-11.733433509789464,0,1,1,0.8652417953245737,1.8652417953245737,1.1347582046754263,3,1,1.6152417953245737,0,7,0,7,0,0,3,3,4,,,,,,,,,,,,,,,,,,,,,200001,004,2023-03-10_12h28.56.893,DMS_BEST_eyetracking_DAN_base_12-36_looped_10minWORKING,2022.2.4,None,
67,UNPRED,12,0.8652417953245737,2,images/picture_3.png,images/picture_1.png,0,"[11.733433509789464, 11.733433509789462]",11.733433509789464,11.733433509789462,images/picture_2.png,1,"[-11.733433509789466, -11.733433509789462]",-11.733433509789464,-11.733433509789462,images/picture_3.png,2,"[11.733433509789462, -11.733433509789466]",11.733433509789462,-11.733433509789464,0,1,1,0.8652417953245737,1.8652417953245737,1.1347582046754263,3,1,1.6152417953245737,0,7,0,7,0,0,3,3,4,,,,,,,0.0031159999998635612,441.4302307500002,441.4302307500002,442.4298412909993,443.0494111250009,443.29628529099864,443.29628529099864,443.29628529099864,444.4298777080003,444.4298777080003,444.4298777080003,444.4298777080003,3.996719792001386,445.43097454099916,200001,004,2023-03-10_12h28.56.893,DMS_BEST_eyetracking_DAN_base_12-36_looped_10minWORKING,2022.2.4,None,
