trial_count,blockType,blockNum,delay_time,stimImage_i,stimImage,responseImage1,responseImage1_i,responseImage1_pos,responseImage1_X,responseImage1_Y,responseImage2,responseImage2_i,responseImage2_pos,responseImage2_X,responseImage2_Y,responseImage3,responseImage3_i,responseImage3_pos,responseImage3_X,responseImage3_Y,cue_onset,cue_dur,delay_onset,delay_dur,resp_onset,resp_dur,rest_onset,rest_dur,circle_dur,circle_onset,total_dur,cross_onset,cross_dur,delay_resp_period,blocks.thisRepN,blocks.thisTrialN,blocks.thisN,blocks.thisIndex,trials.thisRepN,trials.thisTrialN,trials.thisN,trials.thisIndex,key_resp.started,text.started,key_resp.keys,key_resp.rt,text_2.started,text_2.stopped,sample.started,Delay.started,sample.stopped,Delay.stopped,Response_1.started,Response_2.started,Response_3.started,Response_1.stopped,Response_2.stopped,Response_3.stopped,polygon.started,polygon.stopped,participant,session,date,expName,psychopyVersion,frameRate,
,,,,,,,,,,,,,,,,,,,,,,,,,,,,,,,,,,,,,,,,,,,87.08648829199956,87.08648829199956,t,72.2934911659977,,,,,,,,,,,,,,,200008,003,2023-04-14_10h56.03.730,DMS_et_12-36,2022.2.4,None,
4,PRED,12,0.8284272091603617,1,images/picture_2.png,images/picture_1.png,0,"[11.733433509789462, -11.733433509789466]",11.733433509789462,-11.733433509789464,images/picture_2.png,1,"[11.733433509789464, 11.733433509789462]",11.733433509789464,11.733433509789462,images/picture_3.png,2,"[-11.733433509789462, 11.733433509789464]",-11.733433509789462,11.733433509789464,0,1,1,0.8284272091603617,1.8284272091603615,1.1715727908396385,3.0,1,1.5784272091603615,0,4.0,3.0,1,2,0,0,0,0,0,0,0,4,,,,,159.8985465419828,171.92683920898708,171.92683920898708,171.92683920898708,172.9234648749989,173.5097496669914,173.7432866669842,173.7432866669842,173.7432866669842,174.92353849997744,174.92353849997744,174.92353849997744,174.92353849997744,175.92296829199768,200008,003,2023-04-14_10h56.03.730,DMS_et_12-36,2022.2.4,None,
5,PRED,12,0.8284272091603617,1,images/picture_2.png,images/picture_1.png,0,"[-11.733433509789466, -11.733433509789462]",-11.733433509789464,-11.733433509789462,images/picture_2.png,1,"[11.733433509789462, -11.733433509789466]",11.733433509789462,-11.733433509789464,images/picture_3.png,2,"[-11.733433509789462, 11.733433509789464]",-11.733433509789462,11.733433509789464,0,1,1,0.8284272091603617,1.8284272091603615,1.1715727908396385,3.0,1,1.5784272091603615,0,4.0,3.0,1,2,0,0,0,0,0,1,1,5,,,,,,,175.92296829199768,175.92296829199768,176.92315854199114,177.50874870899133,177.74201949997223,177.74201949997223,177.74201949997223,178.92370799998753,178.92370799998753,178.92370799998753,178.92370799998753,179.92335562498192,200008,003,2023-04-14_10h56.03.730,DMS_et_12-36,2022.2.4,None,
1,PRED,12,0.8284272091603617,1,images/picture_2.png,images/picture_1.png,0,"[11.733433509789464, 11.733433509789462]",11.733433509789464,11.733433509789462,images/picture_2.png,1,"[-11.733433509789466, -11.733433509789462]",-11.733433509789464,-11.733433509789462,images/picture_3.png,2,"[-11.733433509789462, 11.733433509789464]",-11.733433509789462,11.733433509789464,0,1,1,0.8284272091603617,1.8284272091603615,1.1715727908396385,3.0,1,1.5784272091603615,0,4.0,3.0,1,2,0,0,0,0,0,2,2,1,,,,,,,179.92335562498192,179.92335562498192,180.92360154198832,181.50979566699243,181.74311533398577,181.74311533398577,181.74311533398577,182.9234549169778,182.9234549169778,182.9234549169778,182.9234549169778,183.92340724999667,200008,003,2023-04-14_10h56.03.730,DMS_et_12-36,2022.2.4,None,
8,PRED,12,0.8284272091603617,1,images/picture_2.png,images/picture_1.png,0,"[-11.733433509789462, 11.733433509789464]",-11.733433509789462,11.733433509789464,images/picture_2.png,1,"[11.733433509789462, -11.733433509789466]",11.733433509789462,-11.733433509789464,images/picture_3.png,2,"[11.733433509789464, 11.733433509789462]",11.733433509789464,11.733433509789462,0,1,1,0.8284272091603617,1.8284272091603615,1.1715727908396385,3.0,1,1.5784272091603615,0,4.0,3.0,1,2,0,0,0,0,0,3,3,8,,,,,,,183.92340724999667,183.92340724999667,184.9236055839865,185.50996891697287,185.7436448749795,185.7436448749795,185.7436448749795,186.92365483398316,186.92365483398316,186.92365483398316,186.92365483398316,187.9234162499779,200008,003,2023-04-14_10h56.03.730,DMS_et_12-36,2022.2.4,None,
7,PRED,12,0.8284272091603617,1,images/picture_2.png,images/picture_1.png,0,"[-11.733433509789462, 11.733433509789464]",-11.733433509789462,11.733433509789464,images/picture_2.png,1,"[-11.733433509789466, -11.733433509789462]",-11.733433509789464,-11.733433509789462,images/picture_3.png,2,"[11.733433509789462, -11.733433509789466]",11.733433509789462,-11.733433509789464,0,1,1,0.8284272091603617,1.8284272091603615,1.1715727908396385,3.0,1,1.5784272091603615,0,4.0,3.0,1,2,0,0,0,0,0,4,4,7,,,,,,,187.9234162499779,187.9234162499779,188.9234270839952,189.50951683399035,189.7430958339828,189.7430958339828,189.7430958339828,190.92376454197802,190.92376454197802,190.92376454197802,190.92376454197802,191.92315354198217,200008,003,2023-04-14_10h56.03.730,DMS_et_12-36,2022.2.4,None,
3,PRED,12,0.8284272091603617,1,images/picture_2.png,images/picture_1.png,0,"[-11.733433509789462, 11.733433509789464]",-11.733433509789462,11.733433509789464,images/picture_2.png,1,"[11.733433509789462, -11.733433509789466]",11.733433509789462,-11.733433509789464,images/picture_3.png,2,"[-11.733433509789466, -11.733433509789462]",-11.733433509789464,-11.733433509789462,0,1,1,0.8284272091603617,1.8284272091603615,1.1715727908396385,3.0,1,1.5784272091603615,0,4.0,3.0,1,2,0,0,0,0,0,5,5,3,,,,,,,191.92315354198217,191.92315354198217,192.92355983398738,193.5094852919865,193.7433108339901,193.7433108339901,193.7433108339901,194.9236286249943,194.9236286249943,194.9236286249943,194.9236286249943,195.92279908398632,200008,003,2023-04-14_10h56.03.730,DMS_et_12-36,2022.2.4,None,
6,PRED,12,0.8284272091603617,1,images/picture_2.png,images/picture_1.png,0,"[-11.733433509789462, 11.733433509789464]",-11.733433509789462,11.733433509789464,images/picture_2.png,1,"[11.733433509789464, 11.733433509789462]",11.733433509789464,11.733433509789462,images/picture_3.png,2,"[-11.733433509789466, -11.733433509789462]",-11.733433509789464,-11.733433509789462,0,1,1,0.8284272091603617,1.8284272091603615,1.1715727908396385,3.0,1,1.5784272091603615,0,4.0,3.0,1,2,0,0,0,0,0,6,6,6,,,,,,,195.92279908398632,195.92279908398632,196.92360720899887,197.50899399997434,197.7429025839956,197.7429025839956,197.7429025839956,198.92366212498746,198.92366212498746,198.92366212498746,198.92366212498746,199.92301637498895,200008,003,2023-04-14_10h56.03.730,DMS_et_12-36,2022.2.4,None,
2,PRED,12,0.8284272091603617,1,images/picture_2.png,images/picture_1.png,0,"[11.733433509789462, -11.733433509789466]",11.733433509789462,-11.733433509789464,images/picture_2.png,1,"[11.733433509789464, 11.733433509789462]",11.733433509789464,11.733433509789462,images/picture_3.png,2,"[-11.733433509789462, 11.733433509789464]",-11.733433509789462,11.733433509789464,0,1,1,0.8284272091603617,1.8284272091603615,1.1715727908396385,3.0,1,1.5784272091603615,0,4.0,3.0,1,2,0,0,0,0,0,7,7,2,,,,,,,199.92301637498895,199.92301637498895,200.92378574999748,201.50933395899483,201.74301254199236,201.74301254199236,201.74301254199236,202.92358608398354,202.92358608398354,202.92358608398354,202.92358608398354,203.92307808398618,200008,003,2023-04-14_10h56.03.730,DMS_et_12-36,2022.2.4,None,
0,PRED,12,0.8284272091603617,1,images/picture_2.png,images/picture_1.png,0,"[11.733433509789464, 11.733433509789462]",11.733433509789464,11.733433509789462,images/picture_2.png,1,"[-11.733433509789462, 11.733433509789464]",-11.733433509789462,11.733433509789464,images/picture_3.png,2,"[11.733433509789462, -11.733433509789466]",11.733433509789462,-11.733433509789464,0,1,1,0.8284272091603617,1.8284272091603615,1.1715727908396385,3.0,1,1.5784272091603615,0,4.0,3.0,1,2,0,0,0,0,0,8,8,0,,,,,,,203.92307808398618,203.92307808398618,204.92362224997487,205.5094949999766,205.74327012497815,205.74327012497815,205.74327012497815,206.92360312497476,206.92360312497476,206.92360312497476,206.92360312497476,207.94221258399193,200008,003,2023-04-14_10h56.03.730,DMS_et_12-36,2022.2.4,None,
,,,,,,,,,,,,,,,,,,,,,,,,,,,,,,,,,,,0,0,0,0,,,,,,,,,207.94221258399193,219.9756877089967,,,,,,,,,,,,,200008,003,2023-04-14_10h56.03.730,DMS_et_12-36,2022.2.4,None,
14,UNPRED,12,0.8284272091603617,1,images/picture_2.png,images/picture_1.png,0,"[11.733433509789462, -11.733433509789466]",11.733433509789462,-11.733433509789464,images/picture_2.png,1,"[-11.733433509789462, 11.733433509789464]",-11.733433509789462,11.733433509789464,images/picture_3.png,2,"[-11.733433509789466, -11.733433509789462]",-11.733433509789464,-11.733433509789462,0,1,1,0.8284272091603617,1.8284272091603615,1.1715727908396385,3.0,1,1.5784272091603615,0,4.0,3.0,1,2,1,0,1,0,0,0,0,5,,,,,,,219.9756877089967,219.9756877089967,220.9902703339758,221.55695854197256,221.79036558399093,221.79036558399093,221.79036558399093,222.98026091698557,222.98026091698557,222.98026091698557,222.98026091698557,223.98973141697934,200008,003,2023-04-14_10h56.03.730,DMS_et_12-36,2022.2.4,None,
9,UNPRED,12,0.8284272091603617,1,images/picture_2.png,images/picture_1.png,0,"[-11.733433509789466, -11.733433509789462]",-11.733433509789464,-11.733433509789462,images/picture_2.png,1,"[11.733433509789462, -11.733433509789466]",11.733433509789462,-11.733433509789464,images/picture_3.png,2,"[11.733433509789464, 11.733433509789462]",11.733433509789464,11.733433509789462,0,1,1,0.8284272091603617,1.8284272091603615,1.1715727908396385,3.0,1,1.5784272091603615,0,4.0,3.0,1,2,1,0,1,0,0,1,1,0,,,,,,,223.98973141697934,223.98973141697934,224.9901504169975,225.57703662497806,225.80973362497753,225.80973362497753,225.80973362497753,226.9905910839734,226.9905910839734,226.9905910839734,226.9905910839734,227.98984929197468,200008,003,2023-04-14_10h56.03.730,DMS_et_12-36,2022.2.4,None,
11,UNPRED,12,0.8284272091603617,1,images/picture_2.png,images/picture_1.png,0,"[-11.733433509789466, -11.733433509789462]",-11.733433509789464,-11.733433509789462,images/picture_2.png,1,"[-11.733433509789462, 11.733433509789464]",-11.733433509789462,11.733433509789464,images/picture_3.png,2,"[11.733433509789464, 11.733433509789462]",11.733433509789464,11.733433509789462,0,1,1,0.8284272091603617,1.8284272091603615,1.1715727908396385,3.0,1,1.5784272091603615,0,4.0,3.0,1,2,1,0,1,0,0,2,2,2,,,,,,,227.98984929197468,227.98984929197468,228.99019845898147,229.57635999997729,229.8095059589832,229.8095059589832,229.8095059589832,230.99047841699212,230.99047841699212,230.99047841699212,230.99047841699212,232.00970479199896,200008,003,2023-04-14_10h56.03.730,DMS_et_12-36,2022.2.4,None,
13,UNPRED,12,0.8284272091603617,2,images/picture_3.png,images/picture_1.png,0,"[11.733433509789464, 11.733433509789462]",11.733433509789464,11.733433509789462,images/picture_2.png,1,"[-11.733433509789462, 11.733433509789464]",-11.733433509789462,11.733433509789464,images/picture_3.png,2,"[-11.733433509789466, -11.733433509789462]",-11.733433509789464,-11.733433509789462,0,1,1,0.8284272091603617,1.8284272091603615,1.1715727908396385,3.0,1,1.5784272091603615,0,4.0,3.0,1,2,1,0,1,0,0,3,3,4,,,,,,,232.00970479199896,232.00970479199896,233.023626374983,233.59036395899602,233.81033533398295,233.81033533398295,233.81033533398295,234.99045937499614,234.99045937499614,234.99045937499614,234.99045937499614,235.99057570897276,200008,003,2023-04-14_10h56.03.730,DMS_et_12-36,2022.2.4,None,
17,UNPRED,12,0.8284272091603617,1,images/picture_2.png,images/picture_1.png,0,"[11.733433509789464, 11.733433509789462]",11.733433509789464,11.733433509789462,images/picture_2.png,1,"[-11.733433509789466, -11.733433509789462]",-11.733433509789464,-11.733433509789462,images/picture_3.png,2,"[-11.733433509789462, 11.733433509789464]",-11.733433509789462,11.733433509789464,0,1,1,0.8284272091603617,1.8284272091603615,1.1715727908396385,3.0,1,1.5784272091603615,0,4.0,3.0,1,2,1,0,1,0,0,4,4,8,,,,,,,235.99057570897276,235.99057570897276,236.99038391697104,237.5765014589997,237.80980320897652,237.80980320897652,237.80980320897652,238.9900403339998,238.9900403339998,238.9900403339998,238.9900403339998,240.00935895898147,200008,003,2023-04-14_10h56.03.730,DMS_et_12-36,2022.2.4,None,
15,UNPRED,12,0.8284272091603617,2,images/picture_3.png,images/picture_1.png,0,"[11.733433509789462, -11.733433509789466]",11.733433509789462,-11.733433509789464,images/picture_2.png,1,"[-11.733433509789466, -11.733433509789462]",-11.733433509789464,-11.733433509789462,images/picture_3.png,2,"[-11.733433509789462, 11.733433509789464]",-11.733433509789462,11.733433509789464,0,1,1,0.8284272091603617,1.8284272091603615,1.1715727908396385,3.0,1,1.5784272091603615,0,4.0,3.0,1,2,1,0,1,0,0,5,5,6,,,,,,,240.00935895898147,240.00935895898147,241.02365379198454,241.59032754198415,241.8099388339906,241.8099388339906,241.8099388339906,242.99042162499973,242.99042162499973,242.99042162499973,242.99042162499973,243.99039770898526,200008,003,2023-04-14_10h56.03.730,DMS_et_12-36,2022.2.4,None,
12,UNPRED,12,0.8284272091603617,1,images/picture_2.png,images/picture_1.png,0,"[-11.733433509789466, -11.733433509789462]",-11.733433509789464,-11.733433509789462,images/picture_2.png,1,"[11.733433509789464, 11.733433509789462]",11.733433509789464,11.733433509789462,images/picture_3.png,2,"[11.733433509789462, -11.733433509789466]",11.733433509789462,-11.733433509789464,0,1,1,0.8284272091603617,1.8284272091603615,1.1715727908396385,3.0,1,1.5784272091603615,0,4.0,3.0,1,2,1,0,1,0,0,6,6,3,,,,,,,243.99039770898526,243.99039770898526,244.9899828749767,245.57659674997558,245.810331124987,245.810331124987,245.810331124987,246.99040649997187,246.99040649997187,246.99040649997187,246.99040649997187,247.98985791698215,200008,003,2023-04-14_10h56.03.730,DMS_et_12-36,2022.2.4,None,
16,UNPRED,12,0.8284272091603617,1,images/picture_2.png,images/picture_1.png,0,"[-11.733433509789462, 11.733433509789464]",-11.733433509789462,11.733433509789464,images/picture_2.png,1,"[11.733433509789464, 11.733433509789462]",11.733433509789464,11.733433509789462,images/picture_3.png,2,"[11.733433509789462, -11.733433509789466]",11.733433509789462,-11.733433509789464,0,1,1,0.8284272091603617,1.8284272091603615,1.1715727908396385,3.0,1,1.5784272091603615,0,4.0,3.0,1,2,1,0,1,0,0,7,7,7,,,,,,,247.98985791698215,247.98985791698215,248.9901211669785,249.57567524997285,249.8091344589775,249.8091344589775,249.8091344589775,250.9903354999842,250.9903354999842,250.9903354999842,250.9903354999842,251.98983929198585,200008,003,2023-04-14_10h56.03.730,DMS_et_12-36,2022.2.4,None,
10,UNPRED,12,0.8284272091603617,0,images/picture_1.png,images/picture_1.png,0,"[11.733433509789464, 11.733433509789462]",11.733433509789464,11.733433509789462,images/picture_2.png,1,"[11.733433509789462, -11.733433509789466]",11.733433509789462,-11.733433509789464,images/picture_3.png,2,"[-11.733433509789462, 11.733433509789464]",-11.733433509789462,11.733433509789464,0,1,1,0.8284272091603617,1.8284272091603615,1.1715727908396385,3.0,1,1.5784272091603615,0,4.0,3.0,1,2,1,0,1,0,0,8,8,1,,,,,,,251.98983929198585,251.98983929198585,252.9903949169966,253.57678258398664,253.80981145898113,253.80981145898113,253.80981145898113,254.99039945899858,254.99039945899858,254.99039945899858,254.99039945899858,256.0221976249886,200008,003,2023-04-14_10h56.03.730,DMS_et_12-36,2022.2.4,None,
,,,,,,,,,,,,,,,,,,,,,,,,,,,,,,,,,,,1,0,1,0,,,,,,,,,256.0221976249886,268.0499309999868,,,,,,,,,,,,,200008,003,2023-04-14_10h56.03.730,DMS_et_12-36,2022.2.4,None,
21,PRED,12,0.8284272091603617,2,images/picture_3.png,images/picture_1.png,0,"[-11.733433509789462, 11.733433509789464]",-11.733433509789462,11.733433509789464,images/picture_2.png,1,"[-11.733433509789466, -11.733433509789462]",-11.733433509789464,-11.733433509789462,images/picture_3.png,2,"[11.733433509789462, -11.733433509789466]",11.733433509789462,-11.733433509789464,0,1,1,0.8284272091603617,1.8284272091603615,1.1715727908396385,3.0,1,1.5784272091603615,0,4.0,3.0,1,2,2,0,2,0,0,0,0,3,,,,,,,268.0499309999868,268.0499309999868,269.0570170839783,269.64226579197566,269.85674504199415,269.85674504199415,269.85674504199415,271.04370304199983,271.04370304199983,271.04370304199983,271.04370304199983,272.0760104999936,200008,003,2023-04-14_10h56.03.730,DMS_et_12-36,2022.2.4,None,
24,PRED,12,0.8284272091603617,2,images/picture_3.png,images/picture_1.png,0,"[11.733433509789462, -11.733433509789466]",11.733433509789462,-11.733433509789464,images/picture_2.png,1,"[-11.733433509789466, -11.733433509789462]",-11.733433509789464,-11.733433509789462,images/picture_3.png,2,"[-11.733433509789462, 11.733433509789464]",-11.733433509789462,11.733433509789464,0,1,1,0.8284272091603617,1.8284272091603615,1.1715727908396385,3.0,1,1.5784272091603615,0,4.0,3.0,1,2,2,0,2,0,0,1,1,6,,,,,,,272.0760104999936,272.0760104999936,273.0903757089982,273.65709458399215,273.8764856249909,273.8764856249909,273.8764856249909,275.05710316699697,275.05710316699697,275.05710316699697,275.05710316699697,276.07617658399977,200008,003,2023-04-14_10h56.03.730,DMS_et_12-36,2022.2.4,None,
26,PRED,12,0.8284272091603617,2,images/picture_3.png,images/picture_1.png,0,"[11.733433509789462, -11.733433509789466]",11.733433509789462,-11.733433509789464,images/picture_2.png,1,"[-11.733433509789466, -11.733433509789462]",-11.733433509789464,-11.733433509789462,images/picture_3.png,2,"[-11.733433509789462, 11.733433509789464]",-11.733433509789462,11.733433509789464,0,1,1,0.8284272091603617,1.8284272091603615,1.1715727908396385,3.0,1,1.5784272091603615,0,4.0,3.0,1,2,2,0,2,0,0,2,2,8,,,,,,,276.07617658399977,276.07617658399977,277.09039720898727,277.6571009999898,277.8766631249746,277.8766631249746,277.8766631249746,279.0571102499962,279.0571102499962,279.0571102499962,279.0571102499962,280.05759191699326,200008,003,2023-04-14_10h56.03.730,DMS_et_12-36,2022.2.4,None,
19,PRED,12,0.8284272091603617,2,images/picture_3.png,images/picture_1.png,0,"[11.733433509789462, -11.733433509789466]",11.733433509789462,-11.733433509789464,images/picture_2.png,1,"[-11.733433509789462, 11.733433509789464]",-11.733433509789462,11.733433509789464,images/picture_3.png,2,"[-11.733433509789466, -11.733433509789462]",-11.733433509789464,-11.733433509789462,0,1,1,0.8284272091603617,1.8284272091603615,1.1715727908396385,3.0,1,1.5784272091603615,0,4.0,3.0,1,2,2,0,2,0,0,3,3,1,,,,,,,280.05759191699326,280.05759191699326,281.057241374976,281.64308220898965,281.8764964589791,281.8764964589791,281.8764964589791,283.0571157919767,283.0571157919767,283.0571157919767,283.0571157919767,284.0760170419817,200008,003,2023-04-14_10h56.03.730,DMS_et_12-36,2022.2.4,None,
23,PRED,12,0.8284272091603617,2,images/picture_3.png,images/picture_1.png,0,"[11.733433509789462, -11.733433509789466]",11.733433509789462,-11.733433509789464,images/picture_2.png,1,"[11.733433509789464, 11.733433509789462]",11.733433509789464,11.733433509789462,images/picture_3.png,2,"[-11.733433509789462, 11.733433509789464]",-11.733433509789462,11.733433509789464,0,1,1,0.8284272091603617,1.8284272091603615,1.1715727908396385,3.0,1,1.5784272091603615,0,4.0,3.0,1,2,2,0,2,0,0,4,4,5,,,,,,,284.0760170419817,284.0760170419817,285.0903714589949,285.65711416699924,285.8764856669877,285.8764856669877,285.8764856669877,287.0571705419861,287.0571705419861,287.0571705419861,287.0571705419861,288.07591995899566,200008,003,2023-04-14_10h56.03.730,DMS_et_12-36,2022.2.4,None,
20,PRED,12,0.8284272091603617,2,images/picture_3.png,images/picture_1.png,0,"[11.733433509789462, -11.733433509789466]",11.733433509789462,-11.733433509789464,images/picture_2.png,1,"[11.733433509789464, 11.733433509789462]",11.733433509789464,11.733433509789462,images/picture_3.png,2,"[-11.733433509789462, 11.733433509789464]",-11.733433509789462,11.733433509789464,0,1,1,0.8284272091603617,1.8284272091603615,1.1715727908396385,3.0,1,1.5784272091603615,0,4.0,3.0,1,2,2,0,2,0,0,5,5,2,,,,,,,288.07591995899566,288.07591995899566,289.09040345897665,289.6571367919969,289.8760640839755,289.8760640839755,289.8760640839755,291.05694033397594,291.05694033397594,291.05694033397594,291.05694033397594,292.0757032499823,200008,003,2023-04-14_10h56.03.730,DMS_et_12-36,2022.2.4,None,
22,PRED,12,0.8284272091603617,2,images/picture_3.png,images/picture_1.png,0,"[11.733433509789464, 11.733433509789462]",11.733433509789464,11.733433509789462,images/picture_2.png,1,"[-11.733433509789462, 11.733433509789464]",-11.733433509789462,11.733433509789464,images/picture_3.png,2,"[-11.733433509789466, -11.733433509789462]",-11.733433509789464,-11.733433509789462,0,1,1,0.8284272091603617,1.8284272091603615,1.1715727908396385,3.0,1,1.5784272091603615,0,4.0,3.0,1,2,2,0,2,0,0,6,6,4,,,,,,,292.0757032499823,292.0757032499823,293.09020583398524,293.6568751669838,293.87632245899295,293.87632245899295,293.87632245899295,295.05690383398905,295.05690383398905,295.05690383398905,295.05690383398905,296.07570474999375,200008,003,2023-04-14_10h56.03.730,DMS_et_12-36,2022.2.4,None,
25,PRED,12,0.8284272091603617,2,images/picture_3.png,images/picture_1.png,0,"[-11.733433509789466, -11.733433509789462]",-11.733433509789464,-11.733433509789462,images/picture_2.png,1,"[11.733433509789462, -11.733433509789466]",11.733433509789462,-11.733433509789464,images/picture_3.png,2,"[11.733433509789464, 11.733433509789462]",11.733433509789464,11.733433509789462,0,1,1,0.8284272091603617,1.8284272091603615,1.1715727908396385,3.0,1,1.5784272091603615,0,4.0,3.0,1,2,2,0,2,0,0,7,7,7,,,,,,,296.07570474999375,296.07570474999375,297.09033504198305,297.6568676669849,297.8764408339921,297.8764408339921,297.8764408339921,299.0568760839815,299.0568760839815,299.0568760839815,299.0568760839815,300.07558429197525,200008,003,2023-04-14_10h56.03.730,DMS_et_12-36,2022.2.4,None,
18,PRED,12,0.8284272091603617,2,images/picture_3.png,images/picture_1.png,0,"[-11.733433509789466, -11.733433509789462]",-11.733433509789464,-11.733433509789462,images/picture_2.png,1,"[-11.733433509789462, 11.733433509789464]",-11.733433509789462,11.733433509789464,images/picture_3.png,2,"[11.733433509789462, -11.733433509789466]",11.733433509789462,-11.733433509789464,0,1,1,0.8284272091603617,1.8284272091603615,1.1715727908396385,3.0,1,1.5784272091603615,0,4.0,3.0,1,2,2,0,2,0,0,8,8,0,,,,,,,300.07558429197525,300.07558429197525,301.0899484169786,301.65685541697894,301.8767131669738,301.8767131669738,301.8767131669738,303.05694837498595,303.05694837498595,303.05694837498595,303.05694837498595,304.09553712498746,200008,003,2023-04-14_10h56.03.730,DMS_et_12-36,2022.2.4,None,
,,,,,,,,,,,,,,,,,,,,,,,,,,,,,,,,,,,2,0,2,0,,,,,,,,,304.09553712498746,316.13187616699724,,,,,,,,,,,,,200008,003,2023-04-14_10h56.03.730,DMS_et_12-36,2022.2.4,None,
30,UNPRED,12,0.8284272091603617,2,images/picture_3.png,images/picture_1.png,0,"[-11.733433509789462, 11.733433509789464]",-11.733433509789462,11.733433509789464,images/picture_2.png,1,"[11.733433509789464, 11.733433509789462]",11.733433509789464,11.733433509789462,images/picture_3.png,2,"[-11.733433509789466, -11.733433509789462]",-11.733433509789464,-11.733433509789462,0,1,1,0.8284272091603617,1.8284272091603615,1.1715727908396385,3.0,1,1.5784272091603615,0,4.0,3.0,1,2,3,0,3,0,0,0,0,3,,,,,,,316.13187616699724,316.13187616699724,317.14265341698774,317.7235773339926,317.9569069589779,317.9569069589779,317.9569069589779,319.1429849169799,319.1429849169799,319.1429849169799,319.12358258399763,320.12377399997786,200008,003,2023-04-14_10h56.03.730,DMS_et_12-36,2022.2.4,None,
28,UNPRED,12,0.8284272091603617,1,images/picture_2.png,images/picture_1.png,0,"[11.733433509789462, -11.733433509789466]",11.733433509789462,-11.733433509789464,images/picture_2.png,1,"[-11.733433509789466, -11.733433509789462]",-11.733433509789464,-11.733433509789462,images/picture_3.png,2,"[11.733433509789464, 11.733433509789462]",11.733433509789464,11.733433509789462,0,1,1,0.8284272091603617,1.8284272091603615,1.1715727908396385,3.0,1,1.5784272091603615,0,4.0,3.0,1,2,3,0,3,0,0,1,1,1,,,,,,,320.12377399997786,320.12377399997786,321.1232233339979,321.70871604199056,321.9437871669943,321.9437871669943,321.9437871669943,323.1235907919763,323.1235907919763,323.1235907919763,323.1235907919763,324.14313345897244,200008,003,2023-04-14_10h56.03.730,DMS_et_12-36,2022.2.4,None,
34,UNPRED,12,0.8284272091603617,2,images/picture_3.png,images/picture_1.png,0,"[11.733433509789464, 11.733433509789462]",11.733433509789464,11.733433509789462,images/picture_2.png,1,"[-11.733433509789462, 11.733433509789464]",-11.733433509789462,11.733433509789464,images/picture_3.png,2,"[-11.733433509789466, -11.733433509789462]",-11.733433509789464,-11.733433509789462,0,1,1,0.8284272091603617,1.8284272091603615,1.1715727908396385,3.0,1,1.5784272091603615,0,4.0,3.0,1,2,3,0,3,0,0,2,2,7,,,,,,,324.14313345897244,324.14313345897244,325.1568720419891,325.72358383398387,325.94300474997726,325.94300474997726,325.94300474997726,327.12360012499266,327.12360012499266,327.12360012499266,327.12360012499266,328.12334349998855,200008,003,2023-04-14_10h56.03.730,DMS_et_12-36,2022.2.4,None,
35,UNPRED,12,0.8284272091603617,0,images/picture_1.png,images/picture_1.png,0,"[-11.733433509789466, -11.733433509789462]",-11.733433509789464,-11.733433509789462,images/picture_2.png,1,"[-11.733433509789462, 11.733433509789464]",-11.733433509789462,11.733433509789464,images/picture_3.png,2,"[11.733433509789464, 11.733433509789462]",11.733433509789464,11.733433509789462,0,1,1,0.8284272091603617,1.8284272091603615,1.1715727908396385,3.0,1,1.5784272091603615,0,4.0,3.0,1,2,3,0,3,0,0,3,3,8,,,,,,,328.12334349998855,328.12334349998855,329.1236406249809,329.70946287497645,329.9433047089842,329.9433047089842,329.9433047089842,331.12328854197403,331.12328854197403,331.12328854197403,331.12328854197403,332.1422756249958,200008,003,2023-04-14_10h56.03.730,DMS_et_12-36,2022.2.4,None,
32,UNPRED,12,0.8284272091603617,2,images/picture_3.png,images/picture_1.png,0,"[11.733433509789464, 11.733433509789462]",11.733433509789464,11.733433509789462,images/picture_2.png,1,"[-11.733433509789462, 11.733433509789464]",-11.733433509789462,11.733433509789464,images/picture_3.png,2,"[11.733433509789462, -11.733433509789466]",11.733433509789462,-11.733433509789464,0,1,1,0.8284272091603617,1.8284272091603615,1.1715727908396385,3.0,1,1.5784272091603615,0,4.0,3.0,1,2,3,0,3,0,0,4,4,5,,,,,,,332.1422756249958,332.1422756249958,333.15692145898356,333.7236098749854,333.9430662919767,333.9430662919767,333.9430662919767,335.1237005419971,335.1237005419971,335.1237005419971,335.1237005419971,336.14310570899397,200008,003,2023-04-14_10h56.03.730,DMS_et_12-36,2022.2.4,None,
27,UNPRED,12,0.8284272091603617,2,images/picture_3.png,images/picture_1.png,0,"[11.733433509789464, 11.733433509789462]",11.733433509789464,11.733433509789462,images/picture_2.png,1,"[-11.733433509789466, -11.733433509789462]",-11.733433509789464,-11.733433509789462,images/picture_3.png,2,"[-11.733433509789462, 11.733433509789464]",-11.733433509789462,11.733433509789464,0,1,1,0.8284272091603617,1.8284272091603615,1.1715727908396385,3.0,1,1.5784272091603615,0,4.0,3.0,1,2,3,0,3,0,0,5,5,0,,,,,,,336.14310570899397,336.14310570899397,337.1570135419897,337.72366124999826,337.94298945899936,337.94298945899936,337.94298945899936,339.1235528749821,339.1235528749821,339.1235528749821,339.1235528749821,340.1423431249859,200008,003,2023-04-14_10h56.03.730,DMS_et_12-36,2022.2.4,None,
31,UNPRED,12,0.8284272091603617,2,images/picture_3.png,images/picture_1.png,0,"[-11.733433509789462, 11.733433509789464]",-11.733433509789462,11.733433509789464,images/picture_2.png,1,"[11.733433509789464, 11.733433509789462]",11.733433509789464,11.733433509789462,images/picture_3.png,2,"[11.733433509789462, -11.733433509789466]",11.733433509789462,-11.733433509789464,0,1,1,0.8284272091603617,1.8284272091603615,1.1715727908396385,3.0,1,1.5784272091603615,0,4.0,3.0,1,2,3,0,3,0,0,6,6,4,,,,,,,340.1423431249859,340.1423431249859,341.15656816697447,341.7232569169719,341.9423716669844,341.9423716669844,341.9423716669844,343.12362349999603,343.12362349999603,343.12362349999603,343.12362349999603,344.122891624982,200008,003,2023-04-14_10h56.03.730,DMS_et_12-36,2022.2.4,None,
29,UNPRED,12,0.8284272091603617,1,images/picture_2.png,images/picture_1.png,0,"[-11.733433509789466, -11.733433509789462]",-11.733433509789464,-11.733433509789462,images/picture_2.png,1,"[-11.733433509789462, 11.733433509789464]",-11.733433509789462,11.733433509789464,images/picture_3.png,2,"[11.733433509789464, 11.733433509789462]",11.733433509789464,11.733433509789462,0,1,1,0.8284272091603617,1.8284272091603615,1.1715727908396385,3.0,1,1.5784272091603615,0,4.0,3.0,1,2,3,0,3,0,0,7,7,2,,,,,,,344.122891624982,344.122891624982,345.12363004198414,345.70968870897195,345.9429885419959,345.9429885419959,345.9429885419959,347.12362208397826,347.12362208397826,347.12362208397826,347.12362208397826,348.1424299169739,200008,003,2023-04-14_10h56.03.730,DMS_et_12-36,2022.2.4,None,
33,UNPRED,12,0.8284272091603617,2,images/picture_3.png,images/picture_1.png,0,"[11.733433509789462, -11.733433509789466]",11.733433509789462,-11.733433509789464,images/picture_2.png,1,"[-11.733433509789466, -11.733433509789462]",-11.733433509789464,-11.733433509789462,images/picture_3.png,2,"[-11.733433509789462, 11.733433509789464]",-11.733433509789462,11.733433509789464,0,1,1,0.8284272091603617,1.8284272091603615,1.1715727908396385,3.0,1,1.5784272091603615,0,4.0,3.0,1,2,3,0,3,0,0,8,8,6,,,,,,,348.1424299169739,348.1424299169739,349.15689441698487,349.7237007499789,349.94298341698595,349.94298341698595,349.94298341698595,351.12360679198173,351.12360679198173,351.12360679198173,351.12360679198173,352.1569184999971,200008,003,2023-04-14_10h56.03.730,DMS_et_12-36,2022.2.4,None,
,,,,,,,,,,,,,,,,,,,,,,,,,,,,,,,,,,,3,0,3,0,,,,,,,,,352.1569184999971,364.1839891669806,,,,,,,,,,,,,200008,003,2023-04-14_10h56.03.730,DMS_et_12-36,2022.2.4,None,
37,PRED,12,0.8284272091603617,2,images/picture_3.png,images/picture_1.png,0,"[11.733433509789464, 11.733433509789462]",11.733433509789464,11.733433509789462,images/picture_2.png,1,"[11.733433509789462, -11.733433509789466]",11.733433509789462,-11.733433509789464,images/picture_3.png,2,"[-11.733433509789466, -11.733433509789462]",-11.733433509789464,-11.733433509789462,0,1,1,0.8284272091603617,1.8284272091603615,1.1715727908396385,3.0,1,1.5784272091603615,0,4.0,3.0,1,2,4,0,4,0,0,0,0,1,,,,,,,364.1839891669806,364.1839891669806,365.19036887498805,365.77627999999095,365.9897472089797,365.9897472089797,365.9897472089797,367.17649108398473,367.17649108398473,367.17649108398473,367.17649108398473,368.2093410839734,200008,003,2023-04-14_10h56.03.730,DMS_et_12-36,2022.2.4,None,
43,PRED,12,0.8284272091603617,2,images/picture_3.png,images/picture_1.png,0,"[11.733433509789462, -11.733433509789466]",11.733433509789462,-11.733433509789464,images/picture_2.png,1,"[-11.733433509789462, 11.733433509789464]",-11.733433509789462,11.733433509789464,images/picture_3.png,2,"[-11.733433509789466, -11.733433509789462]",-11.733433509789464,-11.733433509789462,0,1,1,0.8284272091603617,1.8284272091603615,1.1715727908396385,3.0,1,1.5784272091603615,0,4.0,3.0,1,2,4,0,4,0,0,1,1,7,,,,,,,368.2093410839734,368.2093410839734,369.22360754199326,369.7903480839741,370.0098616249743,370.0098616249743,370.0098616249743,371.1904627919721,371.1904627919721,371.1904627919721,371.1904627919721,372.19055024997215,200008,003,2023-04-14_10h56.03.730,DMS_et_12-36,2022.2.4,None,
41,PRED,12,0.8284272091603617,2,images/picture_3.png,images/picture_1.png,0,"[11.733433509789462, -11.733433509789466]",11.733433509789462,-11.733433509789464,images/picture_2.png,1,"[-11.733433509789466, -11.733433509789462]",-11.733433509789464,-11.733433509789462,images/picture_3.png,2,"[-11.733433509789462, 11.733433509789464]",-11.733433509789462,11.733433509789464,0,1,1,0.8284272091603617,1.8284272091603615,1.1715727908396385,3.0,1,1.5784272091603615,0,4.0,3.0,1,2,4,0,4,0,0,2,2,5,,,,,,,372.19055024997215,372.19055024997215,373.1904369169788,373.77657429198734,374.0096519589715,374.0096519589715,374.0096519589715,375.19017437499133,375.19017437499133,375.19017437499133,375.19017437499133,376.2098737919878,200008,003,2023-04-14_10h56.03.730,DMS_et_12-36,2022.2.4,None,
39,PRED,12,0.8284272091603617,2,images/picture_3.png,images/picture_1.png,0,"[11.733433509789464, 11.733433509789462]",11.733433509789464,11.733433509789462,images/picture_2.png,1,"[-11.733433509789462, 11.733433509789464]",-11.733433509789462,11.733433509789464,images/picture_3.png,2,"[11.733433509789462, -11.733433509789466]",11.733433509789462,-11.733433509789464,0,1,1,0.8284272091603617,1.8284272091603615,1.1715727908396385,3.0,1,1.5784272091603615,0,4.0,3.0,1,2,4,0,4,0,0,3,3,3,,,,,,,376.2098737919878,376.2098737919878,377.2236276669719,377.7903804589878,378.00965616697795,378.00965616697795,378.00965616697795,379.190322083974,379.190322083974,379.190322083974,379.190322083974,380.2100622089929,200008,003,2023-04-14_10h56.03.730,DMS_et_12-36,2022.2.4,None,
40,PRED,12,0.8284272091603617,2,images/picture_3.png,images/picture_1.png,0,"[11.733433509789462, -11.733433509789466]",11.733433509789462,-11.733433509789464,images/picture_2.png,1,"[-11.733433509789462, 11.733433509789464]",-11.733433509789462,11.733433509789464,images/picture_3.png,2,"[-11.733433509789466, -11.733433509789462]",-11.733433509789464,-11.733433509789462,0,1,1,0.8284272091603617,1.8284272091603615,1.1715727908396385,3.0,1,1.5784272091603615,0,4.0,3.0,1,2,4,0,4,0,0,4,4,4,,,,,,,380.2100622089929,380.2100622089929,381.2236142089823,381.7903604999883,382.0096471249999,382.0096471249999,382.0096471249999,383.1900054589787,383.1900054589787,383.1900054589787,383.1900054589787,384.20890712499386,200008,003,2023-04-14_10h56.03.730,DMS_et_12-36,2022.2.4,None,
42,PRED,12,0.8284272091603617,2,images/picture_3.png,images/picture_1.png,0,"[11.733433509789464, 11.733433509789462]",11.733433509789464,11.733433509789462,images/picture_2.png,1,"[-11.733433509789462, 11.733433509789464]",-11.733433509789462,11.733433509789464,images/picture_3.png,2,"[-11.733433509789466, -11.733433509789462]",-11.733433509789464,-11.733433509789462,0,1,1,0.8284272091603617,1.8284272091603615,1.1715727908396385,3.0,1,1.5784272091603615,0,4.0,3.0,1,2,4,0,4,0,0,5,5,6,,,,,,,384.20890712499386,384.20890712499386,385.223644083977,385.79039995899075,386.0099119999795,386.0099119999795,386.0099119999795,387.19041070897947,387.19041070897947,387.19041070897947,387.19041070897947,388.2092117499851,200008,003,2023-04-14_10h56.03.730,DMS_et_12-36,2022.2.4,None,
44,PRED,12,0.8284272091603617,2,images/picture_3.png,images/picture_1.png,0,"[11.733433509789462, -11.733433509789466]",11.733433509789462,-11.733433509789464,images/picture_2.png,1,"[11.733433509789464, 11.733433509789462]",11.733433509789464,11.733433509789462,images/picture_3.png,2,"[-11.733433509789466, -11.733433509789462]",-11.733433509789464,-11.733433509789462,0,1,1,0.8284272091603617,1.8284272091603615,1.1715727908396385,3.0,1,1.5784272091603615,0,4.0,3.0,1,2,4,0,4,0,0,6,6,8,,,,,,,388.2092117499851,388.2092117499851,389.22377704197424,389.79033691697987,390.010492292,390.010492292,390.010492292,391.190366625,391.190366625,391.190366625,391.190366625,392.2101088339987,200008,003,2023-04-14_10h56.03.730,DMS_et_12-36,2022.2.4,None,
36,PRED,12,0.8284272091603617,2,images/picture_3.png,images/picture_1.png,0,"[11.733433509789462, -11.733433509789466]",11.733433509789462,-11.733433509789464,images/picture_2.png,1,"[-11.733433509789466, -11.733433509789462]",-11.733433509789464,-11.733433509789462,images/picture_3.png,2,"[-11.733433509789462, 11.733433509789464]",-11.733433509789462,11.733433509789464,0,1,1,0.8284272091603617,1.8284272091603615,1.1715727908396385,3.0,1,1.5784272091603615,0,4.0,3.0,1,2,4,0,4,0,0,7,7,0,,,,,,,392.2101088339987,392.2101088339987,393.22356879198924,393.7903592919756,394.0102125419944,394.0102125419944,394.0102125419944,395.1903656249924,395.1903656249924,395.1903656249924,395.1903656249924,396.2092390419857,200008,003,2023-04-14_10h56.03.730,DMS_et_12-36,2022.2.4,None,
38,PRED,12,0.8284272091603617,2,images/picture_3.png,images/picture_1.png,0,"[-11.733433509789466, -11.733433509789462]",-11.733433509789464,-11.733433509789462,images/picture_2.png,1,"[11.733433509789464, 11.733433509789462]",11.733433509789464,11.733433509789462,images/picture_3.png,2,"[-11.733433509789462, 11.733433509789464]",-11.733433509789462,11.733433509789464,0,1,1,0.8284272091603617,1.8284272091603615,1.1715727908396385,3.0,1,1.5784272091603615,0,4.0,3.0,1,2,4,0,4,0,0,8,8,2,,,,,,,396.2092390419857,396.2092390419857,397.22364545898745,397.7903405839752,398.00961212499533,398.00961212499533,398.00961212499533,399.19038987497333,399.19038987497333,399.19038987497333,399.19038987497333,400.24930599998333,200008,003,2023-04-14_10h56.03.730,DMS_et_12-36,2022.2.4,None,
,,,,,,,,,,,,,,,,,,,,,,,,,,,,,,,,,,,4,0,4,0,,,,,,,,,400.24930599998333,412.2801602089894,,,,,,,,,,,,,200008,003,2023-04-14_10h56.03.730,DMS_et_12-36,2022.2.4,None,
52,UNPRED,12,0.8284272091603617,0,images/picture_1.png,images/picture_1.png,0,"[-11.733433509789466, -11.733433509789462]",-11.733433509789464,-11.733433509789462,images/picture_2.png,1,"[11.733433509789462, -11.733433509789466]",11.733433509789462,-11.733433509789464,images/picture_3.png,2,"[-11.733433509789462, 11.733433509789464]",-11.733433509789462,11.733433509789464,0,1,1,0.8284272091603617,1.8284272091603615,1.1715727908396385,3.0,1,1.5784272091603615,0,4.0,3.0,1,2,5,0,5,0,0,0,0,7,,,,,,,412.2801602089894,412.2801602089894,413.289965458971,413.856778833986,414.1092932499887,414.1092932499887,414.1092932499887,415.2904204169754,415.2904204169754,415.2904204169754,415.27702608398977,416.2897850839945,200008,003,2023-04-14_10h56.03.730,DMS_et_12-36,2022.2.4,None,
46,UNPRED,12,0.8284272091603617,0,images/picture_1.png,images/picture_1.png,0,"[11.733433509789462, -11.733433509789466]",11.733433509789462,-11.733433509789464,images/picture_2.png,1,"[-11.733433509789462, 11.733433509789464]",-11.733433509789462,11.733433509789464,images/picture_3.png,2,"[-11.733433509789466, -11.733433509789462]",-11.733433509789464,-11.733433509789462,0,1,1,0.8284272091603617,1.8284272091603615,1.1715727908396385,3.0,1,1.5784272091603615,0,4.0,3.0,1,2,5,0,5,0,0,1,1,1,,,,,,,416.2897850839945,416.2897850839945,417.29047304199776,417.8765881669824,418.109841958998,418.109841958998,418.109841958998,419.29037020899705,419.29037020899705,419.29037020899705,419.29037020899705,420.29012595899985,200008,003,2023-04-14_10h56.03.730,DMS_et_12-36,2022.2.4,None,
50,UNPRED,12,0.8284272091603617,0,images/picture_1.png,images/picture_1.png,0,"[11.733433509789462, -11.733433509789466]",11.733433509789462,-11.733433509789464,images/picture_2.png,1,"[-11.733433509789466, -11.733433509789462]",-11.733433509789464,-11.733433509789462,images/picture_3.png,2,"[11.733433509789464, 11.733433509789462]",11.733433509789464,11.733433509789462,0,1,1,0.8284272091603617,1.8284272091603615,1.1715727908396385,3.0,1,1.5784272091603615,0,4.0,3.0,1,2,5,0,5,0,0,2,2,5,,,,,,,420.29012595899985,420.29012595899985,421.2903667919745,421.87671645899536,422.1098006249813,422.1098006249813,422.1098006249813,423.29000554198865,423.29000554198865,423.29000554198865,423.29000554198865,424.29032574998564,200008,003,2023-04-14_10h56.03.730,DMS_et_12-36,2022.2.4,None,
51,UNPRED,12,0.8284272091603617,1,images/picture_2.png,images/picture_1.png,0,"[11.733433509789462, -11.733433509789466]",11.733433509789462,-11.733433509789464,images/picture_2.png,1,"[-11.733433509789462, 11.733433509789464]",-11.733433509789462,11.733433509789464,images/picture_3.png,2,"[-11.733433509789466, -11.733433509789462]",-11.733433509789464,-11.733433509789462,0,1,1,0.8284272091603617,1.8284272091603615,1.1715727908396385,3.0,1,1.5784272091603615,0,4.0,3.0,1,2,5,0,5,0,0,3,3,6,,,,,,,424.29032574998564,424.29032574998564,425.2903517089726,425.8764172089868,426.11004187498474,426.11004187498474,426.11004187498474,427.29055641699233,427.29055641699233,427.29055641699233,427.29055641699233,428.2900422089733,200008,003,2023-04-14_10h56.03.730,DMS_et_12-36,2022.2.4,None,
49,UNPRED,12,0.8284272091603617,0,images/picture_1.png,images/picture_1.png,0,"[-11.733433509789462, 11.733433509789464]",-11.733433509789462,11.733433509789464,images/picture_2.png,1,"[11.733433509789464, 11.733433509789462]",11.733433509789464,11.733433509789462,images/picture_3.png,2,"[-11.733433509789466, -11.733433509789462]",-11.733433509789464,-11.733433509789462,0,1,1,0.8284272091603617,1.8284272091603615,1.1715727908396385,3.0,1,1.5784272091603615,0,4.0,3.0,1,2,5,0,5,0,0,4,4,4,,,,,,,428.2900422089733,428.2900422089733,429.29038908399525,429.876501583989,430.1099914999795,430.1099914999795,430.1099914999795,431.2905190839956,431.2905190839956,431.2905190839956,431.2905190839956,432.2897899999807,200008,003,2023-04-14_10h56.03.730,DMS_et_12-36,2022.2.4,None,
53,UNPRED,12,0.8284272091603617,0,images/picture_1.png,images/picture_1.png,0,"[11.733433509789464, 11.733433509789462]",11.733433509789464,11.733433509789462,images/picture_2.png,1,"[-11.733433509789462, 11.733433509789464]",-11.733433509789462,11.733433509789464,images/picture_3.png,2,"[11.733433509789462, -11.733433509789466]",11.733433509789462,-11.733433509789464,0,1,1,0.8284272091603617,1.8284272091603615,1.1715727908396385,3.0,1,1.5784272091603615,0,4.0,3.0,1,2,5,0,5,0,0,5,5,8,,,,,,,432.2897899999807,432.2897899999807,433.2902235419897,433.87563037499785,434.10917587499716,434.10917587499716,434.10917587499716,435.2904208749824,435.2904208749824,435.2904208749824,435.2904208749824,436.28990079197683,200008,003,2023-04-14_10h56.03.730,DMS_et_12-36,2022.2.4,None,
47,UNPRED,12,0.8284272091603617,0,images/picture_1.png,images/picture_1.png,0,"[-11.733433509789466, -11.733433509789462]",-11.733433509789464,-11.733433509789462,images/picture_2.png,1,"[-11.733433509789462, 11.733433509789464]",-11.733433509789462,11.733433509789464,images/picture_3.png,2,"[11.733433509789464, 11.733433509789462]",11.733433509789464,11.733433509789462,0,1,1,0.8284272091603617,1.8284272091603615,1.1715727908396385,3.0,1,1.5784272091603615,0,4.0,3.0,1,2,5,0,5,0,0,6,6,2,,,,,,,436.28990079197683,436.28990079197683,437.2903403339733,437.8764231669775,438.1100686249847,438.1100686249847,438.1100686249847,439.2904025419848,439.2904025419848,439.2904025419848,439.2904025419848,440.289554374991,200008,003,2023-04-14_10h56.03.730,DMS_et_12-36,2022.2.4,None,
48,UNPRED,12,0.8284272091603617,1,images/picture_2.png,images/picture_1.png,0,"[-11.733433509789466, -11.733433509789462]",-11.733433509789464,-11.733433509789462,images/picture_2.png,1,"[11.733433509789462, -11.733433509789466]",11.733433509789462,-11.733433509789464,images/picture_3.png,2,"[11.733433509789464, 11.733433509789462]",11.733433509789464,11.733433509789462,0,1,1,0.8284272091603617,1.8284272091603615,1.1715727908396385,3.0,1,1.5784272091603615,0,4.0,3.0,1,2,5,0,5,0,0,7,7,3,,,,,,,440.289554374991,440.289554374991,441.2904733749747,441.87727316698874,442.1103172499861,442.1103172499861,442.1103172499861,443.2904285839759,443.2904285839759,443.2904285839759,443.2904285839759,444.30946087499615,200008,003,2023-04-14_10h56.03.730,DMS_et_12-36,2022.2.4,None,
45,UNPRED,12,0.8284272091603617,2,images/picture_3.png,images/picture_1.png,0,"[11.733433509789464, 11.733433509789462]",11.733433509789464,11.733433509789462,images/picture_2.png,1,"[-11.733433509789462, 11.733433509789464]",-11.733433509789462,11.733433509789464,images/picture_3.png,2,"[-11.733433509789466, -11.733433509789462]",-11.733433509789464,-11.733433509789462,0,1,1,0.8284272091603617,1.8284272091603615,1.1715727908396385,3.0,1,1.5784272091603615,0,4.0,3.0,1,2,5,0,5,0,0,8,8,0,,,,,,,444.30946087499615,444.30946087499615,445.3236664169817,445.890391583991,446.1098499169748,446.1098499169748,446.1098499169748,447.2903984589793,447.2903984589793,447.2903984589793,447.2903984589793,448.35887183397426,200008,003,2023-04-14_10h56.03.730,DMS_et_12-36,2022.2.4,None,
,,,,,,,,,,,,,,,,,,,,,,,,,,,,,,,,,,,5,0,5,0,,,,,,,,,448.35887183397426,460.3858294999809,,,,,,,,,,,,,200008,003,2023-04-14_10h56.03.730,DMS_et_12-36,2022.2.4,None,
56,PRED,12,0.8284272091603617,2,images/picture_3.png,images/picture_1.png,0,"[11.733433509789464, 11.733433509789462]",11.733433509789464,11.733433509789462,images/picture_2.png,1,"[-11.733433509789462, 11.733433509789464]",-11.733433509789462,11.733433509789464,images/picture_3.png,2,"[11.733433509789462, -11.733433509789466]",11.733433509789462,-11.733433509789464,0,1,1,0.8284272091603617,1.8284272091603615,1.1715727908396385,3.0,1,1.5784272091603615,0,4.0,3.0,1,2,6,0,6,0,0,0,0,2,,,,,,,460.3858294999809,460.3858294999809,461.39050779197714,461.9764449589711,462.20972470898414,462.20972470898414,462.20972470898414,463.390750999999,463.390750999999,463.390750999999,463.3765235419851,464.39081154199084,200008,003,2023-04-14_10h56.03.730,DMS_et_12-36,2022.2.4,None,
62,PRED,12,0.8284272091603617,2,images/picture_3.png,images/picture_1.png,0,"[11.733433509789462, -11.733433509789466]",11.733433509789462,-11.733433509789464,images/picture_2.png,1,"[11.733433509789464, 11.733433509789462]",11.733433509789464,11.733433509789462,images/picture_3.png,2,"[-11.733433509789462, 11.733433509789464]",-11.733433509789462,11.733433509789464,0,1,1,0.8284272091603617,1.8284272091603615,1.1715727908396385,3.0,1,1.5784272091603615,0,4.0,3.0,1,2,6,0,6,0,0,1,1,8,,,,,,,464.39081154199084,464.39081154199084,465.3903205419774,465.97638308399473,466.2100919589866,466.2100919589866,466.2100919589866,467.3903376669914,467.3903376669914,467.3903376669914,467.3903376669914,468.4091002919886,200008,003,2023-04-14_10h56.03.730,DMS_et_12-36,2022.2.4,None,
60,PRED,12,0.8284272091603617,2,images/picture_3.png,images/picture_1.png,0,"[11.733433509789464, 11.733433509789462]",11.733433509789464,11.733433509789462,images/picture_2.png,1,"[-11.733433509789466, -11.733433509789462]",-11.733433509789464,-11.733433509789462,images/picture_3.png,2,"[-11.733433509789462, 11.733433509789464]",-11.733433509789462,11.733433509789464,0,1,1,0.8284272091603617,1.8284272091603615,1.1715727908396385,3.0,1,1.5784272091603615,0,4.0,3.0,1,2,6,0,6,0,0,2,2,6,,,,,,,468.4091002919886,468.4091002919886,469.42367245897185,469.99049087497406,470.2237063339853,470.2237063339853,470.2237063339853,471.40989366697613,471.40989366697613,471.40989366697613,471.3902059169777,472.40935999999056,200008,003,2023-04-14_10h56.03.730,DMS_et_12-36,2022.2.4,None,
57,PRED,12,0.8284272091603617,2,images/picture_3.png,images/picture_1.png,0,"[11.733433509789464, 11.733433509789462]",11.733433509789464,11.733433509789462,images/picture_2.png,1,"[-11.733433509789462, 11.733433509789464]",-11.733433509789462,11.733433509789464,images/picture_3.png,2,"[11.733433509789462, -11.733433509789466]",11.733433509789462,-11.733433509789464,0,1,1,0.8284272091603617,1.8284272091603615,1.1715727908396385,3.0,1,1.5784272091603615,0,4.0,3.0,1,2,6,0,6,0,0,3,3,3,,,,,,,472.40935999999056,472.40935999999056,473.4234777089732,473.99036849997356,474.2098203339847,474.2098203339847,474.2098203339847,475.3900849169877,475.3900849169877,475.3900849169877,475.3900849169877,476.4093688749999,200008,003,2023-04-14_10h56.03.730,DMS_et_12-36,2022.2.4,None,
55,PRED,12,0.8284272091603617,2,images/picture_3.png,images/picture_1.png,0,"[-11.733433509789466, -11.733433509789462]",-11.733433509789464,-11.733433509789462,images/picture_2.png,1,"[11.733433509789464, 11.733433509789462]",11.733433509789464,11.733433509789462,images/picture_3.png,2,"[-11.733433509789462, 11.733433509789464]",-11.733433509789462,11.733433509789464,0,1,1,0.8284272091603617,1.8284272091603615,1.1715727908396385,3.0,1,1.5784272091603615,0,4.0,3.0,1,2,6,0,6,0,0,4,4,1,,,,,,,476.4093688749999,476.4093688749999,477.42334958398715,477.9904113339726,478.20999366699834,478.20999366699834,478.20999366699834,479.39038516697474,479.39038516697474,479.39038516697474,479.39038516697474,480.4088388749806,200008,003,2023-04-14_10h56.03.730,DMS_et_12-36,2022.2.4,None,
54,PRED,12,0.8284272091603617,2,images/picture_3.png,images/picture_1.png,0,"[-11.733433509789462, 11.733433509789464]",-11.733433509789462,11.733433509789464,images/picture_2.png,1,"[11.733433509789464, 11.733433509789462]",11.733433509789464,11.733433509789462,images/picture_3.png,2,"[-11.733433509789466, -11.733433509789462]",-11.733433509789464,-11.733433509789462,0,1,1,0.8284272091603617,1.8284272091603615,1.1715727908396385,3.0,1,1.5784272091603615,0,4.0,3.0,1,2,6,0,6,0,0,5,5,0,,,,,,,480.4088388749806,480.4088388749806,481.4239898749802,481.9904456669756,482.2236323749821,482.2236323749821,482.2236323749821,483.41033487499226,483.41033487499226,483.41033487499226,483.3901887089887,484.4092829169822,200008,003,2023-04-14_10h56.03.730,DMS_et_12-36,2022.2.4,None,
58,PRED,12,0.8284272091603617,2,images/picture_3.png,images/picture_1.png,0,"[-11.733433509789466, -11.733433509789462]",-11.733433509789464,-11.733433509789462,images/picture_2.png,1,"[11.733433509789464, 11.733433509789462]",11.733433509789464,11.733433509789462,images/picture_3.png,2,"[11.733433509789462, -11.733433509789466]",11.733433509789462,-11.733433509789464,0,1,1,0.8284272091603617,1.8284272091603615,1.1715727908396385,3.0,1,1.5784272091603615,0,4.0,3.0,1,2,6,0,6,0,0,6,6,4,,,,,,,484.4092829169822,484.4092829169822,485.4235253749939,485.99055558399414,486.21006166699226,486.21006166699226,486.21006166699226,487.39038691698806,487.39038691698806,487.39038691698806,487.39038691698806,488.40929174999474,200008,003,2023-04-14_10h56.03.730,DMS_et_12-36,2022.2.4,None,
61,PRED,12,0.8284272091603617,2,images/picture_3.png,images/picture_1.png,0,"[-11.733433509789462, 11.733433509789464]",-11.733433509789462,11.733433509789464,images/picture_2.png,1,"[11.733433509789462, -11.733433509789466]",11.733433509789462,-11.733433509789464,images/picture_3.png,2,"[-11.733433509789466, -11.733433509789462]",-11.733433509789464,-11.733433509789462,0,1,1,0.8284272091603617,1.8284272091603615,1.1715727908396385,3.0,1,1.5784272091603615,0,4.0,3.0,1,2,6,0,6,0,0,7,7,7,,,,,,,488.40929174999474,488.40929174999474,489.42335137497867,489.9905845419853,490.21006187499734,490.21006187499734,490.21006187499734,491.3906076249841,491.3906076249841,491.3906076249841,491.3906076249841,492.40913749998435,200008,003,2023-04-14_10h56.03.730,DMS_et_12-36,2022.2.4,None,
59,PRED,12,0.8284272091603617,2,images/picture_3.png,images/picture_1.png,0,"[-11.733433509789462, 11.733433509789464]",-11.733433509789462,11.733433509789464,images/picture_2.png,1,"[11.733433509789464, 11.733433509789462]",11.733433509789464,11.733433509789462,images/picture_3.png,2,"[11.733433509789462, -11.733433509789466]",11.733433509789462,-11.733433509789464,0,1,1,0.8284272091603617,1.8284272091603615,1.1715727908396385,3.0,1,1.5784272091603615,0,4.0,3.0,1,2,6,0,6,0,0,8,8,5,,,,,,,492.40913749998435,492.40913749998435,493.4237939589948,493.9904956249811,494.2235292499827,494.2235292499827,494.2235292499827,495.40984387497883,495.40984387497883,495.40984387497883,495.3902723339852,496.46615483399364,200008,003,2023-04-14_10h56.03.730,DMS_et_12-36,2022.2.4,None,
,,,,,,,,,,,,,,,,,,,,,,,,,,,,,,,,,,,6,0,6,0,,,,,,,,,496.46615483399364,508.49537804198917,,,,,,,,,,,,,200008,003,2023-04-14_10h56.03.730,DMS_et_12-36,2022.2.4,None,
63,UNPRED,12,0.8284272091603617,0,images/picture_1.png,images/picture_1.png,0,"[-11.733433509789466, -11.733433509789462]",-11.733433509789464,-11.733433509789462,images/picture_2.png,1,"[11.733433509789462, -11.733433509789466]",11.733433509789462,-11.733433509789464,images/picture_3.png,2,"[11.733433509789464, 11.733433509789462]",11.733433509789464,11.733433509789462,0,1,1,0.8284272091603617,1.8284272091603615,1.1715727908396385,3.0,1,1.5784272091603615,0,4.0,3.0,1,2,7,0,7,0,0,0,0,0,,,,,,,508.49537804198917,508.49537804198917,509.5107301249809,510.0766987919924,510.32386595898424,510.32386595898424,510.32386595898424,511.5099363339832,511.5099363339832,511.5099363339832,511.49042679197737,512.4900452919828,200008,003,2023-04-14_10h56.03.730,DMS_et_12-36,2022.2.4,None,
65,UNPRED,12,0.8284272091603617,0,images/picture_1.png,images/picture_1.png,0,"[11.733433509789464, 11.733433509789462]",11.733433509789464,11.733433509789462,images/picture_2.png,1,"[11.733433509789462, -11.733433509789466]",11.733433509789462,-11.733433509789464,images/picture_3.png,2,"[-11.733433509789462, 11.733433509789464]",-11.733433509789462,11.733433509789464,0,1,1,0.8284272091603617,1.8284272091603615,1.1715727908396385,3.0,1,1.5784272091603615,0,4.0,3.0,1,2,7,0,7,0,0,1,1,2,,,,,,,512.4900452919828,512.4900452919828,513.4900140839745,514.0768886249862,514.3098264999862,514.3098264999862,514.3098264999862,515.4902306669974,515.4902306669974,515.4902306669974,515.4902306669974,516.5092562499922,200008,003,2023-04-14_10h56.03.730,DMS_et_12-36,2022.2.4,None,
68,UNPRED,12,0.8284272091603617,2,images/picture_3.png,images/picture_1.png,0,"[-11.733433509789466, -11.733433509789462]",-11.733433509789464,-11.733433509789462,images/picture_2.png,1,"[11.733433509789464, 11.733433509789462]",11.733433509789464,11.733433509789462,images/picture_3.png,2,"[11.733433509789462, -11.733433509789466]",11.733433509789462,-11.733433509789464,0,1,1,0.8284272091603617,1.8284272091603615,1.1715727908396385,3.0,1,1.5784272091603615,0,4.0,3.0,1,2,7,0,7,0,0,2,2,5,,,,,,,516.5092562499922,516.5092562499922,517.5238173339749,518.0904202499951,518.3100782499823,518.3100782499823,518.3100782499823,519.490168083983,519.490168083983,519.490168083983,519.490168083983,520.4905455419794,200008,003,2023-04-14_10h56.03.730,DMS_et_12-36,2022.2.4,None,
71,UNPRED,12,0.8284272091603617,1,images/picture_2.png,images/picture_1.png,0,"[11.733433509789462, -11.733433509789466]",11.733433509789462,-11.733433509789464,images/picture_2.png,1,"[-11.733433509789462, 11.733433509789464]",-11.733433509789462,11.733433509789464,images/picture_3.png,2,"[11.733433509789464, 11.733433509789462]",11.733433509789464,11.733433509789462,0,1,1,0.8284272091603617,1.8284272091603615,1.1715727908396385,3.0,1,1.5784272091603615,0,4.0,3.0,1,2,7,0,7,0,0,3,3,8,,,,,,,520.4905455419794,520.4905455419794,521.4905451669765,522.0767630419869,522.3099607919867,522.3099607919867,522.3099607919867,523.4903806669754,523.4903806669754,523.4903806669754,523.4903806669754,524.4898047919851,200008,003,2023-04-14_10h56.03.730,DMS_et_12-36,2022.2.4,None,
70,UNPRED,12,0.8284272091603617,1,images/picture_2.png,images/picture_1.png,0,"[-11.733433509789466, -11.733433509789462]",-11.733433509789464,-11.733433509789462,images/picture_2.png,1,"[11.733433509789464, 11.733433509789462]",11.733433509789464,11.733433509789462,images/picture_3.png,2,"[11.733433509789462, -11.733433509789466]",11.733433509789462,-11.733433509789464,0,1,1,0.8284272091603617,1.8284272091603615,1.1715727908396385,3.0,1,1.5784272091603615,0,4.0,3.0,1,2,7,0,7,0,0,4,4,7,,,,,,,524.4898047919851,524.4898047919851,525.4902201669756,526.0757780839922,526.3090955419757,526.3090955419757,526.3090955419757,527.4905880419828,527.4905880419828,527.4905880419828,527.4905880419828,528.4900531249878,200008,003,2023-04-14_10h56.03.730,DMS_et_12-36,2022.2.4,None,
69,UNPRED,12,0.8284272091603617,1,images/picture_2.png,images/picture_1.png,0,"[-11.733433509789466, -11.733433509789462]",-11.733433509789464,-11.733433509789462,images/picture_2.png,1,"[-11.733433509789462, 11.733433509789464]",-11.733433509789462,11.733433509789464,images/picture_3.png,2,"[11.733433509789464, 11.733433509789462]",11.733433509789464,11.733433509789462,0,1,1,0.8284272091603617,1.8284272091603615,1.1715727908396385,3.0,1,1.5784272091603615,0,4.0,3.0,1,2,7,0,7,0,0,5,5,6,,,,,,,528.4900531249878,528.4900531249878,529.4903745839838,530.0765792089805,530.3101505839732,530.3101505839732,530.3101505839732,531.4902472499816,531.4902472499816,531.4902472499816,531.4902472499816,532.5094261669728,200008,003,2023-04-14_10h56.03.730,DMS_et_12-36,2022.2.4,None,
64,UNPRED,12,0.8284272091603617,2,images/picture_3.png,images/picture_1.png,0,"[11.733433509789462, -11.733433509789466]",11.733433509789462,-11.733433509789464,images/picture_2.png,1,"[11.733433509789464, 11.733433509789462]",11.733433509789464,11.733433509789462,images/picture_3.png,2,"[-11.733433509789466, -11.733433509789462]",-11.733433509789464,-11.733433509789462,0,1,1,0.8284272091603617,1.8284272091603615,1.1715727908396385,3.0,1,1.5784272091603615,0,4.0,3.0,1,2,7,0,7,0,0,6,6,1,,,,,,,532.5094261669728,532.5094261669728,533.5238681249903,534.0906703339715,534.3100280419749,534.3100280419749,534.3100280419749,535.4905958749878,535.4905958749878,535.4905958749878,535.4905958749878,536.4901404589764,200008,003,2023-04-14_10h56.03.730,DMS_et_12-36,2022.2.4,None,
67,UNPRED,12,0.8284272091603617,1,images/picture_2.png,images/picture_1.png,0,"[-11.733433509789466, -11.733433509789462]",-11.733433509789464,-11.733433509789462,images/picture_2.png,1,"[11.733433509789464, 11.733433509789462]",11.733433509789464,11.733433509789462,images/picture_3.png,2,"[-11.733433509789462, 11.733433509789464]",-11.733433509789462,11.733433509789464,0,1,1,0.8284272091603617,1.8284272091603615,1.1715727908396385,3.0,1,1.5784272091603615,0,4.0,3.0,1,2,7,0,7,0,0,7,7,4,,,,,,,536.4901404589764,536.4901404589764,537.4901144169853,538.0766602499934,538.3238153749844,538.3238153749844,538.3238153749844,539.5098678339855,539.5098678339855,539.5098678339855,539.4905720419774,540.4899736249936,200008,003,2023-04-14_10h56.03.730,DMS_et_12-36,2022.2.4,None,
66,UNPRED,12,0.8284272091603617,0,images/picture_1.png,images/picture_1.png,0,"[-11.733433509789462, 11.733433509789464]",-11.733433509789462,11.733433509789464,images/picture_2.png,1,"[11.733433509789462, -11.733433509789466]",11.733433509789462,-11.733433509789464,images/picture_3.png,2,"[-11.733433509789466, -11.733433509789462]",-11.733433509789464,-11.733433509789462,0,1,1,0.8284272091603617,1.8284272091603615,1.1715727908396385,3.0,1,1.5784272091603615,0,4.0,3.0,1,2,7,0,7,0,0,8,8,3,,,,,,,540.4899736249936,540.4899736249936,541.4905873749813,542.0765887919988,542.3094892499794,542.3094892499794,542.3094892499794,543.4902028339857,543.4902028339857,543.4902028339857,543.4902028339857,544.5748002919718,200008,003,2023-04-14_10h56.03.730,DMS_et_12-36,2022.2.4,None,
,,,,,,,,,,,,,,,,,,,,,,,,,,,,,,,,,,,7,0,7,0,,,,,,,,,544.5748002919718,556.609808166977,,,,,,,,,,,,,200008,003,2023-04-14_10h56.03.730,DMS_et_12-36,2022.2.4,None,
74,PRED,12,0.8284272091603617,1,images/picture_2.png,images/picture_1.png,0,"[11.733433509789464, 11.733433509789462]",11.733433509789464,11.733433509789462,images/picture_2.png,1,"[11.733433509789462, -11.733433509789466]",11.733433509789462,-11.733433509789464,images/picture_3.png,2,"[-11.733433509789466, -11.733433509789462]",-11.733433509789464,-11.733433509789462,0,1,1,0.8284272091603617,1.8284272091603615,1.1715727908396385,3.0,1,1.5784272091603615,0,4.0,3.0,1,2,8,0,8,0,0,0,0,2,,,,,,,556.609808166977,556.609808166977,557.623884791974,558.190620999987,558.4233756669855,558.4233756669855,558.4233756669855,559.6100216249761,559.6100216249761,559.6100216249761,559.5906254999863,560.5901049589738,200008,003,2023-04-14_10h56.03.730,DMS_et_12-36,2022.2.4,None,
75,PRED,12,0.8284272091603617,1,images/picture_2.png,images/picture_1.png,0,"[-11.733433509789466, -11.733433509789462]",-11.733433509789464,-11.733433509789462,images/picture_2.png,1,"[11.733433509789462, -11.733433509789466]",11.733433509789462,-11.733433509789464,images/picture_3.png,2,"[11.733433509789464, 11.733433509789462]",11.733433509789464,11.733433509789462,0,1,1,0.8284272091603617,1.8284272091603615,1.1715727908396385,3.0,1,1.5784272091603615,0,4.0,3.0,1,2,8,0,8,0,0,1,1,3,,,,,,,560.5901049589738,560.5901049589738,561.590436708997,562.1766687919735,562.4102478749992,562.4102478749992,562.4102478749992,563.590618666989,563.590618666989,563.590618666989,563.590618666989,564.5899985419819,200008,003,2023-04-14_10h56.03.730,DMS_et_12-36,2022.2.4,None,
72,PRED,12,0.8284272091603617,1,images/picture_2.png,images/picture_1.png,0,"[11.733433509789464, 11.733433509789462]",11.733433509789464,11.733433509789462,images/picture_2.png,1,"[-11.733433509789462, 11.733433509789464]",-11.733433509789462,11.733433509789464,images/picture_3.png,2,"[11.733433509789462, -11.733433509789466]",11.733433509789462,-11.733433509789464,0,1,1,0.8284272091603617,1.8284272091603615,1.1715727908396385,3.0,1,1.5784272091603615,0,4.0,3.0,1,2,8,0,8,0,0,2,2,0,,,,,,,564.5899985419819,564.5899985419819,565.5905692089873,566.1767389999877,566.4101130839845,566.4101130839845,566.4101130839845,567.5903732089791,567.5903732089791,567.5903732089791,567.5903732089791,568.5895371669903,200008,003,2023-04-14_10h56.03.730,DMS_et_12-36,2022.2.4,None,
76,PRED,12,0.8284272091603617,1,images/picture_2.png,images/picture_1.png,0,"[11.733433509789464, 11.733433509789462]",11.733433509789464,11.733433509789462,images/picture_2.png,1,"[-11.733433509789462, 11.733433509789464]",-11.733433509789462,11.733433509789464,images/picture_3.png,2,"[-11.733433509789466, -11.733433509789462]",-11.733433509789464,-11.733433509789462,0,1,1,0.8284272091603617,1.8284272091603615,1.1715727908396385,3.0,1,1.5784272091603615,0,4.0,3.0,1,2,8,0,8,0,0,3,3,4,,,,,,,568.5895371669903,568.5895371669903,569.5905964589911,570.1766679169959,570.4103151669842,570.4103151669842,570.4103151669842,571.590642708994,571.590642708994,571.590642708994,571.590642708994,572.590451541997,200008,003,2023-04-14_10h56.03.730,DMS_et_12-36,2022.2.4,None,
80,PRED,12,0.8284272091603617,1,images/picture_2.png,images/picture_1.png,0,"[-11.733433509789466, -11.733433509789462]",-11.733433509789464,-11.733433509789462,images/picture_2.png,1,"[11.733433509789462, -11.733433509789466]",11.733433509789462,-11.733433509789464,images/picture_3.png,2,"[11.733433509789464, 11.733433509789462]",11.733433509789464,11.733433509789462,0,1,1,0.8284272091603617,1.8284272091603615,1.1715727908396385,3.0,1,1.5784272091603615,0,4.0,3.0,1,2,8,0,8,0,0,4,4,8,,,,,,,572.590451541997,572.590451541997,573.5906581249728,574.1774147919787,574.4100917919714,574.4100917919714,574.4100917919714,575.5906537499977,575.5906537499977,575.5906537499977,575.5906537499977,576.5899675839755,200008,003,2023-04-14_10h56.03.730,DMS_et_12-36,2022.2.4,None,
73,PRED,12,0.8284272091603617,1,images/picture_2.png,images/picture_1.png,0,"[-11.733433509789462, 11.733433509789464]",-11.733433509789462,11.733433509789464,images/picture_2.png,1,"[11.733433509789462, -11.733433509789466]",11.733433509789462,-11.733433509789464,images/picture_3.png,2,"[11.733433509789464, 11.733433509789462]",11.733433509789464,11.733433509789462,0,1,1,0.8284272091603617,1.8284272091603615,1.1715727908396385,3.0,1,1.5784272091603615,0,4.0,3.0,1,2,8,0,8,0,0,5,5,1,,,,,,,576.5899675839755,576.5899675839755,577.5902503749821,578.1760209589847,578.4102217499749,578.4102217499749,578.4102217499749,579.5906221249897,579.5906221249897,579.5906221249897,579.5906221249897,580.5901660839736,200008,003,2023-04-14_10h56.03.730,DMS_et_12-36,2022.2.4,None,
79,PRED,12,0.8284272091603617,1,images/picture_2.png,images/picture_1.png,0,"[-11.733433509789466, -11.733433509789462]",-11.733433509789464,-11.733433509789462,images/picture_2.png,1,"[11.733433509789464, 11.733433509789462]",11.733433509789464,11.733433509789462,images/picture_3.png,2,"[-11.733433509789462, 11.733433509789464]",-11.733433509789462,11.733433509789464,0,1,1,0.8284272091603617,1.8284272091603615,1.1715727908396385,3.0,1,1.5784272091603615,0,4.0,3.0,1,2,8,0,8,0,0,6,6,7,,,,,,,580.5901660839736,580.5901660839736,581.5906370839803,582.1771638339851,582.410500041995,582.410500041995,582.410500041995,583.5906273339933,583.5906273339933,583.5906273339933,583.5906273339933,584.590068999998,200008,003,2023-04-14_10h56.03.730,DMS_et_12-36,2022.2.4,None,
77,PRED,12,0.8284272091603617,1,images/picture_2.png,images/picture_1.png,0,"[-11.733433509789462, 11.733433509789464]",-11.733433509789462,11.733433509789464,images/picture_2.png,1,"[-11.733433509789466, -11.733433509789462]",-11.733433509789464,-11.733433509789462,images/picture_3.png,2,"[11.733433509789462, -11.733433509789466]",11.733433509789462,-11.733433509789464,0,1,1,0.8284272091603617,1.8284272091603615,1.1715727908396385,3.0,1,1.5784272091603615,0,4.0,3.0,1,2,8,0,8,0,0,7,7,5,,,,,,,584.590068999998,584.590068999998,585.5906155419943,586.1769478339993,586.410000541975,586.410000541975,586.410000541975,587.5908123749832,587.5908123749832,587.5908123749832,587.5908123749832,588.5900150419911,200008,003,2023-04-14_10h56.03.730,DMS_et_12-36,2022.2.4,None,
78,PRED,12,0.8284272091603617,1,images/picture_2.png,images/picture_1.png,0,"[-11.733433509789462, 11.733433509789464]",-11.733433509789462,11.733433509789464,images/picture_2.png,1,"[11.733433509789462, -11.733433509789466]",11.733433509789462,-11.733433509789464,images/picture_3.png,2,"[-11.733433509789466, -11.733433509789462]",-11.733433509789464,-11.733433509789462,0,1,1,0.8284272091603617,1.8284272091603615,1.1715727908396385,3.0,1,1.5784272091603615,0,4.0,3.0,1,2,8,0,8,0,0,8,8,6,,,,,,,588.5900150419911,588.5900150419911,589.5906248749816,590.1766442089865,590.4103597499779,590.4103597499779,590.4103597499779,591.5905792499834,591.5905792499834,591.5905792499834,591.5905792499834,592.6854284999717,200008,003,2023-04-14_10h56.03.730,DMS_et_12-36,2022.2.4,None,
,,,,,,,,,,,,,,,,,,,,,,,,,,,,,,,,,,,8,0,8,0,,,,,,,,,592.6854284999717,604.714002749999,,,,,,,,,,,,,200008,003,2023-04-14_10h56.03.730,DMS_et_12-36,2022.2.4,None,
81,UNPRED,12,0.8284272091603617,0,images/picture_1.png,images/picture_1.png,0,"[11.733433509789464, 11.733433509789462]",11.733433509789464,11.733433509789462,images/picture_2.png,1,"[-11.733433509789462, 11.733433509789464]",-11.733433509789462,11.733433509789464,images/picture_3.png,2,"[11.733433509789462, -11.733433509789466]",11.733433509789462,-11.733433509789464,0,1,1,0.8284272091603617,1.8284272091603615,1.1715727908396385,3.0,1,1.5784272091603615,0,4.0,3.0,1,2,9,0,9,0,0,0,0,0,,,,,,,604.714002749999,604.714002749999,605.7238616669783,606.2906956669758,606.5433453339792,606.5433453339792,606.5433453339792,607.7236397089728,607.7236397089728,607.7236397089728,607.7097402089857,608.7235767089878,200008,003,2023-04-14_10h56.03.730,DMS_et_12-36,2022.2.4,None,
86,UNPRED,12,0.8284272091603617,0,images/picture_1.png,images/picture_1.png,0,"[-11.733433509789462, 11.733433509789464]",-11.733433509789462,11.733433509789464,images/picture_2.png,1,"[11.733433509789462, -11.733433509789466]",11.733433509789462,-11.733433509789464,images/picture_3.png,2,"[11.733433509789464, 11.733433509789462]",11.733433509789464,11.733433509789462,0,1,1,0.8284272091603617,1.8284272091603615,1.1715727908396385,3.0,1,1.5784272091603615,0,4.0,3.0,1,2,9,0,9,0,0,1,1,5,,,,,,,608.7235767089878,608.7235767089878,609.7238867089909,610.3101206249848,610.5435654169996,610.5435654169996,610.5435654169996,611.7239721249789,611.7239721249789,611.7239721249789,611.7239721249789,612.7434026249975,200008,003,2023-04-14_10h56.03.730,DMS_et_12-36,2022.2.4,None,
84,UNPRED,12,0.8284272091603617,2,images/picture_3.png,images/picture_1.png,0,"[11.733433509789464, 11.733433509789462]",11.733433509789464,11.733433509789462,images/picture_2.png,1,"[-11.733433509789466, -11.733433509789462]",-11.733433509789464,-11.733433509789462,images/picture_3.png,2,"[11.733433509789462, -11.733433509789466]",11.733433509789462,-11.733433509789464,0,1,1,0.8284272091603617,1.8284272091603615,1.1715727908396385,3.0,1,1.5784272091603615,0,4.0,3.0,1,2,9,0,9,0,0,2,2,3,,,,,,,612.7434026249975,612.7434026249975,613.757186666975,614.3240862089733,614.5431833339971,614.5431833339971,614.5431833339971,615.7239177089941,615.7239177089941,615.7239177089941,615.7239177089941,616.7438457499957,200008,003,2023-04-14_10h56.03.730,DMS_et_12-36,2022.2.4,None,
89,UNPRED,12,0.8284272091603617,1,images/picture_2.png,images/picture_1.png,0,"[11.733433509789464, 11.733433509789462]",11.733433509789464,11.733433509789462,images/picture_2.png,1,"[-11.733433509789466, -11.733433509789462]",-11.733433509789464,-11.733433509789462,images/picture_3.png,2,"[11.733433509789462, -11.733433509789466]",11.733433509789462,-11.733433509789464,0,1,1,0.8284272091603617,1.8284272091603615,1.1715727908396385,3.0,1,1.5784272091603615,0,4.0,3.0,1,2,9,0,9,0,0,3,3,8,,,,,,,616.7438457499957,616.7438457499957,617.7571963339869,618.3237787499966,618.5425819169905,618.5425819169905,618.5425819169905,619.7239562919713,619.7239562919713,619.7239562919713,619.7239562919713,620.7426019589766,200008,003,2023-04-14_10h56.03.730,DMS_et_12-36,2022.2.4,None,
83,UNPRED,12,0.8284272091603617,2,images/picture_3.png,images/picture_1.png,0,"[11.733433509789462, -11.733433509789466]",11.733433509789462,-11.733433509789464,images/picture_2.png,1,"[-11.733433509789466, -11.733433509789462]",-11.733433509789464,-11.733433509789462,images/picture_3.png,2,"[11.733433509789464, 11.733433509789462]",11.733433509789464,11.733433509789462,0,1,1,0.8284272091603617,1.8284272091603615,1.1715727908396385,3.0,1,1.5784272091603615,0,4.0,3.0,1,2,9,0,9,0,0,4,4,2,,,,,,,620.7426019589766,620.7426019589766,621.7573693339946,622.3239372089738,622.5435944589844,622.5435944589844,622.5435944589844,623.7239348749863,623.7239348749863,623.7239348749863,623.7239348749863,624.7228840419848,200008,003,2023-04-14_10h56.03.730,DMS_et_12-36,2022.2.4,None,
87,UNPRED,12,0.8284272091603617,1,images/picture_2.png,images/picture_1.png,0,"[-11.733433509789462, 11.733433509789464]",-11.733433509789462,11.733433509789464,images/picture_2.png,1,"[11.733433509789462, -11.733433509789466]",11.733433509789462,-11.733433509789464,images/picture_3.png,2,"[11.733433509789464, 11.733433509789462]",11.733433509789464,11.733433509789462,0,1,1,0.8284272091603617,1.8284272091603615,1.1715727908396385,3.0,1,1.5784272091603615,0,4.0,3.0,1,2,9,0,9,0,0,5,5,6,,,,,,,624.7228840419848,624.7228840419848,625.7239353339828,626.3107426249771,626.543678624992,626.543678624992,626.543678624992,627.7239494169771,627.7239494169771,627.7239494169771,627.7239494169771,628.7236151669931,200008,003,2023-04-14_10h56.03.730,DMS_et_12-36,2022.2.4,None,
82,UNPRED,12,0.8284272091603617,1,images/picture_2.png,images/picture_1.png,0,"[11.733433509789462, -11.733433509789466]",11.733433509789462,-11.733433509789464,images/picture_2.png,1,"[-11.733433509789466, -11.733433509789462]",-11.733433509789464,-11.733433509789462,images/picture_3.png,2,"[11.733433509789464, 11.733433509789462]",11.733433509789464,11.733433509789462,0,1,1,0.8284272091603617,1.8284272091603615,1.1715727908396385,3.0,1,1.5784272091603615,0,4.0,3.0,1,2,9,0,9,0,0,6,6,1,,,,,,,628.7236151669931,628.7236151669931,629.7238773339777,630.3099843339878,630.5428597919818,630.5428597919818,630.5428597919818,631.7239549589867,631.7239549589867,631.7239549589867,631.7239549589867,632.7234184999834,200008,003,2023-04-14_10h56.03.730,DMS_et_12-36,2022.2.4,None,
88,UNPRED,12,0.8284272091603617,0,images/picture_1.png,images/picture_1.png,0,"[11.733433509789464, 11.733433509789462]",11.733433509789464,11.733433509789462,images/picture_2.png,1,"[11.733433509789462, -11.733433509789466]",11.733433509789462,-11.733433509789464,images/picture_3.png,2,"[-11.733433509789462, 11.733433509789464]",-11.733433509789462,11.733433509789464,0,1,1,0.8284272091603617,1.8284272091603615,1.1715727908396385,3.0,1,1.5784272091603615,0,4.0,3.0,1,2,9,0,9,0,0,7,7,7,,,,,,,632.7234184999834,632.7234184999834,633.724177749973,634.3100816669757,634.5436278749839,634.5436278749839,634.5436278749839,635.724105124973,635.724105124973,635.724105124973,635.724105124973,636.7237349999778,200008,003,2023-04-14_10h56.03.730,DMS_et_12-36,2022.2.4,None,
85,UNPRED,12,0.8284272091603617,0,images/picture_1.png,images/picture_1.png,0,"[11.733433509789462, -11.733433509789466]",11.733433509789462,-11.733433509789464,images/picture_2.png,1,"[-11.733433509789462, 11.733433509789464]",-11.733433509789462,11.733433509789464,images/picture_3.png,2,"[-11.733433509789466, -11.733433509789462]",-11.733433509789464,-11.733433509789462,0,1,1,0.8284272091603617,1.8284272091603615,1.1715727908396385,3.0,1,1.5784272091603615,0,4.0,3.0,1,2,9,0,9,0,0,8,8,4,,,,,,,636.7237349999778,636.7237349999778,637.7241612089856,638.3099192089867,638.5432888339856,638.5432888339856,638.5432888339856,639.7238369999977,639.7238369999977,639.7238369999977,639.7238369999977,640.8268788749992,200008,003,2023-04-14_10h56.03.730,DMS_et_12-36,2022.2.4,None,
,,,,,,,,,,,,,,,,,,,,,,,,,,,,,,,,,,,9,0,9,0,,,,,,,,,640.8268788749992,652.8573787499918,,,,,,,,,,,,,200008,003,2023-04-14_10h56.03.730,DMS_et_12-36,2022.2.4,None,
95,PRED,12,0.8284272091603617,2,images/picture_3.png,images/picture_1.png,0,"[-11.733433509789466, -11.733433509789462]",-11.733433509789464,-11.733433509789462,images/picture_2.png,1,"[11.733433509789462, -11.733433509789466]",11.733433509789462,-11.733433509789464,images/picture_3.png,2,"[11.733433509789464, 11.733433509789462]",11.733433509789464,11.733433509789462,0,1,1,0.8284272091603617,1.8284272091603615,1.1715727908396385,3.0,1,1.5784272091603615,0,4.0,3.0,1,2,10,0,10,0,0,0,0,5,,,,,,,652.8573787499918,652.8573787499918,653.857445874979,654.44375174999,654.6766672919912,654.6766672919912,654.6766672919912,655.8574299169995,655.8574299169995,655.8574299169995,655.8435262919811,656.8764426669804,200008,003,2023-04-14_10h56.03.730,DMS_et_12-36,2022.2.4,None,
90,PRED,12,0.8284272091603617,2,images/picture_3.png,images/picture_1.png,0,"[11.733433509789464, 11.733433509789462]",11.733433509789464,11.733433509789462,images/picture_2.png,1,"[-11.733433509789462, 11.733433509789464]",-11.733433509789462,11.733433509789464,images/picture_3.png,2,"[-11.733433509789466, -11.733433509789462]",-11.733433509789464,-11.733433509789462,0,1,1,0.8284272091603617,1.8284272091603615,1.1715727908396385,3.0,1,1.5784272091603615,0,4.0,3.0,1,2,10,0,10,0,0,1,1,0,,,,,,,656.8764426669804,656.8764426669804,657.8906226249819,658.4571987089876,658.6766896669869,658.6766896669869,658.6766896669869,659.8570540839864,659.8570540839864,659.8570540839864,659.8570540839864,660.8767706249782,200008,003,2023-04-14_10h56.03.730,DMS_et_12-36,2022.2.4,None,
93,PRED,12,0.8284272091603617,2,images/picture_3.png,images/picture_1.png,0,"[11.733433509789462, -11.733433509789466]",11.733433509789462,-11.733433509789464,images/picture_2.png,1,"[-11.733433509789466, -11.733433509789462]",-11.733433509789464,-11.733433509789462,images/picture_3.png,2,"[-11.733433509789462, 11.733433509789464]",-11.733433509789462,11.733433509789464,0,1,1,0.8284272091603617,1.8284272091603615,1.1715727908396385,3.0,1,1.5784272091603615,0,4.0,3.0,1,2,10,0,10,0,0,2,2,3,,,,,,,660.8767706249782,660.8767706249782,661.8906064589974,662.457528125,662.6768184169778,662.6768184169778,662.6768184169778,663.8573617089714,663.8573617089714,663.8573617089714,663.8573617089714,664.8759007919871,200008,003,2023-04-14_10h56.03.730,DMS_et_12-36,2022.2.4,None,
97,PRED,12,0.8284272091603617,2,images/picture_3.png,images/picture_1.png,0,"[-11.733433509789466, -11.733433509789462]",-11.733433509789464,-11.733433509789462,images/picture_2.png,1,"[-11.733433509789462, 11.733433509789464]",-11.733433509789462,11.733433509789464,images/picture_3.png,2,"[11.733433509789462, -11.733433509789466]",11.733433509789462,-11.733433509789464,0,1,1,0.8284272091603617,1.8284272091603615,1.1715727908396385,3.0,1,1.5784272091603615,0,4.0,3.0,1,2,10,0,10,0,0,3,3,7,,,,,,,664.8759007919871,664.8759007919871,665.8906652499863,666.456953624991,666.6766930839804,666.6766930839804,666.6766930839804,667.8574479589879,667.8574479589879,667.8574479589879,667.8574479589879,668.8763261249987,200008,003,2023-04-14_10h56.03.730,DMS_et_12-36,2022.2.4,None,
98,PRED,12,0.8284272091603617,2,images/picture_3.png,images/picture_1.png,0,"[-11.733433509789466, -11.733433509789462]",-11.733433509789464,-11.733433509789462,images/picture_2.png,1,"[11.733433509789464, 11.733433509789462]",11.733433509789464,11.733433509789462,images/picture_3.png,2,"[-11.733433509789462, 11.733433509789464]",-11.733433509789462,11.733433509789464,0,1,1,0.8284272091603617,1.8284272091603615,1.1715727908396385,3.0,1,1.5784272091603615,0,4.0,3.0,1,2,10,0,10,0,0,4,4,8,,,,,,,668.8763261249987,668.8763261249987,669.8904693749791,670.4570877499937,670.6773308339762,670.6773308339762,670.6773308339762,671.8573411669931,671.8573411669931,671.8573411669931,671.8573411669931,672.8758959169791,200008,003,2023-04-14_10h56.03.730,DMS_et_12-36,2022.2.4,None,
96,PRED,12,0.8284272091603617,2,images/picture_3.png,images/picture_1.png,0,"[-11.733433509789462, 11.733433509789464]",-11.733433509789462,11.733433509789464,images/picture_2.png,1,"[-11.733433509789466, -11.733433509789462]",-11.733433509789464,-11.733433509789462,images/picture_3.png,2,"[11.733433509789464, 11.733433509789462]",11.733433509789464,11.733433509789462,0,1,1,0.8284272091603617,1.8284272091603615,1.1715727908396385,3.0,1,1.5784272091603615,0,4.0,3.0,1,2,10,0,10,0,0,5,5,6,,,,,,,672.8758959169791,672.8758959169791,673.8906475839904,674.4573362499941,674.6769642499858,674.6769642499858,674.6769642499858,675.8573424589995,675.8573424589995,675.8573424589995,675.8573424589995,676.8761767919932,200008,003,2023-04-14_10h56.03.730,DMS_et_12-36,2022.2.4,None,
91,PRED,12,0.8284272091603617,2,images/picture_3.png,images/picture_1.png,0,"[-11.733433509789462, 11.733433509789464]",-11.733433509789462,11.733433509789464,images/picture_2.png,1,"[-11.733433509789466, -11.733433509789462]",-11.733433509789464,-11.733433509789462,images/picture_3.png,2,"[11.733433509789462, -11.733433509789466]",11.733433509789462,-11.733433509789464,0,1,1,0.8284272091603617,1.8284272091603615,1.1715727908396385,3.0,1,1.5784272091603615,0,4.0,3.0,1,2,10,0,10,0,0,6,6,1,,,,,,,676.8761767919932,676.8761767919932,677.8906775419891,678.4569159169914,678.6769616249949,678.6769616249949,678.6769616249949,679.8569961249887,679.8569961249887,679.8569961249887,679.8569961249887,680.8763186669967,200008,003,2023-04-14_10h56.03.730,DMS_et_12-36,2022.2.4,None,
94,PRED,12,0.8284272091603617,2,images/picture_3.png,images/picture_1.png,0,"[11.733433509789462, -11.733433509789466]",11.733433509789462,-11.733433509789464,images/picture_2.png,1,"[11.733433509789464, 11.733433509789462]",11.733433509789464,11.733433509789462,images/picture_3.png,2,"[-11.733433509789466, -11.733433509789462]",-11.733433509789464,-11.733433509789462,0,1,1,0.8284272091603617,1.8284272091603615,1.1715727908396385,3.0,1,1.5784272091603615,0,4.0,3.0,1,2,10,0,10,0,0,7,7,4,,,,,,,680.8763186669967,680.8763186669967,681.8906363749993,682.4573827089916,682.6768906669749,682.6768906669749,682.6768906669749,683.8574246669887,683.8574246669887,683.8574246669887,683.8574246669887,684.8760925839888,200008,003,2023-04-14_10h56.03.730,DMS_et_12-36,2022.2.4,None,
92,PRED,12,0.8284272091603617,2,images/picture_3.png,images/picture_1.png,0,"[11.733433509789462, -11.733433509789466]",11.733433509789462,-11.733433509789464,images/picture_2.png,1,"[11.733433509789464, 11.733433509789462]",11.733433509789464,11.733433509789462,images/picture_3.png,2,"[-11.733433509789466, -11.733433509789462]",-11.733433509789464,-11.733433509789462,0,1,1,0.8284272091603617,1.8284272091603615,1.1715727908396385,3.0,1,1.5784272091603615,0,4.0,3.0,1,2,10,0,10,0,0,8,8,2,,,,,,,684.8760925839888,684.8760925839888,685.890663541999,686.4573403339891,686.6770786249836,686.6770786249836,686.6770786249836,687.8573754589888,687.8573754589888,687.8573754589888,687.8573754589888,688.9677432089811,200008,003,2023-04-14_10h56.03.730,DMS_et_12-36,2022.2.4,None,
,,,,,,,,,,,,,,,,,,,,,,,,,,,,,,,,,,,10,0,10,0,,,,,,,,,688.9677432089811,700.983669166977,,,,,,,,,,,,,200008,003,2023-04-14_10h56.03.730,DMS_et_12-36,2022.2.4,None,
105,UNPRED,12,0.8284272091603617,1,images/picture_2.png,images/picture_1.png,0,"[11.733433509789462, -11.733433509789466]",11.733433509789462,-11.733433509789464,images/picture_2.png,1,"[-11.733433509789466, -11.733433509789462]",-11.733433509789464,-11.733433509789462,images/picture_3.png,2,"[-11.733433509789462, 11.733433509789464]",-11.733433509789462,11.733433509789464,0,1,1,0.8284272091603617,1.8284272091603615,1.1715727908396385,3.0,1,1.5784272091603615,0,4.0,3.0,1,2,11,0,11,0,0,0,0,6,,,,,,,700.983669166977,700.983669166977,701.9909478749905,702.5768084589799,702.8108140839904,702.8108140839904,702.8108140839904,703.9906188749883,703.9906188749883,703.9906188749883,703.9769595839898,705.0094217919977,200008,003,2023-04-14_10h56.03.730,DMS_et_12-36,2022.2.4,None,
103,UNPRED,12,0.8284272091603617,2,images/picture_3.png,images/picture_1.png,0,"[-11.733433509789466, -11.733433509789462]",-11.733433509789464,-11.733433509789462,images/picture_2.png,1,"[11.733433509789462, -11.733433509789466]",11.733433509789462,-11.733433509789464,images/picture_3.png,2,"[11.733433509789464, 11.733433509789462]",11.733433509789464,11.733433509789462,0,1,1,0.8284272091603617,1.8284272091603615,1.1715727908396385,3.0,1,1.5784272091603615,0,4.0,3.0,1,2,11,0,11,0,0,1,1,4,,,,,,,705.0094217919977,705.0094217919977,706.0238739999768,706.5906376669882,706.8107800419966,706.8107800419966,706.8107800419966,707.990847249981,707.990847249981,707.990847249981,707.990847249981,709.009321458987,200008,003,2023-04-14_10h56.03.730,DMS_et_12-36,2022.2.4,None,
106,UNPRED,12,0.8284272091603617,2,images/picture_3.png,images/picture_1.png,0,"[-11.733433509789466, -11.733433509789462]",-11.733433509789464,-11.733433509789462,images/picture_2.png,1,"[11.733433509789462, -11.733433509789466]",11.733433509789462,-11.733433509789464,images/picture_3.png,2,"[-11.733433509789462, 11.733433509789464]",-11.733433509789462,11.733433509789464,0,1,1,0.8284272091603617,1.8284272091603615,1.1715727908396385,3.0,1,1.5784272091603615,0,4.0,3.0,1,2,11,0,11,0,0,2,2,7,,,,,,,709.009321458987,709.009321458987,710.0241185419727,710.5903733339801,710.8090214169933,710.8090214169933,710.8090214169933,711.9906556249771,711.9906556249771,711.9906556249771,711.9906556249771,712.9904892499908,200008,003,2023-04-14_10h56.03.730,DMS_et_12-36,2022.2.4,None,
99,UNPRED,12,0.8284272091603617,0,images/picture_1.png,images/picture_1.png,0,"[-11.733433509789462, 11.733433509789464]",-11.733433509789462,11.733433509789464,images/picture_2.png,1,"[11.733433509789462, -11.733433509789466]",11.733433509789462,-11.733433509789464,images/picture_3.png,2,"[11.733433509789464, 11.733433509789462]",11.733433509789464,11.733433509789462,0,1,1,0.8284272091603617,1.8284272091603615,1.1715727908396385,3.0,1,1.5784272091603615,0,4.0,3.0,1,2,11,0,11,0,0,3,3,0,,,,,,,712.9904892499908,712.9904892499908,713.9908135419828,714.5766274999769,714.8100396249793,714.8100396249793,714.8100396249793,715.9908248749853,715.9908248749853,715.9908248749853,715.9908248749853,716.9898570419755,200008,003,2023-04-14_10h56.03.730,DMS_et_12-36,2022.2.4,None,
101,UNPRED,12,0.8284272091603617,1,images/picture_2.png,images/picture_1.png,0,"[11.733433509789464, 11.733433509789462]",11.733433509789464,11.733433509789462,images/picture_2.png,1,"[-11.733433509789466, -11.733433509789462]",-11.733433509789464,-11.733433509789462,images/picture_3.png,2,"[11.733433509789462, -11.733433509789466]",11.733433509789462,-11.733433509789464,0,1,1,0.8284272091603617,1.8284272091603615,1.1715727908396385,3.0,1,1.5784272091603615,0,4.0,3.0,1,2,11,0,11,0,0,4,4,2,,,,,,,716.9898570419755,716.9898570419755,717.9907166249759,718.5766017089773,718.8102729169768,718.8102729169768,718.8102729169768,719.990844999993,719.990844999993,719.990844999993,719.990844999993,721.0102973339963,200008,003,2023-04-14_10h56.03.730,DMS_et_12-36,2022.2.4,None,
104,UNPRED,12,0.8284272091603617,2,images/picture_3.png,images/picture_1.png,0,"[-11.733433509789466, -11.733433509789462]",-11.733433509789464,-11.733433509789462,images/picture_2.png,1,"[11.733433509789464, 11.733433509789462]",11.733433509789464,11.733433509789462,images/picture_3.png,2,"[-11.733433509789462, 11.733433509789464]",-11.733433509789462,11.733433509789464,0,1,1,0.8284272091603617,1.8284272091603615,1.1715727908396385,3.0,1,1.5784272091603615,0,4.0,3.0,1,2,11,0,11,0,0,5,5,5,,,,,,,721.0102973339963,721.0102973339963,722.0241717089957,722.5908103339898,722.8103036669781,722.8103036669781,722.8103036669781,723.9907988339837,723.9907988339837,723.9907988339837,723.9907988339837,725.0095817499969,200008,003,2023-04-14_10h56.03.730,DMS_et_12-36,2022.2.4,None,
102,UNPRED,12,0.8284272091603617,2,images/picture_3.png,images/picture_1.png,0,"[11.733433509789462, -11.733433509789466]",11.733433509789462,-11.733433509789464,images/picture_2.png,1,"[-11.733433509789466, -11.733433509789462]",-11.733433509789464,-11.733433509789462,images/picture_3.png,2,"[11.733433509789464, 11.733433509789462]",11.733433509789464,11.733433509789462,0,1,1,0.8284272091603617,1.8284272091603615,1.1715727908396385,3.0,1,1.5784272091603615,0,4.0,3.0,1,2,11,0,11,0,0,6,6,3,,,,,,,725.0095817499969,725.0095817499969,726.024057749979,726.5908064169926,726.8101315419772,726.8101315419772,726.8101315419772,727.9906510419969,727.9906510419969,727.9906510419969,727.9906510419969,729.0095905839989,200008,003,2023-04-14_10h56.03.730,DMS_et_12-36,2022.2.4,None,
107,UNPRED,12,0.8284272091603617,2,images/picture_3.png,images/picture_1.png,0,"[11.733433509789462, -11.733433509789466]",11.733433509789462,-11.733433509789464,images/picture_2.png,1,"[11.733433509789464, 11.733433509789462]",11.733433509789464,11.733433509789462,images/picture_3.png,2,"[-11.733433509789462, 11.733433509789464]",-11.733433509789462,11.733433509789464,0,1,1,0.8284272091603617,1.8284272091603615,1.1715727908396385,3.0,1,1.5784272091603615,0,4.0,3.0,1,2,11,0,11,0,0,7,7,8,,,,,,,729.0095905839989,729.0095905839989,730.0240951669984,730.590580249991,730.8240593749797,730.8240593749797,730.8240593749797,732.0098927919753,732.0098927919753,732.0098927919753,731.9905255419726,733.0102189169847,200008,003,2023-04-14_10h56.03.730,DMS_et_12-36,2022.2.4,None,
100,UNPRED,12,0.8284272091603617,1,images/picture_2.png,images/picture_1.png,0,"[-11.733433509789466, -11.733433509789462]",-11.733433509789464,-11.733433509789462,images/picture_2.png,1,"[11.733433509789464, 11.733433509789462]",11.733433509789464,11.733433509789462,images/picture_3.png,2,"[-11.733433509789462, 11.733433509789464]",-11.733433509789462,11.733433509789464,0,1,1,0.8284272091603617,1.8284272091603615,1.1715727908396385,3.0,1,1.5784272091603615,0,4.0,3.0,1,2,11,0,11,0,0,8,8,1,,,,,,,733.0102189169847,733.0102189169847,734.0241246669902,734.5908826669911,734.810810749972,734.810810749972,734.810810749972,735.9908448339847,735.9908448339847,735.9908448339847,735.9908448339847,737.1577900839911,200008,003,2023-04-14_10h56.03.730,DMS_et_12-36,2022.2.4,None,
,,,,,,,,,,,,,,,,,,,,,,,,,,,,,,,,,,,11,0,11,0,,,,,,,,,737.1577900839911,749.2863274999836,,,,,,,,,,,,,200008,003,2023-04-14_10h56.03.730,DMS_et_12-36,2022.2.4,None,
,,,,,,,,,,,,,,,,,,,,,,,,,,,,,,,,,,,,,,,,,,,,,,,749.2863274999836,761.8012261669792,,,,,,,,,,,,,,,,,,,
