trial_count,blockType,blockNum,delay_time,stimImage_i,stimImage,responseImage1,responseImage1_i,responseImage1_pos,responseImage1_X,responseImage1_Y,responseImage2,responseImage2_i,responseImage2_pos,responseImage2_X,responseImage2_Y,responseImage3,responseImage3_i,responseImage3_pos,responseImage3_X,responseImage3_Y,cue_onset,cue_dur,delay_onset,delay_dur,resp_onset,resp_dur,rest_onset,rest_dur,circle_dur,circle_onset,total_dur,cross_onset,cross_dur,delay_resp_period,blocks.thisRepN,blocks.thisTrialN,blocks.thisN,blocks.thisIndex,trials.thisRepN,trials.thisTrialN,trials.thisN,trials.thisIndex,key_resp.started,text.started,key_resp.keys,key_resp.rt,text_2.started,text_2.stopped,etRecord.started,sample.started,Delay.started,sample.stopped,Response_1.started,Response_2.started,Response_3.started,Delay.stopped,Response_1.stopped,Response_2.stopped,Response_3.stopped,polygon.started,polygon.stopped,etRecord.stopped,participant,session,date,expName,psychopyVersion,frameRate,
,,,,,,,,,,,,,,,,,,,,,,,,,,,,,,,,,,,,,,,,,,,102.65223295800388,102.65223295800388,t,56.02237104193773,,,,,,,,,,,,,,,,,200003,003,2023-03-22_13h14.09.070,DMS_et_12-36,2022.2.4,None,
5,PRED,12,0.6327428318759004,0,images/picture_1.png,images/picture_1.png,0,"[11.733433509789464, 11.733433509789462]",11.733433509789464,11.733433509789462,images/picture_2.png,1,"[-11.733433509789462, 11.733433509789464]",-11.733433509789462,11.733433509789464,images/picture_3.png,2,"[11.733433509789462, -11.733433509789466]",11.733433509789462,-11.733433509789464,0,1,1,0.6327428318759004,1.6327428318759003,1.3672571681240997,3.0,1,1.3827428318759003,0,4.0,3.0,1,2,0,0,0,0,0,0,0,5,,,,,158.68907454202417,171.2511397920316,0.005645958008244634,171.2511397920316,171.2511397920316,172.25528558297083,172.3699996669311,172.3699996669311,172.3699996669311,172.63667000003625,173.73688179196324,173.73688179196324,173.73688179196324,173.73688179196324,174.73687654198147,4.512248917017132,200003,003,2023-03-22_13h14.09.070,DMS_et_12-36,2022.2.4,None,
1,PRED,12,0.6327428318759004,0,images/picture_1.png,images/picture_1.png,0,"[11.733433509789464, 11.733433509789462]",11.733433509789464,11.733433509789462,images/picture_2.png,1,"[11.733433509789462, -11.733433509789466]",11.733433509789462,-11.733433509789464,images/picture_3.png,2,"[-11.733433509789462, 11.733433509789464]",-11.733433509789462,11.733433509789464,0,1,1,0.6327428318759004,1.6327428318759003,1.3672571681240997,3.0,1,1.3827428318759003,0,4.0,3.0,1,2,0,0,0,0,0,1,1,1,,,,,,,0.003895374946296215,176.2583080419572,176.2583080419572,177.27015091700014,177.39011779194698,177.39011779194698,177.39011779194698,177.65627129201312,178.77040999999736,178.77040999999736,178.77040999999736,178.7564317919314,179.7700732080266,4.513514874968678,200003,003,2023-03-22_13h14.09.070,DMS_et_12-36,2022.2.4,None,
0,PRED,12,0.6327428318759004,0,images/picture_1.png,images/picture_1.png,0,"[11.733433509789464, 11.733433509789462]",11.733433509789464,11.733433509789462,images/picture_2.png,1,"[-11.733433509789466, -11.733433509789462]",-11.733433509789464,-11.733433509789462,images/picture_3.png,2,"[11.733433509789462, -11.733433509789466]",11.733433509789462,-11.733433509789464,0,1,1,0.6327428318759004,1.6327428318759003,1.3672571681240997,3.0,1,1.3827428318759003,0,4.0,3.0,1,2,0,0,0,0,0,2,2,0,,,,,,,0.004303124966099858,181.28692716697697,181.28692716697697,182.28992825001478,182.40331249998417,182.40331249998417,182.40331249998417,182.67013216693886,183.770311166998,183.770311166998,183.770311166998,183.770311166998,184.77033312502317,4.506613333011046,200003,003,2023-03-22_13h14.09.070,DMS_et_12-36,2022.2.4,None,
8,PRED,12,0.6327428318759004,0,images/picture_1.png,images/picture_1.png,0,"[11.733433509789464, 11.733433509789462]",11.733433509789464,11.733433509789462,images/picture_2.png,1,"[-11.733433509789462, 11.733433509789464]",-11.733433509789462,11.733433509789464,images/picture_3.png,2,"[-11.733433509789466, -11.733433509789462]",-11.733433509789464,-11.733433509789462,0,1,1,0.6327428318759004,1.6327428318759003,1.3672571681240997,3.0,1,1.3827428318759003,0,4.0,3.0,1,2,0,0,0,0,0,3,3,8,,,,,,,0.003577832947485149,186.30343870795332,186.30343870795332,187.30366820795462,187.4231504999334,187.4231504999334,187.4231504999334,187.68983749998733,188.80362862499896,188.80362862499896,188.80362862499896,188.790077041951,189.80383816699032,4.507901791948825,200003,003,2023-03-22_13h14.09.070,DMS_et_12-36,2022.2.4,None,
3,PRED,12,0.6327428318759004,0,images/picture_1.png,images/picture_1.png,0,"[-11.733433509789462, 11.733433509789464]",-11.733433509789462,11.733433509789464,images/picture_2.png,1,"[11.733433509789462, -11.733433509789466]",11.733433509789462,-11.733433509789464,images/picture_3.png,2,"[-11.733433509789466, -11.733433509789462]",-11.733433509789464,-11.733433509789462,0,1,1,0.6327428318759004,1.6327428318759003,1.3672571681240997,3.0,1,1.3827428318759003,0,4.0,3.0,1,2,0,0,0,0,0,4,4,3,,,,,,,0.005152249941602349,191.31439962494187,191.31439962494187,192.32233779202215,192.43666816700716,192.43666816700716,192.43666816700716,192.70333429193124,193.80361379194073,193.80361379194073,193.80361379194073,193.80361379194073,194.80382129200734,4.505848624976352,200003,003,2023-03-22_13h14.09.070,DMS_et_12-36,2022.2.4,None,
2,PRED,12,0.6327428318759004,0,images/picture_1.png,images/picture_1.png,0,"[-11.733433509789466, -11.733433509789462]",-11.733433509789464,-11.733433509789462,images/picture_2.png,1,"[11.733433509789464, 11.733433509789462]",11.733433509789464,11.733433509789462,images/picture_3.png,2,"[-11.733433509789462, 11.733433509789464]",-11.733433509789462,11.733433509789464,0,1,1,0.6327428318759004,1.6327428318759003,1.3672571681240997,3.0,1,1.3827428318759003,0,4.0,3.0,1,2,0,0,0,0,0,5,5,2,,,,,,,0.004959916928783059,196.33415129198693,196.33415129198693,197.3371409169631,197.45637962501496,197.45637962501496,197.45637962501496,197.72222266695462,198.83692087500822,198.83692087500822,198.83692087500822,198.82345195801463,199.83697054197546,4.512600417016074,200003,003,2023-03-22_13h14.09.070,DMS_et_12-36,2022.2.4,None,
6,PRED,12,0.6327428318759004,0,images/picture_1.png,images/picture_1.png,0,"[11.733433509789462, -11.733433509789466]",11.733433509789462,-11.733433509789464,images/picture_2.png,1,"[-11.733433509789462, 11.733433509789464]",-11.733433509789462,11.733433509789464,images/picture_3.png,2,"[-11.733433509789466, -11.733433509789462]",-11.733433509789464,-11.733433509789462,0,1,1,0.6327428318759004,1.6327428318759003,1.3672571681240997,3.0,1,1.3827428318759003,0,4.0,3.0,1,2,0,0,0,0,0,6,6,6,,,,,,,0.003787167021073401,201.35539466701448,201.35539466701448,202.37038095796015,202.47038091695867,202.47038091695867,202.47038091695867,202.73670095799025,203.8369229999371,203.8369229999371,203.8369229999371,203.8369229999371,204.8369433330372,4.520937707973644,200003,003,2023-03-22_13h14.09.070,DMS_et_12-36,2022.2.4,None,
7,PRED,12,0.6327428318759004,0,images/picture_1.png,images/picture_1.png,0,"[-11.733433509789466, -11.733433509789462]",-11.733433509789464,-11.733433509789462,images/picture_2.png,1,"[11.733433509789464, 11.733433509789462]",11.733433509789464,11.733433509789462,images/picture_3.png,2,"[-11.733433509789462, 11.733433509789464]",-11.733433509789462,11.733433509789464,0,1,1,0.6327428318759004,1.6327428318759003,1.3672571681240997,3.0,1,1.3827428318759003,0,4.0,3.0,1,2,0,0,0,0,0,7,7,7,,,,,,,0.004933792049996555,206.38247258297633,206.38247258297633,207.38980041700415,207.50324808293954,207.50324808293954,207.50324808293954,207.77005858300254,208.87038608302828,208.87038608302828,208.87038608302828,208.87038608302828,209.8703919579275,4.50603916705586,200003,003,2023-03-22_13h14.09.070,DMS_et_12-36,2022.2.4,None,
4,PRED,12,0.6327428318759004,0,images/picture_1.png,images/picture_1.png,0,"[11.733433509789464, 11.733433509789462]",11.733433509789464,11.733433509789462,images/picture_2.png,1,"[-11.733433509789466, -11.733433509789462]",-11.733433509789464,-11.733433509789462,images/picture_3.png,2,"[11.733433509789462, -11.733433509789466]",11.733433509789462,-11.733433509789464,0,1,1,0.6327428318759004,1.6327428318759003,1.3672571681240997,3.0,1,1.3827428318759003,0,4.0,3.0,1,2,0,0,0,0,0,8,8,4,,,,,,,0.00514033401850611,211.40333762497175,211.40333762497175,212.40356174996123,212.5230384169845,212.5230384169845,212.5230384169845,212.78964758303482,213.9034687919775,213.9034687919775,213.9034687919775,213.8890058749821,214.90364466700703,4.509669209015556,200003,003,2023-03-22_13h14.09.070,DMS_et_12-36,2022.2.4,None,
,,,,,,,,,,,,,,,,,,,,,,,,,,,,,,,,,,,0,0,0,0,,,,,,,,,215.94408074999228,228.48205341701396,,,,,,,,,,,,,,,200003,003,2023-03-22_13h14.09.070,DMS_et_12-36,2022.2.4,None,
16,UNPRED,12,0.6327428318759004,1,images/picture_2.png,images/picture_1.png,0,"[-11.733433509789466, -11.733433509789462]",-11.733433509789464,-11.733433509789462,images/picture_2.png,1,"[-11.733433509789462, 11.733433509789464]",-11.733433509789462,11.733433509789464,images/picture_3.png,2,"[11.733433509789462, -11.733433509789466]",11.733433509789462,-11.733433509789464,0,1,1,0.6327428318759004,1.6327428318759003,1.3672571681240997,3.0,1,1.3827428318759003,0,4.0,3.0,1,2,1,0,1,0,0,0,0,7,,,,,,,0.0049758750246837735,228.48205341701396,228.48205341701396,229.48985350003932,229.60377020796295,229.60377020796295,229.60377020796295,229.8704593749717,230.9703742499696,230.9703742499696,230.9703742499696,230.9703742499696,231.97043212503195,4.507364792050794,200003,003,2023-03-22_13h14.09.070,DMS_et_12-36,2022.2.4,None,
14,UNPRED,12,0.6327428318759004,0,images/picture_1.png,images/picture_1.png,0,"[11.733433509789464, 11.733433509789462]",11.733433509789464,11.733433509789462,images/picture_2.png,1,"[11.733433509789462, -11.733433509789466]",11.733433509789462,-11.733433509789464,images/picture_3.png,2,"[-11.733433509789466, -11.733433509789462]",-11.733433509789464,-11.733433509789462,0,1,1,0.6327428318759004,1.6327428318759003,1.3672571681240997,3.0,1,1.3827428318759003,0,4.0,3.0,1,2,1,0,1,0,0,1,1,5,,,,,,,0.0059642919804900885,233.49478204199113,233.49478204199113,234.50368941703346,234.62224499997683,234.62224499997683,234.62224499997683,234.8892049579881,236.00356570794247,236.00356570794247,236.00356570794247,235.98934258299414,237.00365224992856,4.511337584001012,200003,003,2023-03-22_13h14.09.070,DMS_et_12-36,2022.2.4,None,
11,UNPRED,12,0.6327428318759004,0,images/picture_1.png,images/picture_1.png,0,"[11.733433509789462, -11.733433509789466]",11.733433509789462,-11.733433509789464,images/picture_2.png,1,"[11.733433509789464, 11.733433509789462]",11.733433509789464,11.733433509789462,images/picture_3.png,2,"[-11.733433509789462, 11.733433509789464]",-11.733433509789462,11.733433509789464,0,1,1,0.6327428318759004,1.6327428318759003,1.3672571681240997,3.0,1,1.3827428318759003,0,4.0,3.0,1,2,1,0,1,0,0,2,2,2,,,,,,,0.0043169999262318015,238.5230556250317,238.5230556250317,239.5367693749722,239.63703670795076,239.63703670795076,239.63703670795076,239.90335874992888,241.0036719579948,241.0036719579948,241.0036719579948,241.0036719579948,242.00365829200018,4.526409999933094,200003,003,2023-03-22_13h14.09.070,DMS_et_12-36,2022.2.4,None,
12,UNPRED,12,0.6327428318759004,0,images/picture_1.png,images/picture_1.png,0,"[-11.733433509789462, 11.733433509789464]",-11.733433509789462,11.733433509789464,images/picture_2.png,1,"[11.733433509789462, -11.733433509789466]",11.733433509789462,-11.733433509789464,images/picture_3.png,2,"[11.733433509789464, 11.733433509789462]",11.733433509789464,11.733433509789462,0,1,1,0.6327428318759004,1.6327428318759003,1.3672571681240997,3.0,1,1.3827428318759003,0,4.0,3.0,1,2,1,0,1,0,0,3,3,3,,,,,,,0.003765458008274436,243.56433458300307,243.56433458300307,244.5701183329802,244.6702169169439,244.6702169169439,244.6702169169439,244.95583691704087,246.037096541957,246.037096541957,246.037096541957,246.037096541957,247.03719345794525,4.519514457904734,200003,003,2023-03-22_13h14.09.070,DMS_et_12-36,2022.2.4,None,
9,UNPRED,12,0.6327428318759004,0,images/picture_1.png,images/picture_1.png,0,"[11.733433509789462, -11.733433509789466]",11.733433509789462,-11.733433509789464,images/picture_2.png,1,"[11.733433509789464, 11.733433509789462]",11.733433509789464,11.733433509789462,images/picture_3.png,2,"[-11.733433509789462, 11.733433509789464]",-11.733433509789462,11.733433509789464,0,1,1,0.6327428318759004,1.6327428318759003,1.3672571681240997,3.0,1,1.3827428318759003,0,4.0,3.0,1,2,1,0,1,0,0,4,4,0,,,,,,,0.004116249969229102,248.58518295793328,248.58518295793328,249.58999062504154,249.70364945800975,249.70364945800975,249.70364945800975,249.97059758298565,251.0704319999786,251.0704319999786,251.0704319999786,251.0704319999786,252.0701891669305,4.505352166015655,200003,003,2023-03-22_13h14.09.070,DMS_et_12-36,2022.2.4,None,
15,UNPRED,12,0.6327428318759004,2,images/picture_3.png,images/picture_1.png,0,"[11.733433509789462, -11.733433509789466]",11.733433509789462,-11.733433509789464,images/picture_2.png,1,"[11.733433509789464, 11.733433509789462]",11.733433509789464,11.733433509789462,images/picture_3.png,2,"[-11.733433509789466, -11.733433509789462]",-11.733433509789464,-11.733433509789462,0,1,1,0.6327428318759004,1.6327428318759003,1.3672571681240997,3.0,1,1.3827428318759003,0,4.0,3.0,1,2,1,0,1,0,0,5,5,6,,,,,,,0.02887945796828717,253.63008904200979,253.63008904200979,254.63682720798533,254.72254991694354,254.72254991694354,254.72254991694354,255.02268279204145,256.1038650419796,256.1038650419796,256.1038650419796,256.09057333297096,257.1038639580365,4.545577249955386,200003,003,2023-03-22_13h14.09.070,DMS_et_12-36,2022.2.4,None,
17,UNPRED,12,0.6327428318759004,1,images/picture_2.png,images/picture_1.png,0,"[11.733433509789462, -11.733433509789466]",11.733433509789462,-11.733433509789464,images/picture_2.png,1,"[11.733433509789464, 11.733433509789462]",11.733433509789464,11.733433509789462,images/picture_3.png,2,"[-11.733433509789462, 11.733433509789464]",-11.733433509789462,11.733433509789464,0,1,1,0.6327428318759004,1.6327428318759003,1.3672571681240997,3.0,1,1.3827428318759003,0,4.0,3.0,1,2,1,0,1,0,0,6,6,8,,,,,,,0.00945612508803606,258.66423941694666,258.66423941694666,259.6704068329418,259.7703652919736,259.7703652919736,259.7703652919736,260.05665862502065,261.13718708301894,261.13718708301894,261.13718708301894,261.13718708301894,262.13713008293416,4.519401042023674,200003,003,2023-03-22_13h14.09.070,DMS_et_12-36,2022.2.4,None,
13,UNPRED,12,0.6327428318759004,2,images/picture_3.png,images/picture_1.png,0,"[11.733433509789462, -11.733433509789466]",11.733433509789462,-11.733433509789464,images/picture_2.png,1,"[-11.733433509789462, 11.733433509789464]",-11.733433509789462,11.733433509789464,images/picture_3.png,2,"[-11.733433509789466, -11.733433509789462]",-11.733433509789464,-11.733433509789462,0,1,1,0.6327428318759004,1.6327428318759003,1.3672571681240997,3.0,1,1.3827428318759003,0,4.0,3.0,1,2,1,0,1,0,0,7,7,4,,,,,,,0.0243855839362368,263.70625487493817,263.70625487493817,264.7036425829865,264.8037934580352,264.8037934580352,264.8037934580352,265.1033617500216,266.1703775830101,266.1703775830101,266.1703775830101,266.1703775830101,267.17040570802055,4.525673791998997,200003,003,2023-03-22_13h14.09.070,DMS_et_12-36,2022.2.4,None,
10,UNPRED,12,0.6327428318759004,0,images/picture_1.png,images/picture_1.png,0,"[-11.733433509789466, -11.733433509789462]",-11.733433509789464,-11.733433509789462,images/picture_2.png,1,"[11.733433509789464, 11.733433509789462]",11.733433509789464,11.733433509789462,images/picture_3.png,2,"[-11.733433509789462, 11.733433509789464]",-11.733433509789462,11.733433509789464,0,1,1,0.6327428318759004,1.6327428318759003,1.3672571681240997,3.0,1,1.3827428318759003,0,4.0,3.0,1,2,1,0,1,0,0,8,8,1,,,,,,,0.006148541928268969,268.72566058300436,268.72566058300436,269.73713212495204,269.8371528330026,269.8371528330026,269.8371528330026,270.1234482920263,271.2035261669662,271.2035261669662,271.2035261669662,271.2035261669662,272.20360591693316,4.520604166900739,200003,003,2023-03-22_13h14.09.070,DMS_et_12-36,2022.2.4,None,
,,,,,,,,,,,,,,,,,,,,,,,,,,,,,,,,,,,1,0,1,0,,,,,,,,,273.2898001249414,285.82088145799935,,,,,,,,,,,,,,,200003,003,2023-03-22_13h14.09.070,DMS_et_12-36,2022.2.4,None,
21,PRED,12,0.6327428318759004,2,images/picture_3.png,images/picture_1.png,0,"[11.733433509789462, -11.733433509789466]",11.733433509789462,-11.733433509789464,images/picture_2.png,1,"[-11.733433509789462, 11.733433509789464]",-11.733433509789462,11.733433509789464,images/picture_3.png,2,"[-11.733433509789466, -11.733433509789462]",-11.733433509789464,-11.733433509789462,0,1,1,0.6327428318759004,1.6327428318759003,1.3672571681240997,3.0,1,1.3827428318759003,0,4.0,3.0,1,2,2,0,2,0,0,0,0,3,,,,,,,0.008811666979454458,285.82088145799935,285.82088145799935,286.82257624994963,286.93731554201804,286.93731554201804,286.93731554201804,287.2038580829976,288.3038289169781,288.3038289169781,288.3038289169781,288.3038289169781,289.3038962499704,4.501399417058565,200003,003,2023-03-22_13h14.09.070,DMS_et_12-36,2022.2.4,None,
19,PRED,12,0.6327428318759004,2,images/picture_3.png,images/picture_1.png,0,"[-11.733433509789466, -11.733433509789462]",-11.733433509789464,-11.733433509789462,images/picture_2.png,1,"[-11.733433509789462, 11.733433509789464]",-11.733433509789462,11.733433509789464,images/picture_3.png,2,"[11.733433509789464, 11.733433509789462]",11.733433509789464,11.733433509789462,0,1,1,0.6327428318759004,1.6327428318759003,1.3672571681240997,3.0,1,1.3827428318759003,0,4.0,3.0,1,2,2,0,2,0,0,1,1,1,,,,,,,0.01141166698653251,290.83799845795147,290.83799845795147,291.83727741695475,291.95607579196803,291.95607579196803,291.95607579196803,292.2230155420257,293.3374183749547,293.3374183749547,293.3374183749547,293.3225216669962,294.33692454197444,4.511776875006035,200003,003,2023-03-22_13h14.09.070,DMS_et_12-36,2022.2.4,None,
18,PRED,12,0.6327428318759004,2,images/picture_3.png,images/picture_1.png,0,"[-11.733433509789462, 11.733433509789464]",-11.733433509789462,11.733433509789464,images/picture_2.png,1,"[11.733433509789462, -11.733433509789466]",11.733433509789462,-11.733433509789464,images/picture_3.png,2,"[11.733433509789464, 11.733433509789462]",11.733433509789464,11.733433509789462,0,1,1,0.6327428318759004,1.6327428318759003,1.3672571681240997,3.0,1,1.3827428318759003,0,4.0,3.0,1,2,2,0,2,0,0,2,2,0,,,,,,,0.015041291946545243,295.8639946669573,295.8639946669573,296.8704110420076,296.9706150830025,296.9706150830025,296.9706150830025,297.25618841696996,298.33722737501375,298.33722737501375,298.33722737501375,298.33722737501375,299.337187541998,4.521814416977577,200003,003,2023-03-22_13h14.09.070,DMS_et_12-36,2022.2.4,None,
22,PRED,12,0.6327428318759004,2,images/picture_3.png,images/picture_1.png,0,"[11.733433509789462, -11.733433509789466]",11.733433509789462,-11.733433509789464,images/picture_2.png,1,"[-11.733433509789462, 11.733433509789464]",-11.733433509789462,11.733433509789464,images/picture_3.png,2,"[-11.733433509789466, -11.733433509789462]",-11.733433509789464,-11.733433509789462,0,1,1,0.6327428318759004,1.6327428318759003,1.3672571681240997,3.0,1,1.3827428318759003,0,4.0,3.0,1,2,2,0,2,0,0,3,3,4,,,,,,,0.020041541079990566,300.89777387504,300.89777387504,301.903931458015,302.0039178329753,302.0039178329753,302.0039178329753,302.2898315419443,303.3707762080012,303.3707762080012,303.3707762080012,303.3707762080012,304.37076162500307,4.525648624985479,200003,003,2023-03-22_13h14.09.070,DMS_et_12-36,2022.2.4,None,
20,PRED,12,0.6327428318759004,2,images/picture_3.png,images/picture_1.png,0,"[11.733433509789462, -11.733433509789466]",11.733433509789462,-11.733433509789464,images/picture_2.png,1,"[11.733433509789464, 11.733433509789462]",11.733433509789464,11.733433509789462,images/picture_3.png,2,"[-11.733433509789462, 11.733433509789464]",-11.733433509789462,11.733433509789464,0,1,1,0.6327428318759004,1.6327428318759003,1.3672571681240997,3.0,1,1.3827428318759003,0,4.0,3.0,1,2,2,0,2,0,0,4,4,2,,,,,,,0.020677875028923154,305.9336752500385,305.9336752500385,306.9372472920222,307.037221333012,307.037221333012,307.037221333012,307.3233875830192,308.4039485419635,308.4039485419635,308.4039485419635,308.4039485419635,309.40396975004114,4.524976750020869,200003,003,2023-03-22_13h14.09.070,DMS_et_12-36,2022.2.4,None,
24,PRED,12,0.6327428318759004,2,images/picture_3.png,images/picture_1.png,0,"[11.733433509789462, -11.733433509789466]",11.733433509789462,-11.733433509789464,images/picture_2.png,1,"[-11.733433509789462, 11.733433509789464]",-11.733433509789462,11.733433509789464,images/picture_3.png,2,"[11.733433509789464, 11.733433509789462]",11.733433509789464,11.733433509789462,0,1,1,0.6327428318759004,1.6327428318759003,1.3672571681240997,3.0,1,1.3827428318759003,0,4.0,3.0,1,2,2,0,2,0,0,5,5,6,,,,,,,0.0185803750064224,310.97173037496395,310.97173037496395,311.9707028330304,312.07053512497805,312.07053512497805,312.07053512497805,312.35663383302744,313.4374211670365,313.4374211670365,313.4374211670365,313.4374211670365,314.4373634579824,4.521096290904097,200003,003,2023-03-22_13h14.09.070,DMS_et_12-36,2022.2.4,None,
23,PRED,12,0.6327428318759004,2,images/picture_3.png,images/picture_1.png,0,"[-11.733433509789462, 11.733433509789464]",-11.733433509789462,11.733433509789464,images/picture_2.png,1,"[11.733433509789464, 11.733433509789462]",11.733433509789464,11.733433509789462,images/picture_3.png,2,"[-11.733433509789466, -11.733433509789462]",-11.733433509789464,-11.733433509789462,0,1,1,0.6327428318759004,1.6327428318759003,1.3672571681240997,3.0,1,1.3827428318759003,0,4.0,3.0,1,2,2,0,2,0,0,6,6,5,,,,,,,0.02180658292490989,315.9981376249343,315.9981376249343,317.00364829204045,317.1037049170118,317.1037049170118,317.1037049170118,317.38982916693203,318.4706983329961,318.4706983329961,318.4706983329961,318.4706983329961,319.47079612500966,4.525571250007488,200003,003,2023-03-22_13h14.09.070,DMS_et_12-36,2022.2.4,None,
25,PRED,12,0.6327428318759004,2,images/picture_3.png,images/picture_1.png,0,"[11.733433509789462, -11.733433509789466]",11.733433509789462,-11.733433509789464,images/picture_2.png,1,"[-11.733433509789466, -11.733433509789462]",-11.733433509789464,-11.733433509789462,images/picture_3.png,2,"[-11.733433509789462, 11.733433509789464]",-11.733433509789462,11.733433509789464,0,1,1,0.6327428318759004,1.6327428318759003,1.3672571681240997,3.0,1,1.3827428318759003,0,4.0,3.0,1,2,2,0,2,0,0,7,7,7,,,,,,,0.022750957985408604,321.0400171249639,321.0400171249639,322.03750487498473,322.1373272079509,322.1373272079509,322.1373272079509,322.43734824995045,323.503969833022,323.503969833022,323.503969833022,323.503969833022,324.5039112500381,4.524619749980047,200003,003,2023-03-22_13h14.09.070,DMS_et_12-36,2022.2.4,None,
26,PRED,12,0.6327428318759004,2,images/picture_3.png,images/picture_1.png,0,"[11.733433509789464, 11.733433509789462]",11.733433509789464,11.733433509789462,images/picture_2.png,1,"[-11.733433509789466, -11.733433509789462]",-11.733433509789464,-11.733433509789462,images/picture_3.png,2,"[11.733433509789462, -11.733433509789466]",11.733433509789462,-11.733433509789464,0,1,1,0.6327428318759004,1.6327428318759003,1.3672571681240997,3.0,1,1.3827428318759003,0,4.0,3.0,1,2,2,0,2,0,0,8,8,8,,,,,,,0.01847612496931106,326.0781600830378,326.0781600830378,327.089627792011,327.1701709580375,327.1701709580375,327.1701709580375,327.470575000043,328.53715516696684,328.53715516696684,328.53715516696684,328.53715516696684,329.53694166697096,4.532645707949996,200003,003,2023-03-22_13h14.09.070,DMS_et_12-36,2022.2.4,None,
,,,,,,,,,,,,,,,,,,,,,,,,,,,,,,,,,,,2,0,2,0,,,,,,,,,330.64744554203935,343.1900495829759,,,,,,,,,,,,,,,200003,003,2023-03-22_13h14.09.070,DMS_et_12-36,2022.2.4,None,
27,UNPRED,12,0.6327428318759004,1,images/picture_2.png,images/picture_1.png,0,"[11.733433509789462, -11.733433509789466]",11.733433509789462,-11.733433509789464,images/picture_2.png,1,"[-11.733433509789462, 11.733433509789464]",-11.733433509789462,11.733433509789464,images/picture_3.png,2,"[11.733433509789464, 11.733433509789462]",11.733433509789464,11.733433509789462,0,1,1,0.6327428318759004,1.6327428318759003,1.3672571681240997,3.0,1,1.3827428318759003,0,4.0,3.0,1,2,3,0,3,0,0,0,0,0,,,,,,,0.005590999964624643,343.1900495829759,343.1900495829759,344.20385929197073,344.30350649997126,344.30350649997126,344.30350649997126,344.5702161670197,345.6704130829312,345.6704130829312,345.6704130829312,345.6704130829312,346.6701895829756,4.5210920829558745,200003,003,2023-03-22_13h14.09.070,DMS_et_12-36,2022.2.4,None,
33,UNPRED,12,0.6327428318759004,2,images/picture_3.png,images/picture_1.png,0,"[11.733433509789464, 11.733433509789462]",11.733433509789464,11.733433509789462,images/picture_2.png,1,"[-11.733433509789462, 11.733433509789464]",-11.733433509789462,11.733433509789464,images/picture_3.png,2,"[11.733433509789462, -11.733433509789466]",11.733433509789462,-11.733433509789464,0,1,1,0.6327428318759004,1.6327428318759003,1.3672571681240997,3.0,1,1.3827428318759003,0,4.0,3.0,1,2,3,0,3,0,0,1,1,6,,,,,,,0.009815749945119023,348.2235147919273,348.2235147919273,349.23678479203954,349.3369629170047,349.3369629170047,349.3369629170047,349.6035035420209,350.7034294169862,350.7034294169862,350.7034294169862,350.7034294169862,351.7036365829408,4.5239494999405,200003,003,2023-03-22_13h14.09.070,DMS_et_12-36,2022.2.4,None,
34,UNPRED,12,0.6327428318759004,1,images/picture_2.png,images/picture_1.png,0,"[11.733433509789464, 11.733433509789462]",11.733433509789464,11.733433509789462,images/picture_2.png,1,"[-11.733433509789466, -11.733433509789462]",-11.733433509789464,-11.733433509789462,images/picture_3.png,2,"[-11.733433509789462, 11.733433509789464]",-11.733433509789462,11.733433509789464,0,1,1,0.6327428318759004,1.6327428318759003,1.3672571681240997,3.0,1,1.3827428318759003,0,4.0,3.0,1,2,3,0,3,0,0,2,2,7,,,,,,,0.008916874998249114,353.2527880829293,353.2527880829293,354.25628800003324,354.37022754200734,354.37022754200734,354.37022754200734,354.63715341698844,355.7371293329634,355.7371293329634,355.7371293329634,355.7371293329634,356.7371056249831,4.5065642080735415,200003,003,2023-03-22_13h14.09.070,DMS_et_12-36,2022.2.4,None,
30,UNPRED,12,0.6327428318759004,0,images/picture_1.png,images/picture_1.png,0,"[11.733433509789464, 11.733433509789462]",11.733433509789464,11.733433509789462,images/picture_2.png,1,"[-11.733433509789466, -11.733433509789462]",-11.733433509789464,-11.733433509789462,images/picture_3.png,2,"[11.733433509789462, -11.733433509789466]",11.733433509789462,-11.733433509789464,0,1,1,0.6327428318759004,1.6327428318759003,1.3672571681240997,3.0,1,1.3827428318759003,0,4.0,3.0,1,2,3,0,3,0,0,3,3,3,,,,,,,0.0061437919503077865,358.2672427080106,358.2672427080106,359.2704205419868,359.39032508293167,359.39032508293167,359.39032508293167,359.65646941703744,360.7704945829464,360.7704945829464,360.7704945829464,360.7565960829379,361.77035420795437,4.514462625025772,200003,003,2023-03-22_13h14.09.070,DMS_et_12-36,2022.2.4,None,
28,UNPRED,12,0.6327428318759004,2,images/picture_3.png,images/picture_1.png,0,"[-11.733433509789466, -11.733433509789462]",-11.733433509789464,-11.733433509789462,images/picture_2.png,1,"[-11.733433509789462, 11.733433509789464]",-11.733433509789462,11.733433509789464,images/picture_3.png,2,"[11.733433509789464, 11.733433509789462]",11.733433509789464,11.733433509789462,0,1,1,0.6327428318759004,1.6327428318759003,1.3672571681240997,3.0,1,1.3827428318759003,0,4.0,3.0,1,2,3,0,3,0,0,4,4,1,,,,,,,0.022384125040844083,363.3091381250415,363.3091381250415,364.32337266695686,364.4036267079646,364.4036267079646,364.4036267079646,364.7036798329791,365.7705181669444,365.7705181669444,365.7705181669444,365.7705181669444,366.7703464999795,4.533653125050478,200003,003,2023-03-22_13h14.09.070,DMS_et_12-36,2022.2.4,None,
32,UNPRED,12,0.6327428318759004,2,images/picture_3.png,images/picture_1.png,0,"[-11.733433509789466, -11.733433509789462]",-11.733433509789464,-11.733433509789462,images/picture_2.png,1,"[-11.733433509789462, 11.733433509789464]",-11.733433509789462,11.733433509789464,images/picture_3.png,2,"[11.733433509789464, 11.733433509789462]",11.733433509789464,11.733433509789462,0,1,1,0.6327428318759004,1.6327428318759003,1.3672571681240997,3.0,1,1.3827428318759003,0,4.0,3.0,1,2,3,0,3,0,0,5,5,5,,,,,,,0.010716125019825995,368.33121154201217,368.33121154201217,369.3371332079405,369.45719512493815,369.45719512493815,369.45719512493815,369.72334012493957,370.83706199994776,370.83706199994776,370.83706199994776,370.8235117079457,371.8369745420059,4.513891875045374,200003,003,2023-03-22_13h14.09.070,DMS_et_12-36,2022.2.4,None,
29,UNPRED,12,0.6327428318759004,1,images/picture_2.png,images/picture_1.png,0,"[11.733433509789464, 11.733433509789462]",11.733433509789464,11.733433509789462,images/picture_2.png,1,"[-11.733433509789462, 11.733433509789464]",-11.733433509789462,11.733433509789464,images/picture_3.png,2,"[-11.733433509789466, -11.733433509789462]",-11.733433509789464,-11.733433509789462,0,1,1,0.6327428318759004,1.6327428318759003,1.3672571681240997,3.0,1,1.3827428318759003,0,4.0,3.0,1,2,3,0,3,0,0,6,6,2,,,,,,,0.00993462500628084,373.35955287492834,373.35955287492834,374.37078508303966,374.4703971670242,374.4703971670242,374.4703971670242,374.7570524580078,375.83714874996804,375.83714874996804,375.83714874996804,375.83714874996804,376.83706024999265,4.5243413330754265,200003,003,2023-03-22_13h14.09.070,DMS_et_12-36,2022.2.4,None,
35,UNPRED,12,0.6327428318759004,1,images/picture_2.png,images/picture_1.png,0,"[-11.733433509789466, -11.733433509789462]",-11.733433509789464,-11.733433509789462,images/picture_2.png,1,"[11.733433509789464, 11.733433509789462]",11.733433509789464,11.733433509789462,images/picture_3.png,2,"[-11.733433509789462, 11.733433509789464]",-11.733433509789462,11.733433509789464,0,1,1,0.6327428318759004,1.6327428318759003,1.3672571681240997,3.0,1,1.3827428318759003,0,4.0,3.0,1,2,3,0,3,0,0,7,7,8,,,,,,,0.0036579580046236515,378.38174679200165,378.38174679200165,379.38960912497714,379.50379470793996,379.50379470793996,379.50379470793996,379.77043466700707,380.870402624947,380.870402624947,380.870402624947,380.870402624947,381.87039637495764,4.507083125063218,200003,003,2023-03-22_13h14.09.070,DMS_et_12-36,2022.2.4,None,
31,UNPRED,12,0.6327428318759004,1,images/picture_2.png,images/picture_1.png,0,"[11.733433509789462, -11.733433509789466]",11.733433509789462,-11.733433509789464,images/picture_2.png,1,"[11.733433509789464, 11.733433509789462]",11.733433509789464,11.733433509789462,images/picture_3.png,2,"[-11.733433509789462, 11.733433509789464]",-11.733433509789462,11.733433509789464,0,1,1,0.6327428318759004,1.6327428318759003,1.3672571681240997,3.0,1,1.3827428318759003,0,4.0,3.0,1,2,3,0,3,0,0,8,8,4,,,,,,,0.006853584083728492,383.3977884580381,383.3977884580381,384.4037084579468,384.5239071249962,384.5239071249962,384.5239071249962,384.78963433299214,385.90369287494104,385.90369287494104,385.90369287494104,385.8900442919694,386.90363945800345,4.511311125010252,200003,003,2023-03-22_13h14.09.070,DMS_et_12-36,2022.2.4,None,
,,,,,,,,,,,,,,,,,,,,,,,,,,,,,,,,,,,3,0,3,0,,,,,,,,,387.94616362499073,400.4719107080018,,,,,,,,,,,,,,,200003,003,2023-03-22_13h14.09.070,DMS_et_12-36,2022.2.4,None,
40,PRED,12,0.6327428318759004,0,images/picture_1.png,images/picture_1.png,0,"[11.733433509789462, -11.733433509789466]",11.733433509789462,-11.733433509789464,images/picture_2.png,1,"[-11.733433509789466, -11.733433509789462]",-11.733433509789464,-11.733433509789462,images/picture_3.png,2,"[11.733433509789464, 11.733433509789462]",11.733433509789464,11.733433509789462,0,1,1,0.6327428318759004,1.6327428318759003,1.3672571681240997,3.0,1,1.3827428318759003,0,4.0,3.0,1,2,4,0,4,0,0,0,0,4,,,,,,,0.0021846669260412455,400.4719107080018,400.4719107080018,401.4703399169957,401.59002870798577,401.59002870798577,401.59002870798577,401.8571084999712,402.97041433292907,402.97041433292907,402.97041433292907,402.95650679199025,403.97031387500465,4.504092999966815,200003,003,2023-03-22_13h14.09.070,DMS_et_12-36,2022.2.4,None,
44,PRED,12,0.6327428318759004,0,images/picture_1.png,images/picture_1.png,0,"[11.733433509789464, 11.733433509789462]",11.733433509789464,11.733433509789462,images/picture_2.png,1,"[-11.733433509789466, -11.733433509789462]",-11.733433509789464,-11.733433509789462,images/picture_3.png,2,"[-11.733433509789462, 11.733433509789464]",-11.733433509789462,11.733433509789464,0,1,1,0.6327428318759004,1.6327428318759003,1.3672571681240997,3.0,1,1.3827428318759003,0,4.0,3.0,1,2,4,0,4,0,0,1,1,8,,,,,,,0.0015910000074654818,405.4852354580071,405.4852354580071,406.4890705830185,406.6034467079444,406.6034467079444,406.6034467079444,406.8702015830204,407.9702439169632,407.9702439169632,407.9702439169632,407.9702439169632,408.97010570799466,4.502936291974038,200003,003,2023-03-22_13h14.09.070,DMS_et_12-36,2022.2.4,None,
39,PRED,12,0.6327428318759004,0,images/picture_1.png,images/picture_1.png,0,"[-11.733433509789462, 11.733433509789464]",-11.733433509789462,11.733433509789464,images/picture_2.png,1,"[11.733433509789462, -11.733433509789466]",11.733433509789462,-11.733433509789464,images/picture_3.png,2,"[-11.733433509789466, -11.733433509789462]",-11.733433509789464,-11.733433509789462,0,1,1,0.6327428318759004,1.6327428318759003,1.3672571681240997,3.0,1,1.3827428318759003,0,4.0,3.0,1,2,4,0,4,0,0,2,2,3,,,,,,,0.004926749970763922,410.49574604199734,410.49574604199734,411.5036465419689,411.6231712499866,411.6231712499866,411.6231712499866,411.88987491698936,413.0036960419966,413.0036960419966,413.0036960419966,412.9894469999708,414.0036264170194,4.510201249970123,200003,003,2023-03-22_13h14.09.070,DMS_et_12-36,2022.2.4,None,
38,PRED,12,0.6327428318759004,0,images/picture_1.png,images/picture_1.png,0,"[11.733433509789464, 11.733433509789462]",11.733433509789464,11.733433509789462,images/picture_2.png,1,"[-11.733433509789462, 11.733433509789464]",-11.733433509789462,11.733433509789464,images/picture_3.png,2,"[11.733433509789462, -11.733433509789466]",11.733433509789462,-11.733433509789464,0,1,1,0.6327428318759004,1.6327428318759003,1.3672571681240997,3.0,1,1.3827428318759003,0,4.0,3.0,1,2,4,0,4,0,0,3,3,2,,,,,,,0.005202625063247979,415.52149904193357,415.52149904193357,416.5371713329805,416.6369494999526,416.6369494999526,416.6369494999526,416.903618042008,418.0037456669379,418.0037456669379,418.0037456669379,418.0037456669379,419.0035649170168,4.5261377079878,200003,003,2023-03-22_13h14.09.070,DMS_et_12-36,2022.2.4,None,
42,PRED,12,0.6327428318759004,0,images/picture_1.png,images/picture_1.png,0,"[-11.733433509789466, -11.733433509789462]",-11.733433509789464,-11.733433509789462,images/picture_2.png,1,"[-11.733433509789462, 11.733433509789464]",-11.733433509789462,11.733433509789464,images/picture_3.png,2,"[11.733433509789462, -11.733433509789466]",11.733433509789462,-11.733433509789464,0,1,1,0.6327428318759004,1.6327428318759003,1.3672571681240997,3.0,1,1.3827428318759003,0,4.0,3.0,1,2,4,0,4,0,0,4,4,6,,,,,,,0.0036473749205470085,420.55663958296645,420.55663958296645,421.5703156249365,421.67022716696374,421.67022716696374,421.67022716696374,421.9370458750054,423.0371803329326,423.0371803329326,423.0371803329326,423.0371803329326,424.0371045829961,4.520788291934878,200003,003,2023-03-22_13h14.09.070,DMS_et_12-36,2022.2.4,None,
37,PRED,12,0.6327428318759004,0,images/picture_1.png,images/picture_1.png,0,"[-11.733433509789466, -11.733433509789462]",-11.733433509789464,-11.733433509789462,images/picture_2.png,1,"[11.733433509789462, -11.733433509789466]",11.733433509789462,-11.733433509789464,images/picture_3.png,2,"[-11.733433509789462, 11.733433509789464]",-11.733433509789462,11.733433509789464,0,1,1,0.6327428318759004,1.6327428318759003,1.3672571681240997,3.0,1,1.3827428318759003,0,4.0,3.0,1,2,4,0,4,0,0,5,5,1,,,,,,,0.004583584028296173,425.58276333299,425.58276333299,426.5903501670109,426.7035980829969,426.7035980829969,426.7035980829969,426.9705356670311,428.0703659169376,428.0703659169376,428.0703659169376,428.0703659169376,429.07008770795073,4.504889499978162,200003,003,2023-03-22_13h14.09.070,DMS_et_12-36,2022.2.4,None,
36,PRED,12,0.6327428318759004,0,images/picture_1.png,images/picture_1.png,0,"[11.733433509789462, -11.733433509789466]",11.733433509789462,-11.733433509789464,images/picture_2.png,1,"[11.733433509789464, 11.733433509789462]",11.733433509789464,11.733433509789462,images/picture_3.png,2,"[-11.733433509789466, -11.733433509789462]",-11.733433509789464,-11.733433509789462,0,1,1,0.6327428318759004,1.6327428318759003,1.3672571681240997,3.0,1,1.3827428318759003,0,4.0,3.0,1,2,4,0,4,0,0,6,6,0,,,,,,,0.004674916970543563,430.60134979197755,430.60134979197755,431.603363082977,431.72217291698325,431.72217291698325,431.72217291698325,431.9894396669697,433.1036915000295,433.1036915000295,433.1036915000295,433.0898210000014,434.10370841703843,4.51259525003843,200003,003,2023-03-22_13h14.09.070,DMS_et_12-36,2022.2.4,None,
43,PRED,12,0.6327428318759004,0,images/picture_1.png,images/picture_1.png,0,"[-11.733433509789466, -11.733433509789462]",-11.733433509789464,-11.733433509789462,images/picture_2.png,1,"[11.733433509789464, 11.733433509789462]",11.733433509789464,11.733433509789462,images/picture_3.png,2,"[-11.733433509789462, 11.733433509789464]",-11.733433509789462,11.733433509789464,0,1,1,0.6327428318759004,1.6327428318759003,1.3672571681240997,3.0,1,1.3827428318759003,0,4.0,3.0,1,2,4,0,4,0,0,7,7,7,,,,,,,0.003739209030754864,435.6223382499302,435.6223382499302,436.6371226250194,436.7369197079679,436.7369197079679,436.7369197079679,437.00365462503396,438.1036834579427,438.1036834579427,438.1036834579427,438.1036834579427,439.10317820799537,4.51955229206942,200003,003,2023-03-22_13h14.09.070,DMS_et_12-36,2022.2.4,None,
41,PRED,12,0.6327428318759004,0,images/picture_1.png,images/picture_1.png,0,"[-11.733433509789462, 11.733433509789464]",-11.733433509789462,11.733433509789464,images/picture_2.png,1,"[11.733433509789464, 11.733433509789462]",11.733433509789464,11.733433509789462,images/picture_3.png,2,"[11.733433509789462, -11.733433509789466]",11.733433509789462,-11.733433509789464,0,1,1,0.6327428318759004,1.6327428318759003,1.3672571681240997,3.0,1,1.3827428318759003,0,4.0,3.0,1,2,4,0,4,0,0,8,8,5,,,,,,,0.004492250038310885,440.6477313330397,440.6477313330397,441.6563737919787,441.77008641697466,441.77008641697466,441.77008641697466,442.03709770797286,443.1370863750344,443.1370863750344,443.1370863750344,443.1370863750344,444.13692324992735,4.506583709036931,200003,003,2023-03-22_13h14.09.070,DMS_et_12-36,2022.2.4,None,
,,,,,,,,,,,,,,,,,,,,,,,,,,,,,,,,,,,4,0,4,0,,,,,,,,,445.2334276669426,457.7606265420327,,,,,,,,,,,,,,,200003,003,2023-03-22_13h14.09.070,DMS_et_12-36,2022.2.4,None,
46,UNPRED,12,0.6327428318759004,1,images/picture_2.png,images/picture_1.png,0,"[-11.733433509789462, 11.733433509789464]",-11.733433509789462,11.733433509789464,images/picture_2.png,1,"[11.733433509789464, 11.733433509789462]",11.733433509789464,11.733433509789462,images/picture_3.png,2,"[11.733433509789462, -11.733433509789466]",11.733433509789462,-11.733433509789464,0,1,1,0.6327428318759004,1.6327428318759003,1.3672571681240997,3.0,1,1.3827428318759003,0,4.0,3.0,1,2,5,0,5,0,0,0,0,1,,,,,,,0.003362583927810192,457.7606265420327,457.7606265420327,458.77035633299965,458.88895808300003,458.88895808300003,458.88895808300003,459.1559677500045,460.27015937503893,460.27015937503893,460.27015937503893,460.25563270796556,461.27025333303027,4.513003209023736,200003,003,2023-03-22_13h14.09.070,DMS_et_12-36,2022.2.4,None,
52,UNPRED,12,0.6327428318759004,2,images/picture_3.png,images/picture_1.png,0,"[-11.733433509789462, 11.733433509789464]",-11.733433509789462,11.733433509789464,images/picture_2.png,1,"[11.733433509789464, 11.733433509789462]",11.733433509789464,11.733433509789462,images/picture_3.png,2,"[11.733433509789462, -11.733433509789466]",11.733433509789462,-11.733433509789464,0,1,1,0.6327428318759004,1.6327428318759003,1.3672571681240997,3.0,1,1.3827428318759003,0,4.0,3.0,1,2,5,0,5,0,0,1,1,7,,,,,,,0.023742582998238504,462.8059327499941,462.8059327499941,463.8034260419663,463.9034881249536,463.9034881249536,463.9034881249536,464.2037857499672,465.2703300829744,465.2703300829744,465.2703300829744,465.2703300829744,466.2703688329784,4.524893832975067,200003,003,2023-03-22_13h14.09.070,DMS_et_12-36,2022.2.4,None,
45,UNPRED,12,0.6327428318759004,1,images/picture_2.png,images/picture_1.png,0,"[11.733433509789462, -11.733433509789466]",11.733433509789462,-11.733433509789464,images/picture_2.png,1,"[-11.733433509789462, 11.733433509789464]",-11.733433509789462,11.733433509789464,images/picture_3.png,2,"[11.733433509789464, 11.733433509789462]",11.733433509789464,11.733433509789462,0,1,1,0.6327428318759004,1.6327428318759003,1.3672571681240997,3.0,1,1.3827428318759003,0,4.0,3.0,1,2,5,0,5,0,0,2,2,0,,,,,,,0.006712333066388965,467.8174318750389,467.8174318750389,468.8232531249523,468.937119374983,468.937119374983,468.937119374983,469.20378174993675,470.3037868749816,470.3037868749816,470.3037868749816,470.3037868749816,471.3036466250196,4.508598583051935,200003,003,2023-03-22_13h14.09.070,DMS_et_12-36,2022.2.4,None,
53,UNPRED,12,0.6327428318759004,2,images/picture_3.png,images/picture_1.png,0,"[-11.733433509789466, -11.733433509789462]",-11.733433509789464,-11.733433509789462,images/picture_2.png,1,"[11.733433509789462, -11.733433509789466]",11.733433509789462,-11.733433509789464,images/picture_3.png,2,"[-11.733433509789462, 11.733433509789464]",-11.733433509789462,11.733433509789464,0,1,1,0.6327428318759004,1.6327428318759003,1.3672571681240997,3.0,1,1.3827428318759003,0,4.0,3.0,1,2,5,0,5,0,0,3,3,8,,,,,,,0.022437750012613833,472.85776441695634,472.85776441695634,473.87048074998893,473.9565610829741,473.9565610829741,473.9565610829741,474.2371871669311,475.3369547500042,475.3369547500042,475.3369547500042,475.3229477920104,476.3371771250386,4.538360417005606,200003,003,2023-03-22_13h14.09.070,DMS_et_12-36,2022.2.4,None,
50,UNPRED,12,0.6327428318759004,0,images/picture_1.png,images/picture_1.png,0,"[11.733433509789462, -11.733433509789466]",11.733433509789462,-11.733433509789464,images/picture_2.png,1,"[-11.733433509789462, 11.733433509789464]",-11.733433509789462,11.733433509789464,images/picture_3.png,2,"[-11.733433509789466, -11.733433509789462]",-11.733433509789464,-11.733433509789462,0,1,1,0.6327428318759004,1.6327428318759003,1.3672571681240997,3.0,1,1.3827428318759003,0,4.0,3.0,1,2,5,0,5,0,0,4,4,5,,,,,,,0.009376415982842445,477.8844055830268,477.8844055830268,478.8896610420197,479.00360483303666,479.00360483303666,479.00360483303666,479.27051112498157,480.3701644579414,480.3701644579414,480.3701644579414,480.3701644579414,481.3703889170429,4.508513749926351,200003,003,2023-03-22_13h14.09.070,DMS_et_12-36,2022.2.4,None,
51,UNPRED,12,0.6327428318759004,0,images/picture_1.png,images/picture_1.png,0,"[-11.733433509789462, 11.733433509789464]",-11.733433509789462,11.733433509789464,images/picture_2.png,1,"[11.733433509789464, 11.733433509789462]",11.733433509789464,11.733433509789462,images/picture_3.png,2,"[11.733433509789462, -11.733433509789466]",11.733433509789462,-11.733433509789464,0,1,1,0.6327428318759004,1.6327428318759003,1.3672571681240997,3.0,1,1.3827428318759003,0,4.0,3.0,1,2,5,0,5,0,0,5,5,6,,,,,,,0.004589290940202773,482.9007359580137,482.9007359580137,483.90376787493005,484.0224434999982,484.0224434999982,484.0224434999982,484.2898675829638,485.40361741697416,485.40361741697416,485.40361741697416,485.39038833300583,486.4036175829824,4.511481166002341,200003,003,2023-03-22_13h14.09.070,DMS_et_12-36,2022.2.4,None,
47,UNPRED,12,0.6327428318759004,2,images/picture_3.png,images/picture_1.png,0,"[-11.733433509789466, -11.733433509789462]",-11.733433509789464,-11.733433509789462,images/picture_2.png,1,"[11.733433509789462, -11.733433509789466]",11.733433509789462,-11.733433509789464,images/picture_3.png,2,"[-11.733433509789462, 11.733433509789464]",-11.733433509789462,11.733433509789464,0,1,1,0.6327428318759004,1.6327428318759003,1.3672571681240997,3.0,1,1.3827428318759003,0,4.0,3.0,1,2,5,0,5,0,0,6,6,2,,,,,,,0.021115708048455417,487.94320233294275,487.94320233294275,488.9566807920346,489.0369035420008,489.0369035420008,489.0369035420008,489.3369000829989,490.40336854197085,490.40336854197085,490.40336854197085,490.40336854197085,491.4036668749759,4.531724250060506,200003,003,2023-03-22_13h14.09.070,DMS_et_12-36,2022.2.4,None,
48,UNPRED,12,0.6327428318759004,0,images/picture_1.png,images/picture_1.png,0,"[11.733433509789464, 11.733433509789462]",11.733433509789464,11.733433509789462,images/picture_2.png,1,"[-11.733433509789466, -11.733433509789462]",-11.733433509789464,-11.733433509789462,images/picture_3.png,2,"[-11.733433509789462, 11.733433509789464]",-11.733433509789462,11.733433509789464,0,1,1,0.6327428318759004,1.6327428318759003,1.3672571681240997,3.0,1,1.3827428318759003,0,4.0,3.0,1,2,5,0,5,0,0,7,7,3,,,,,,,0.007538417004980147,492.9652401669882,492.9652401669882,493.970432083006,494.08998995798174,494.08998995798174,494.08998995798174,494.35660674993414,495.46997362503316,495.46997362503316,495.46997362503316,495.45629804197233,496.47038645797875,4.511828584014438,200003,003,2023-03-22_13h14.09.070,DMS_et_12-36,2022.2.4,None,
49,UNPRED,12,0.6327428318759004,0,images/picture_1.png,images/picture_1.png,0,"[11.733433509789462, -11.733433509789466]",11.733433509789462,-11.733433509789464,images/picture_2.png,1,"[11.733433509789464, 11.733433509789462]",11.733433509789464,11.733433509789462,images/picture_3.png,2,"[-11.733433509789462, 11.733433509789464]",-11.733433509789462,11.733433509789464,0,1,1,0.6327428318759004,1.6327428318759003,1.3672571681240997,3.0,1,1.3827428318759003,0,4.0,3.0,1,2,5,0,5,0,0,8,8,4,,,,,,,0.004711541929282248,497.98637974995654,497.98637974995654,498.9904602080351,499.10371337493416,499.10371337493416,499.10371337493416,499.3703599999426,500.4700046669459,500.4700046669459,500.4700046669459,500.4700046669459,501.4702303749509,4.508210041909479,200003,003,2023-03-22_13h14.09.070,DMS_et_12-36,2022.2.4,None,
,,,,,,,,,,,,,,,,,,,,,,,,,,,,,,,,,,,5,0,5,0,,,,,,,,,502.6567817500327,515.2091884579277,,,,,,,,,,,,,,,200003,003,2023-03-22_13h14.09.070,DMS_et_12-36,2022.2.4,None,
62,PRED,12,0.6327428318759004,0,images/picture_1.png,images/picture_1.png,0,"[11.733433509789464, 11.733433509789462]",11.733433509789464,11.733433509789462,images/picture_2.png,1,"[11.733433509789462, -11.733433509789466]",11.733433509789462,-11.733433509789464,images/picture_3.png,2,"[-11.733433509789462, 11.733433509789464]",-11.733433509789462,11.733433509789464,0,1,1,0.6327428318759004,1.6327428318759003,1.3672571681240997,3.0,1,1.3827428318759003,0,4.0,3.0,1,2,6,0,6,0,0,0,0,8,,,,,,,0.002707458916120231,515.2091884579277,515.2091884579277,516.2231067499379,516.3372415830381,516.3372415830381,516.3372415830381,516.6036890420364,517.7036732500419,517.7036732500419,517.7036732500419,517.7036732500419,518.7035705830203,4.511444374918938,200003,003,2023-03-22_13h14.09.070,DMS_et_12-36,2022.2.4,None,
59,PRED,12,0.6327428318759004,0,images/picture_1.png,images/picture_1.png,0,"[11.733433509789462, -11.733433509789466]",11.733433509789462,-11.733433509789464,images/picture_2.png,1,"[-11.733433509789462, 11.733433509789464]",-11.733433509789462,11.733433509789464,images/picture_3.png,2,"[11.733433509789464, 11.733433509789462]",11.733433509789464,11.733433509789462,0,1,1,0.6327428318759004,1.6327428318759003,1.3672571681240997,3.0,1,1.3827428318759003,0,4.0,3.0,1,2,6,0,6,0,0,1,1,5,,,,,,,0.004718874930404127,520.2353284170385,520.2353284170385,521.2368917920394,521.3555857079336,521.3555857079336,521.3555857079336,521.6226054580184,522.7370565829333,522.7370565829333,522.7370565829333,522.7233054579701,523.7371168329846,4.510437541990541,200003,003,2023-03-22_13h14.09.070,DMS_et_12-36,2022.2.4,None,
54,PRED,12,0.6327428318759004,0,images/picture_1.png,images/picture_1.png,0,"[11.733433509789464, 11.733433509789462]",11.733433509789464,11.733433509789462,images/picture_2.png,1,"[-11.733433509789462, 11.733433509789464]",-11.733433509789462,11.733433509789464,images/picture_3.png,2,"[11.733433509789462, -11.733433509789466]",11.733433509789462,-11.733433509789464,0,1,1,0.6327428318759004,1.6327428318759003,1.3672571681240997,3.0,1,1.3827428318759003,0,4.0,3.0,1,2,6,0,6,0,0,2,2,0,,,,,,,0.003699208959005773,525.2570766250137,525.2570766250137,526.2702006249456,526.3703907500021,526.3703907500021,526.3703907500021,526.6370844999328,527.7366582920076,527.7366582920076,527.7366582920076,527.7366582920076,528.7369155830238,4.520897416980006,200003,003,2023-03-22_13h14.09.070,DMS_et_12-36,2022.2.4,None,
58,PRED,12,0.6327428318759004,0,images/picture_1.png,images/picture_1.png,0,"[11.733433509789464, 11.733433509789462]",11.733433509789464,11.733433509789462,images/picture_2.png,1,"[11.733433509789462, -11.733433509789466]",11.733433509789462,-11.733433509789464,images/picture_3.png,2,"[-11.733433509789466, -11.733433509789462]",-11.733433509789464,-11.733433509789462,0,1,1,0.6327428318759004,1.6327428318759003,1.3672571681240997,3.0,1,1.3827428318759003,0,4.0,3.0,1,2,6,0,6,0,0,3,3,4,,,,,,,0.005133166094310582,530.2837662500096,530.2837662500096,531.2895235000178,531.403635457973,531.403635457973,531.403635457973,531.6701084169326,532.7704180419678,532.7704180419678,532.7704180419678,532.7704180419678,533.7704332499998,4.505675708060153,200003,003,2023-03-22_13h14.09.070,DMS_et_12-36,2022.2.4,None,
56,PRED,12,0.6327428318759004,0,images/picture_1.png,images/picture_1.png,0,"[11.733433509789462, -11.733433509789466]",11.733433509789462,-11.733433509789464,images/picture_2.png,1,"[-11.733433509789462, 11.733433509789464]",-11.733433509789462,11.733433509789464,images/picture_3.png,2,"[11.733433509789464, 11.733433509789462]",11.733433509789464,11.733433509789462,0,1,1,0.6327428318759004,1.6327428318759003,1.3672571681240997,3.0,1,1.3827428318759003,0,4.0,3.0,1,2,6,0,6,0,0,4,4,2,,,,,,,0.004872041987255216,535.2997376249405,535.2997376249405,536.3039130000398,536.4229455420282,536.4229455420282,536.4229455420282,536.6895984580042,537.8036533329869,537.8036533329869,537.8036533329869,537.7899302919395,538.8036478749709,4.51189720898401,200003,003,2023-03-22_13h14.09.070,DMS_et_12-36,2022.2.4,None,
57,PRED,12,0.6327428318759004,0,images/picture_1.png,images/picture_1.png,0,"[-11.733433509789466, -11.733433509789462]",-11.733433509789464,-11.733433509789462,images/picture_2.png,1,"[11.733433509789462, -11.733433509789466]",11.733433509789462,-11.733433509789464,images/picture_3.png,2,"[-11.733433509789462, 11.733433509789464]",-11.733433509789462,11.733433509789464,0,1,1,0.6327428318759004,1.6327428318759003,1.3672571681240997,3.0,1,1.3827428318759003,0,4.0,3.0,1,2,6,0,6,0,0,5,5,3,,,,,,,0.003776666009798646,540.323858082993,540.323858082993,541.3369586250046,541.4368437499506,541.4368437499506,541.4368437499506,541.7034292080207,542.8037363749463,542.8037363749463,542.8037363749463,542.8037363749463,543.8036717500072,4.520449165953323,200003,003,2023-03-22_13h14.09.070,DMS_et_12-36,2022.2.4,None,
55,PRED,12,0.6327428318759004,0,images/picture_1.png,images/picture_1.png,0,"[-11.733433509789466, -11.733433509789462]",-11.733433509789464,-11.733433509789462,images/picture_2.png,1,"[-11.733433509789462, 11.733433509789464]",-11.733433509789462,11.733433509789464,images/picture_3.png,2,"[11.733433509789462, -11.733433509789466]",11.733433509789462,-11.733433509789464,0,1,1,0.6327428318759004,1.6327428318759003,1.3672571681240997,3.0,1,1.3827428318759003,0,4.0,3.0,1,2,6,0,6,0,0,6,6,1,,,,,,,0.004492208012379706,545.349659416941,545.349659416941,546.3566784169525,546.4703396250261,546.4703396250261,546.4703396250261,546.737144249957,547.8370735830395,547.8370735830395,547.8370735830395,547.8370735830395,548.836991332937,4.50553308299277,200003,003,2023-03-22_13h14.09.070,DMS_et_12-36,2022.2.4,None,
60,PRED,12,0.6327428318759004,0,images/picture_1.png,images/picture_1.png,0,"[11.733433509789464, 11.733433509789462]",11.733433509789464,11.733433509789462,images/picture_2.png,1,"[11.733433509789462, -11.733433509789466]",11.733433509789462,-11.733433509789464,images/picture_3.png,2,"[-11.733433509789466, -11.733433509789462]",-11.733433509789464,-11.733433509789462,0,1,1,0.6327428318759004,1.6327428318759003,1.3672571681240997,3.0,1,1.3827428318759003,0,4.0,3.0,1,2,6,0,6,0,0,7,7,6,,,,,,,0.005070250015705824,550.3697341670049,550.3697341670049,551.3704459170112,551.49028262496,551.49028262496,551.49028262496,551.7562596669886,552.870200083009,552.870200083009,552.870200083009,552.8558744170005,553.8704023750033,4.511555791017599,200003,003,2023-03-22_13h14.09.070,DMS_et_12-36,2022.2.4,None,
61,PRED,12,0.6327428318759004,0,images/picture_1.png,images/picture_1.png,0,"[11.733433509789462, -11.733433509789466]",11.733433509789462,-11.733433509789464,images/picture_2.png,1,"[11.733433509789464, 11.733433509789462]",11.733433509789464,11.733433509789462,images/picture_3.png,2,"[-11.733433509789462, 11.733433509789464]",-11.733433509789462,11.733433509789464,0,1,1,0.6327428318759004,1.6327428318759003,1.3672571681240997,3.0,1,1.3827428318759003,0,4.0,3.0,1,2,6,0,6,0,0,8,8,7,,,,,,,0.003588708001188934,555.388639624929,555.388639624929,556.4036647080211,556.503664207994,556.503664207994,556.503664207994,556.7703752500238,557.87050679198,557.87050679198,557.87050679198,557.87050679198,558.8703936249949,4.522042665979825,200003,003,2023-03-22_13h14.09.070,DMS_et_12-36,2022.2.4,None,
,,,,,,,,,,,,,,,,,,,,,,,,,,,,,,,,,,,6,0,6,0,,,,,,,,,559.9766292079585,572.5344325830229,,,,,,,,,,,,,,,200003,003,2023-03-22_13h14.09.070,DMS_et_12-36,2022.2.4,None,
68,UNPRED,12,0.6327428318759004,2,images/picture_3.png,images/picture_1.png,0,"[11.733433509789464, 11.733433509789462]",11.733433509789464,11.733433509789462,images/picture_2.png,1,"[11.733433509789462, -11.733433509789466]",11.733433509789462,-11.733433509789464,images/picture_3.png,2,"[-11.733433509789462, 11.733433509789464]",-11.733433509789462,11.733433509789464,0,1,1,0.6327428318759004,1.6327428318759003,1.3672571681240997,3.0,1,1.3827428318759003,0,4.0,3.0,1,2,7,0,7,0,0,0,0,5,,,,,,,0.015341875026933849,572.5344325830229,572.5344325830229,573.5369045829866,573.6369411250344,573.6369411250344,573.6369411250344,573.9236577500124,575.0038080830127,575.0038080830127,575.0038080830127,575.0231040830258,576.0370753749739,4.515907707973383,200003,003,2023-03-22_13h14.09.070,DMS_et_12-36,2022.2.4,None,
71,UNPRED,12,0.6327428318759004,1,images/picture_2.png,images/picture_1.png,0,"[-11.733433509789466, -11.733433509789462]",-11.733433509789464,-11.733433509789462,images/picture_2.png,1,"[-11.733433509789462, 11.733433509789464]",-11.733433509789462,11.733433509789464,images/picture_3.png,2,"[11.733433509789462, -11.733433509789466]",11.733433509789462,-11.733433509789464,0,1,1,0.6327428318759004,1.6327428318759003,1.3672571681240997,3.0,1,1.3827428318759003,0,4.0,3.0,1,2,7,0,7,0,0,1,1,8,,,,,,,0.010808957973495126,577.5559408329427,577.5559408329427,578.5704492080258,578.6704812919488,578.6704812919488,578.6704812919488,578.9368423329433,580.0370723330416,580.0370723330416,580.0370723330416,580.0370723330416,581.0370980829466,4.526941249961965,200003,003,2023-03-22_13h14.09.070,DMS_et_12-36,2022.2.4,None,
67,UNPRED,12,0.6327428318759004,2,images/picture_3.png,images/picture_1.png,0,"[11.733433509789464, 11.733433509789462]",11.733433509789464,11.733433509789462,images/picture_2.png,1,"[-11.733433509789466, -11.733433509789462]",-11.733433509789464,-11.733433509789462,images/picture_3.png,2,"[-11.733433509789462, 11.733433509789464]",-11.733433509789462,11.733433509789464,0,1,1,0.6327428318759004,1.6327428318759003,1.3672571681240997,3.0,1,1.3827428318759003,0,4.0,3.0,1,2,7,0,7,0,0,2,2,4,,,,,,,0.02034399996045977,582.6027224579593,582.6027224579593,583.6034094999777,583.7036239999579,583.7036239999579,583.7036239999579,583.9900826669764,585.0703854169697,585.0703854169697,585.0703854169697,585.0703854169697,586.0703619170235,4.521713374997489,200003,003,2023-03-22_13h14.09.070,DMS_et_12-36,2022.2.4,None,
66,UNPRED,12,0.6327428318759004,1,images/picture_2.png,images/picture_1.png,0,"[-11.733433509789466, -11.733433509789462]",-11.733433509789464,-11.733433509789462,images/picture_2.png,1,"[11.733433509789464, 11.733433509789462]",11.733433509789464,11.733433509789462,images/picture_3.png,2,"[-11.733433509789462, 11.733433509789464]",-11.733433509789462,11.733433509789464,0,1,1,0.6327428318759004,1.6327428318759003,1.3672571681240997,3.0,1,1.3827428318759003,0,4.0,3.0,1,2,7,0,7,0,0,3,3,3,,,,,,,0.009049124899320304,587.6209244580241,587.6209244580241,588.6233942080289,588.7371461669682,588.7371461669682,588.7371461669682,589.0034401250305,590.1036756669637,590.1036756669637,590.1036756669637,590.1036756669637,591.1037325420184,4.505037541966885,200003,003,2023-03-22_13h14.09.070,DMS_et_12-36,2022.2.4,None,
70,UNPRED,12,0.6327428318759004,2,images/picture_3.png,images/picture_1.png,0,"[11.733433509789462, -11.733433509789466]",11.733433509789462,-11.733433509789464,images/picture_2.png,1,"[-11.733433509789462, 11.733433509789464]",-11.733433509789462,11.733433509789464,images/picture_3.png,2,"[11.733433509789464, 11.733433509789462]",11.733433509789464,11.733433509789462,0,1,1,0.6327428318759004,1.6327428318759003,1.3672571681240997,3.0,1,1.3827428318759003,0,4.0,3.0,1,2,7,0,7,0,0,4,4,7,,,,,,,0.010986290988512337,592.6363945419434,592.6363945419434,593.6368043749826,593.7557549999328,593.7557549999328,593.7557549999328,594.0238726249663,595.1370767080225,595.1370767080225,595.1370767080225,595.12327916699,596.137110624928,4.514526874991134,200003,003,2023-03-22_13h14.09.070,DMS_et_12-36,2022.2.4,None,
63,UNPRED,12,0.6327428318759004,0,images/picture_1.png,images/picture_1.png,0,"[11.733433509789464, 11.733433509789462]",11.733433509789464,11.733433509789462,images/picture_2.png,1,"[11.733433509789462, -11.733433509789466]",11.733433509789462,-11.733433509789464,images/picture_3.png,2,"[-11.733433509789462, 11.733433509789464]",-11.733433509789462,11.733433509789464,0,1,1,0.6327428318759004,1.6327428318759003,1.3672571681240997,3.0,1,1.3827428318759003,0,4.0,3.0,1,2,7,0,7,0,0,5,5,0,,,,,,,0.007376458961516619,597.6607138329418,597.6607138329418,598.6703517079586,598.7703425829532,598.7703425829532,598.7703425829532,599.0568247500341,600.1369684169767,600.1369684169767,600.1369684169767,600.1369684169767,601.1371300829342,4.520083584007807,200003,003,2023-03-22_13h14.09.070,DMS_et_12-36,2022.2.4,None,
64,UNPRED,12,0.6327428318759004,2,images/picture_3.png,images/picture_1.png,0,"[-11.733433509789462, 11.733433509789464]",-11.733433509789462,11.733433509789464,images/picture_2.png,1,"[11.733433509789462, -11.733433509789466]",11.733433509789462,-11.733433509789464,images/picture_3.png,2,"[-11.733433509789466, -11.733433509789462]",-11.733433509789464,-11.733433509789462,0,1,1,0.6327428318759004,1.6327428318759003,1.3672571681240997,3.0,1,1.3827428318759003,0,4.0,3.0,1,2,7,0,7,0,0,6,6,1,,,,,,,0.02126641699578613,602.7076781250071,602.7076781250071,603.722574000014,603.803393292008,603.803393292008,603.803393292008,604.103450958035,605.1703825829318,605.1703825829318,605.1703825829318,605.1703825829318,606.1704091250431,4.537946542026475,200003,003,2023-03-22_13h14.09.070,DMS_et_12-36,2022.2.4,None,
65,UNPRED,12,0.6327428318759004,1,images/picture_2.png,images/picture_1.png,0,"[11.733433509789462, -11.733433509789466]",11.733433509789462,-11.733433509789464,images/picture_2.png,1,"[-11.733433509789462, 11.733433509789464]",-11.733433509789462,11.733433509789464,images/picture_3.png,2,"[-11.733433509789466, -11.733433509789462]",-11.733433509789464,-11.733433509789462,0,1,1,0.6327428318759004,1.6327428318759003,1.3672571681240997,3.0,1,1.3827428318759003,0,4.0,3.0,1,2,7,0,7,0,0,7,7,2,,,,,,,0.00874437508173287,607.7477701669559,607.7477701669559,608.7563364580274,608.856614792021,608.856614792021,608.856614792021,609.1372241670033,610.2368470829679,610.2368470829679,610.2368470829679,610.2223893329501,611.2370846249396,4.519636667100713,200003,003,2023-03-22_13h14.09.070,DMS_et_12-36,2022.2.4,None,
69,UNPRED,12,0.6327428318759004,1,images/picture_2.png,images/picture_1.png,0,"[11.733433509789464, 11.733433509789462]",11.733433509789464,11.733433509789462,images/picture_2.png,1,"[-11.733433509789466, -11.733433509789462]",-11.733433509789464,-11.733433509789462,images/picture_3.png,2,"[11.733433509789462, -11.733433509789466]",11.733433509789462,-11.733433509789464,0,1,1,0.6327428318759004,1.6327428318759003,1.3672571681240997,3.0,1,1.3827428318759003,0,4.0,3.0,1,2,7,0,7,0,0,8,8,6,,,,,,,0.005823374958708882,612.7696760830004,612.7696760830004,613.7701447920408,613.889250874985,613.889250874985,613.889250874985,614.1562151670223,615.270347374957,615.270347374957,615.270347374957,615.2565162499668,616.2703701249557,4.50995758397039,200003,003,2023-03-22_13h14.09.070,DMS_et_12-36,2022.2.4,None,
,,,,,,,,,,,,,,,,,,,,,,,,,,,,,,,,,,,7,0,7,0,,,,,,,,,617.3802106670337,629.926882916945,,,,,,,,,,,,,,,200003,003,2023-03-22_13h14.09.070,DMS_et_12-36,2022.2.4,None,
72,PRED,12,0.6327428318759004,0,images/picture_1.png,images/picture_1.png,0,"[-11.733433509789466, -11.733433509789462]",-11.733433509789464,-11.733433509789462,images/picture_2.png,1,"[11.733433509789464, 11.733433509789462]",11.733433509789464,11.733433509789462,images/picture_3.png,2,"[11.733433509789462, -11.733433509789466]",11.733433509789462,-11.733433509789464,0,1,1,0.6327428318759004,1.6327428318759003,1.3672571681240997,3.0,1,1.3827428318759003,0,4.0,3.0,1,2,8,0,8,0,0,0,0,0,,,,,,,0.0033487919718027115,629.926882916945,629.926882916945,630.9371355000185,631.0369255419355,631.0369255419355,631.0369255419355,631.3226784169674,632.4036678749835,632.4036678749835,632.4036678749835,632.4036678749835,633.4036540830275,4.515282041975297,200003,003,2023-03-22_13h14.09.070,DMS_et_12-36,2022.2.4,None,
75,PRED,12,0.6327428318759004,0,images/picture_1.png,images/picture_1.png,0,"[-11.733433509789462, 11.733433509789464]",-11.733433509789462,11.733433509789464,images/picture_2.png,1,"[11.733433509789464, 11.733433509789462]",11.733433509789464,11.733433509789462,images/picture_3.png,2,"[-11.733433509789466, -11.733433509789462]",-11.733433509789464,-11.733433509789462,0,1,1,0.6327428318759004,1.6327428318759003,1.3672571681240997,3.0,1,1.3827428318759003,0,4.0,3.0,1,2,8,0,8,0,0,1,1,3,,,,,,,0.0015772500773891807,634.9497445829911,634.9497445829911,635.9563827080419,636.070445499965,636.070445499965,636.070445499965,636.3371236670064,637.4371075830422,637.4371075830422,637.4371075830422,637.4371075830422,638.4370574579807,4.505118041066453,200003,003,2023-03-22_13h14.09.070,DMS_et_12-36,2022.2.4,None,
73,PRED,12,0.6327428318759004,0,images/picture_1.png,images/picture_1.png,0,"[-11.733433509789462, 11.733433509789464]",-11.733433509789462,11.733433509789464,images/picture_2.png,1,"[11.733433509789462, -11.733433509789466]",11.733433509789462,-11.733433509789464,images/picture_3.png,2,"[11.733433509789464, 11.733433509789462]",11.733433509789464,11.733433509789462,0,1,1,0.6327428318759004,1.6327428318759003,1.3672571681240997,3.0,1,1.3827428318759003,0,4.0,3.0,1,2,8,0,8,0,0,2,2,1,,,,,,,0.004406667081639171,639.9633952080039,639.9633952080039,640.9699885000009,641.0890962079866,641.0890962079866,641.0890962079866,641.3570769169601,642.4704224170418,642.4704224170418,642.4704224170418,642.4566053749295,643.4703742499696,4.510429417015985,200003,003,2023-03-22_13h14.09.070,DMS_et_12-36,2022.2.4,None,
79,PRED,12,0.6327428318759004,0,images/picture_1.png,images/picture_1.png,0,"[-11.733433509789466, -11.733433509789462]",-11.733433509789464,-11.733433509789462,images/picture_2.png,1,"[11.733433509789462, -11.733433509789466]",11.733433509789462,-11.733433509789464,images/picture_3.png,2,"[-11.733433509789462, 11.733433509789464]",-11.733433509789462,11.733433509789464,0,1,1,0.6327428318759004,1.6327428318759003,1.3672571681240997,3.0,1,1.3827428318759003,0,4.0,3.0,1,2,8,0,8,0,0,3,3,7,,,,,,,0.0038250830257311463,644.9841303749708,644.9841303749708,645.9897976670181,646.1037409169367,646.1037409169367,646.1037409169367,646.3703129169298,647.4703919580206,647.4703919580206,647.4703919580206,647.4703919580206,648.4703590000281,4.50709679198917,200003,003,2023-03-22_13h14.09.070,DMS_et_12-36,2022.2.4,None,
77,PRED,12,0.6327428318759004,0,images/picture_1.png,images/picture_1.png,0,"[11.733433509789462, -11.733433509789466]",11.733433509789462,-11.733433509789464,images/picture_2.png,1,"[11.733433509789464, 11.733433509789462]",11.733433509789464,11.733433509789462,images/picture_3.png,2,"[-11.733433509789462, 11.733433509789464]",-11.733433509789462,11.733433509789464,0,1,1,0.6327428318759004,1.6327428318759003,1.3672571681240997,3.0,1,1.3827428318759003,0,4.0,3.0,1,2,8,0,8,0,0,4,4,5,,,,,,,0.0034487079828977585,650.0035691669909,650.0035691669909,651.0036537080305,651.1231326670386,651.1231326670386,651.1231326670386,651.390048332978,652.5038303750334,652.5038303750334,652.5038303750334,652.4901711669518,653.5036295419559,4.50679062504787,200003,003,2023-03-22_13h14.09.070,DMS_et_12-36,2022.2.4,None,
76,PRED,12,0.6327428318759004,0,images/picture_1.png,images/picture_1.png,0,"[-11.733433509789462, 11.733433509789464]",-11.733433509789462,11.733433509789464,images/picture_2.png,1,"[11.733433509789464, 11.733433509789462]",11.733433509789464,11.733433509789462,images/picture_3.png,2,"[11.733433509789462, -11.733433509789466]",11.733433509789462,-11.733433509789464,0,1,1,0.6327428318759004,1.6327428318759003,1.3672571681240997,3.0,1,1.3827428318759003,0,4.0,3.0,1,2,8,0,8,0,0,5,5,4,,,,,,,0.003660583053715527,655.0104335829383,655.0104335829383,656.0225138750393,656.1367456669686,656.1367456669686,656.1367456669686,656.4034634579439,657.5038397079334,657.5038397079334,657.5038397079334,657.5038397079334,658.5037429169752,4.507515500066802,200003,003,2023-03-22_13h14.09.070,DMS_et_12-36,2022.2.4,None,
80,PRED,12,0.6327428318759004,0,images/picture_1.png,images/picture_1.png,0,"[-11.733433509789466, -11.733433509789462]",-11.733433509789464,-11.733433509789462,images/picture_2.png,1,"[11.733433509789464, 11.733433509789462]",11.733433509789464,11.733433509789462,images/picture_3.png,2,"[-11.733433509789462, 11.733433509789464]",-11.733433509789462,11.733433509789464,0,1,1,0.6327428318759004,1.6327428318759003,1.3672571681240997,3.0,1,1.3827428318759003,0,4.0,3.0,1,2,8,0,8,0,0,6,6,8,,,,,,,0.00469920807518065,660.0358822080307,660.0358822080307,661.0371794579551,661.1568073750241,661.1568073750241,661.1568073750241,661.4233779170318,662.5370689579286,662.5370689579286,662.5370689579286,662.5233136250172,663.5371052919654,4.5091492920182645,200003,003,2023-03-22_13h14.09.070,DMS_et_12-36,2022.2.4,None,
78,PRED,12,0.6327428318759004,0,images/picture_1.png,images/picture_1.png,0,"[-11.733433509789466, -11.733433509789462]",-11.733433509789464,-11.733433509789462,images/picture_2.png,1,"[11.733433509789464, 11.733433509789462]",11.733433509789464,11.733433509789462,images/picture_3.png,2,"[11.733433509789462, -11.733433509789466]",11.733433509789462,-11.733433509789464,0,1,1,0.6327428318759004,1.6327428318759003,1.3672571681240997,3.0,1,1.3827428318759003,0,4.0,3.0,1,2,8,0,8,0,0,7,7,6,,,,,,,0.001491541974246502,665.0453212920111,665.0453212920111,666.0564633329632,666.1703085419722,666.1703085419722,666.1703085419722,666.437099874951,667.5369138750248,667.5369138750248,667.5369138750248,667.5369138750248,668.5376330419676,4.505338457995094,200003,003,2023-03-22_13h14.09.070,DMS_et_12-36,2022.2.4,None,
74,PRED,12,0.6327428318759004,0,images/picture_1.png,images/picture_1.png,0,"[-11.733433509789466, -11.733433509789462]",-11.733433509789464,-11.733433509789462,images/picture_2.png,1,"[-11.733433509789462, 11.733433509789464]",-11.733433509789462,11.733433509789464,images/picture_3.png,2,"[11.733433509789464, 11.733433509789462]",11.733433509789464,11.733433509789462,0,1,1,0.6327428318759004,1.6327428318759003,1.3672571681240997,3.0,1,1.3827428318759003,0,4.0,3.0,1,2,8,0,8,0,0,8,8,2,,,,,,,0.0045856250217184424,670.0624392499449,670.0624392499449,671.0703611249337,671.189926333027,671.189926333027,671.189926333027,671.457025666954,672.570489292033,672.570489292033,672.570489292033,672.5560952080414,673.5704878329998,4.5122858750401065,200003,003,2023-03-22_13h14.09.070,DMS_et_12-36,2022.2.4,None,
,,,,,,,,,,,,,,,,,,,,,,,,,,,,,,,,,,,8,0,8,0,,,,,,,,,674.6567839579657,687.2252811669605,,,,,,,,,,,,,,,200003,003,2023-03-22_13h14.09.070,DMS_et_12-36,2022.2.4,None,
84,UNPRED,12,0.6327428318759004,2,images/picture_3.png,images/picture_1.png,0,"[-11.733433509789462, 11.733433509789464]",-11.733433509789462,11.733433509789464,images/picture_2.png,1,"[11.733433509789464, 11.733433509789462]",11.733433509789464,11.733433509789462,images/picture_3.png,2,"[-11.733433509789466, -11.733433509789462]",-11.733433509789464,-11.733433509789462,0,1,1,0.6327428318759004,1.6327428318759003,1.3672571681240997,3.0,1,1.3827428318759003,0,4.0,3.0,1,2,9,0,9,0,0,0,0,3,,,,,,,0.013123666984029114,687.2252811669605,687.2252811669605,688.2365496249404,688.3368814999703,688.3368814999703,688.3368814999703,688.6232117080363,689.7033405830152,689.7033405830152,689.7033405830152,689.7033405830152,690.7036494170316,4.5273246669676155,200003,003,2023-03-22_13h14.09.070,DMS_et_12-36,2022.2.4,None,
88,UNPRED,12,0.6327428318759004,2,images/picture_3.png,images/picture_1.png,0,"[-11.733433509789466, -11.733433509789462]",-11.733433509789464,-11.733433509789462,images/picture_2.png,1,"[11.733433509789464, 11.733433509789462]",11.733433509789464,11.733433509789462,images/picture_3.png,2,"[11.733433509789462, -11.733433509789466]",11.733433509789462,-11.733433509789464,0,1,1,0.6327428318759004,1.6327428318759003,1.3672571681240997,3.0,1,1.3827428318759003,0,4.0,3.0,1,2,9,0,9,0,0,1,1,7,,,,,,,0.019830957986414433,692.2690429169452,692.2690429169452,693.2704407919664,693.3703722079517,693.3703722079517,693.3703722079517,693.6565923750168,694.7369124999968,694.7369124999968,694.7369124999968,694.7369124999968,695.7372672919882,4.524787915986963,200003,003,2023-03-22_13h14.09.070,DMS_et_12-36,2022.2.4,None,
89,UNPRED,12,0.6327428318759004,2,images/picture_3.png,images/picture_1.png,0,"[-11.733433509789466, -11.733433509789462]",-11.733433509789464,-11.733433509789462,images/picture_2.png,1,"[-11.733433509789462, 11.733433509789464]",-11.733433509789462,11.733433509789464,images/picture_3.png,2,"[11.733433509789462, -11.733433509789466]",11.733433509789462,-11.733433509789464,0,1,1,0.6327428318759004,1.6327428318759003,1.3672571681240997,3.0,1,1.3827428318759003,0,4.0,3.0,1,2,9,0,9,0,0,2,2,8,,,,,,,0.021484999917447567,697.3113251669565,697.3113251669565,698.3238894579699,698.40384670801,698.40384670801,698.40384670801,698.7035157079808,699.770360208,699.770360208,699.770360208,699.770360208,700.7701285419753,4.536496124928817,200003,003,2023-03-22_13h14.09.070,DMS_et_12-36,2022.2.4,None,
82,UNPRED,12,0.6327428318759004,1,images/picture_2.png,images/picture_1.png,0,"[-11.733433509789462, 11.733433509789464]",-11.733433509789462,11.733433509789464,images/picture_2.png,1,"[-11.733433509789466, -11.733433509789462]",-11.733433509789464,-11.733433509789462,images/picture_3.png,2,"[11.733433509789464, 11.733433509789462]",11.733433509789464,11.733433509789462,0,1,1,0.6327428318759004,1.6327428318759003,1.3672571681240997,3.0,1,1.3827428318759003,0,4.0,3.0,1,2,9,0,9,0,0,3,3,1,,,,,,,0.008863084018230438,702.3421781249344,702.3421781249344,703.3572362919804,703.4570297499886,703.4570297499886,703.4570297499886,703.7370762500213,704.8367287919391,704.8367287919391,704.8367287919391,704.8226917500142,705.836870625033,4.520461249980144,200003,003,2023-03-22_13h14.09.070,DMS_et_12-36,2022.2.4,None,
85,UNPRED,12,0.6327428318759004,0,images/picture_1.png,images/picture_1.png,0,"[-11.733433509789466, -11.733433509789462]",-11.733433509789464,-11.733433509789462,images/picture_2.png,1,"[11.733433509789464, 11.733433509789462]",11.733433509789464,11.733433509789462,images/picture_3.png,2,"[-11.733433509789462, 11.733433509789464]",-11.733433509789462,11.733433509789464,0,1,1,0.6327428318759004,1.6327428318759003,1.3672571681240997,3.0,1,1.3827428318759003,0,4.0,3.0,1,2,9,0,9,0,0,4,4,4,,,,,,,0.007926416932605207,707.3672019579681,707.3672019579681,708.3703911249759,708.4900482919766,708.4900482919766,708.4900482919766,708.7560597499833,709.8703748750268,709.8703748750268,709.8703748750268,709.8569151250413,710.8703054999933,4.511376999900676,200003,003,2023-03-22_13h14.09.070,DMS_et_12-36,2022.2.4,None,
81,UNPRED,12,0.6327428318759004,2,images/picture_3.png,images/picture_1.png,0,"[11.733433509789462, -11.733433509789466]",11.733433509789462,-11.733433509789464,images/picture_2.png,1,"[-11.733433509789466, -11.733433509789462]",-11.733433509789464,-11.733433509789462,images/picture_3.png,2,"[-11.733433509789462, 11.733433509789464]",-11.733433509789462,11.733433509789464,0,1,1,0.6327428318759004,1.6327428318759003,1.3672571681240997,3.0,1,1.3827428318759003,0,4.0,3.0,1,2,9,0,9,0,0,5,5,0,,,,,,,0.0239838749403134,712.4085301669547,712.4085301669547,713.4237111669499,713.5036192500265,713.5036192500265,713.5036192500265,713.8037294170354,714.8704714999767,714.8704714999767,714.8704714999767,714.8704714999767,715.8703895829385,4.537846124963835,200003,003,2023-03-22_13h14.09.070,DMS_et_12-36,2022.2.4,None,
87,UNPRED,12,0.6327428318759004,1,images/picture_2.png,images/picture_1.png,0,"[11.733433509789464, 11.733433509789462]",11.733433509789464,11.733433509789462,images/picture_2.png,1,"[-11.733433509789462, 11.733433509789464]",-11.733433509789462,11.733433509789464,images/picture_3.png,2,"[11.733433509789462, -11.733433509789466]",11.733433509789462,-11.733433509789464,0,1,1,0.6327428318759004,1.6327428318759003,1.3672571681240997,3.0,1,1.3827428318759003,0,4.0,3.0,1,2,9,0,9,0,0,6,6,6,,,,,,,0.007793416036292911,717.4423724999651,717.4423724999651,718.45653270802,718.5566403330304,718.5566403330304,718.5566403330304,718.8369152080268,719.9368046669988,719.9368046669988,719.9368046669988,719.9223274579272,720.9368315830361,4.5211685000685975,200003,003,2023-03-22_13h14.09.070,DMS_et_12-36,2022.2.4,None,
86,UNPRED,12,0.6327428318759004,0,images/picture_1.png,images/picture_1.png,0,"[-11.733433509789466, -11.733433509789462]",-11.733433509789464,-11.733433509789462,images/picture_2.png,1,"[11.733433509789462, -11.733433509789466]",11.733433509789462,-11.733433509789464,images/picture_3.png,2,"[-11.733433509789462, 11.733433509789464]",-11.733433509789462,11.733433509789464,0,1,1,0.6327428318759004,1.6327428318759003,1.3672571681240997,3.0,1,1.3827428318759003,0,4.0,3.0,1,2,9,0,9,0,0,7,7,5,,,,,,,0.006965582957491279,722.4676898749312,722.4676898749312,723.4704495830229,723.5898284580326,723.5898284580326,723.5898284580326,723.8564736249391,724.9703694579657,724.9703694579657,724.9703694579657,724.9565921250032,725.9701781669864,4.50863220798783,200003,003,2023-03-22_13h14.09.070,DMS_et_12-36,2022.2.4,None,
83,UNPRED,12,0.6327428318759004,2,images/picture_3.png,images/picture_1.png,0,"[-11.733433509789466, -11.733433509789462]",-11.733433509789464,-11.733433509789462,images/picture_2.png,1,"[11.733433509789464, 11.733433509789462]",11.733433509789464,11.733433509789462,images/picture_3.png,2,"[11.733433509789462, -11.733433509789466]",11.733433509789462,-11.733433509789464,0,1,1,0.6327428318759004,1.6327428318759003,1.3672571681240997,3.0,1,1.3827428318759003,0,4.0,3.0,1,2,9,0,9,0,0,8,8,2,,,,,,,0.02270562492776662,727.5078994169598,727.5078994169598,728.523507624981,728.6036679169629,728.6036679169629,728.6036679169629,728.9037085829768,729.9704154999927,729.9704154999927,729.9704154999927,729.9704154999927,730.9703622499947,4.524683499941602,200003,003,2023-03-22_13h14.09.070,DMS_et_12-36,2022.2.4,None,
,,,,,,,,,,,,,,,,,,,,,,,,,,,,,,,,,,,9,0,9,0,,,,,,,,,732.1311941249296,744.6790896670427,,,,,,,,,,,,,,,200003,003,2023-03-22_13h14.09.070,DMS_et_12-36,2022.2.4,None,
92,PRED,12,0.6327428318759004,0,images/picture_1.png,images/picture_1.png,0,"[-11.733433509789462, 11.733433509789464]",-11.733433509789462,11.733433509789464,images/picture_2.png,1,"[11.733433509789462, -11.733433509789466]",11.733433509789462,-11.733433509789464,images/picture_3.png,2,"[11.733433509789464, 11.733433509789462]",11.733433509789464,11.733433509789462,0,1,1,0.6327428318759004,1.6327428318759003,1.3672571681240997,3.0,1,1.3827428318759003,0,4.0,3.0,1,2,10,0,10,0,0,0,0,2,,,,,,,0.004475792055018246,744.6790896670427,744.6790896670427,745.68997162499,745.803730207961,745.803730207961,745.803730207961,746.0702452920377,747.1701507079415,747.1701507079415,747.1701507079415,747.1701507079415,748.1704435419524,4.508560208021663,200003,003,2023-03-22_13h14.09.070,DMS_et_12-36,2022.2.4,None,
96,PRED,12,0.6327428318759004,0,images/picture_1.png,images/picture_1.png,0,"[-11.733433509789466, -11.733433509789462]",-11.733433509789464,-11.733433509789462,images/picture_2.png,1,"[11.733433509789464, 11.733433509789462]",11.733433509789464,11.733433509789462,images/picture_3.png,2,"[-11.733433509789462, 11.733433509789464]",-11.733433509789462,11.733433509789464,0,1,1,0.6327428318759004,1.6327428318759003,1.3672571681240997,3.0,1,1.3827428318759003,0,4.0,3.0,1,2,10,0,10,0,0,1,1,6,,,,,,,0.00460904196370393,749.7052788329311,749.7052788329311,750.7039473749464,750.8223060829332,750.8223060829332,750.8223060829332,751.0901234169723,752.2033780419733,752.2033780419733,752.2033780419733,752.1890769579913,753.2036839580396,4.5102630000328645,200003,003,2023-03-22_13h14.09.070,DMS_et_12-36,2022.2.4,None,
97,PRED,12,0.6327428318759004,0,images/picture_1.png,images/picture_1.png,0,"[11.733433509789462, -11.733433509789466]",11.733433509789462,-11.733433509789464,images/picture_2.png,1,"[-11.733433509789462, 11.733433509789464]",-11.733433509789462,11.733433509789464,images/picture_3.png,2,"[11.733433509789464, 11.733433509789462]",11.733433509789464,11.733433509789462,0,1,1,0.6327428318759004,1.6327428318759003,1.3672571681240997,3.0,1,1.3827428318759003,0,4.0,3.0,1,2,10,0,10,0,0,2,2,7,,,,,,,0.0036403749836608768,754.7289889999665,754.7289889999665,755.7372130829608,755.8371212499915,755.8371212499915,755.8371212499915,756.1230375829618,757.2040455419337,757.2040455419337,757.2040455419337,757.2040455419337,758.2036922079278,4.520014417008497,200003,003,2023-03-22_13h14.09.070,DMS_et_12-36,2022.2.4,None,
95,PRED,12,0.6327428318759004,0,images/picture_1.png,images/picture_1.png,0,"[-11.733433509789462, 11.733433509789464]",-11.733433509789462,11.733433509789464,images/picture_2.png,1,"[11.733433509789462, -11.733433509789466]",11.733433509789462,-11.733433509789464,images/picture_3.png,2,"[11.733433509789464, 11.733433509789462]",11.733433509789464,11.733433509789462,0,1,1,0.6327428318759004,1.6327428318759003,1.3672571681240997,3.0,1,1.3827428318759003,0,4.0,3.0,1,2,10,0,10,0,0,3,3,5,,,,,,,0.004419917007908225,759.7517082919367,759.7517082919367,760.7570322080282,760.8704158749897,760.8704158749897,760.8704158749897,761.1370507919928,762.2371313329786,762.2371313329786,762.2371313329786,762.2371313329786,763.2371214999584,4.50611966708675,200003,003,2023-03-22_13h14.09.070,DMS_et_12-36,2022.2.4,None,
90,PRED,12,0.6327428318759004,0,images/picture_1.png,images/picture_1.png,0,"[11.733433509789464, 11.733433509789462]",11.733433509789464,11.733433509789462,images/picture_2.png,1,"[-11.733433509789466, -11.733433509789462]",-11.733433509789464,-11.733433509789462,images/picture_3.png,2,"[11.733433509789462, -11.733433509789466]",11.733433509789462,-11.733433509789464,0,1,1,0.6327428318759004,1.6327428318759003,1.3672571681240997,3.0,1,1.3827428318759003,0,4.0,3.0,1,2,10,0,10,0,0,4,4,0,,,,,,,0.004963624989613891,764.7666617080104,764.7666617080104,765.7704697919544,765.8901157500222,765.8901157500222,765.8901157500222,766.1567385829985,767.270047249971,767.270047249971,767.270047249971,767.2556114579784,768.2704466249561,4.512143832980655,200003,003,2023-03-22_13h14.09.070,DMS_et_12-36,2022.2.4,None,
91,PRED,12,0.6327428318759004,0,images/picture_1.png,images/picture_1.png,0,"[11.733433509789462, -11.733433509789466]",11.733433509789462,-11.733433509789464,images/picture_2.png,1,"[11.733433509789464, 11.733433509789462]",11.733433509789464,11.733433509789462,images/picture_3.png,2,"[-11.733433509789462, 11.733433509789464]",-11.733433509789462,11.733433509789464,0,1,1,0.6327428318759004,1.6327428318759003,1.3672571681240997,3.0,1,1.3827428318759003,0,4.0,3.0,1,2,10,0,10,0,0,5,5,1,,,,,,,0.00316212500911206,769.784995916998,769.784995916998,770.789935125038,770.9035777079407,770.9035777079407,770.9035777079407,771.1706852919888,772.270617333008,772.270617333008,772.270617333008,772.270617333008,773.2701059170067,4.50498083292041,200003,003,2023-03-22_13h14.09.070,DMS_et_12-36,2022.2.4,None,
94,PRED,12,0.6327428318759004,0,images/picture_1.png,images/picture_1.png,0,"[11.733433509789462, -11.733433509789466]",11.733433509789462,-11.733433509789464,images/picture_2.png,1,"[-11.733433509789466, -11.733433509789462]",-11.733433509789464,-11.733433509789462,images/picture_3.png,2,"[-11.733433509789462, 11.733433509789464]",-11.733433509789462,11.733433509789464,0,1,1,0.6327428318759004,1.6327428318759003,1.3672571681240997,3.0,1,1.3827428318759003,0,4.0,3.0,1,2,10,0,10,0,0,6,6,4,,,,,,,0.005094083026051521,774.8029918329557,774.8029918329557,775.8036872920347,775.923316749977,775.923316749977,775.923316749977,776.1901194580132,777.3034820830217,777.3034820830217,777.3034820830217,777.2888604579493,778.3039062499302,4.511806374997832,200003,003,2023-03-22_13h14.09.070,DMS_et_12-36,2022.2.4,None,
98,PRED,12,0.6327428318759004,0,images/picture_1.png,images/picture_1.png,0,"[-11.733433509789466, -11.733433509789462]",-11.733433509789464,-11.733433509789462,images/picture_2.png,1,"[11.733433509789462, -11.733433509789466]",11.733433509789462,-11.733433509789464,images/picture_3.png,2,"[11.733433509789464, 11.733433509789462]",11.733433509789464,11.733433509789462,0,1,1,0.6327428318759004,1.6327428318759003,1.3672571681240997,3.0,1,1.3827428318759003,0,4.0,3.0,1,2,10,0,10,0,0,7,7,8,,,,,,,0.00500029104296118,779.8213395000203,779.8213395000203,780.8228408329887,780.9368910000194,780.9368910000194,780.9368910000194,781.2036845829571,782.3036629999988,782.3036629999988,782.3036629999988,782.3036629999988,783.3037020419724,4.52476616599597,200003,003,2023-03-22_13h14.09.070,DMS_et_12-36,2022.2.4,None,
93,PRED,12,0.6327428318759004,0,images/picture_1.png,images/picture_1.png,0,"[-11.733433509789462, 11.733433509789464]",-11.733433509789462,11.733433509789464,images/picture_2.png,1,"[11.733433509789462, -11.733433509789466]",11.733433509789462,-11.733433509789464,images/picture_3.png,2,"[11.733433509789464, 11.733433509789462]",11.733433509789464,11.733433509789462,0,1,1,0.6327428318759004,1.6327428318759003,1.3672571681240997,3.0,1,1.3827428318759003,0,4.0,3.0,1,2,10,0,10,0,0,8,8,3,,,,,,,0.003712125006131828,784.8493243330158,784.8493243330158,785.856611541938,785.9702970000217,785.9702970000217,785.9702970000217,786.2371625419473,787.3368432079442,787.3368432079442,787.3368432079442,787.3368432079442,788.3370155419689,4.510382583015598,200003,003,2023-03-22_13h14.09.070,DMS_et_12-36,2022.2.4,None,
,,,,,,,,,,,,,,,,,,,,,,,,,,,,,,,,,,,10,0,10,0,,,,,,,,,789.4865967499791,802.0407005000161,,,,,,,,,,,,,,,200003,003,2023-03-22_13h14.09.070,DMS_et_12-36,2022.2.4,None,
,,,,,,,,,,,,,,,,,,,,,,,,,,,,,,,,,,,,,,,,,,,,,,,,,0.013812000048346817,802.0407005000161,802.0407005000161,,,,,,,,,,,,,,,,,,
