trial_count,blockType,blockNum,delay_time,stimImage_i,stimImage,responseImage1,responseImage1_i,responseImage1_pos,responseImage1_X,responseImage1_Y,responseImage2,responseImage2_i,responseImage2_pos,responseImage2_X,responseImage2_Y,responseImage3,responseImage3_i,responseImage3_pos,responseImage3_X,responseImage3_Y,cue_onset,cue_dur,delay_onset,delay_dur,resp_onset,resp_dur,rest_onset,rest_dur,circle_dur,circle_onset,total_dur,cross_onset,cross_dur,delay_resp_period,blocks.thisRepN,blocks.thisTrialN,blocks.thisN,blocks.thisIndex,trials.thisRepN,trials.thisTrialN,trials.thisN,trials.thisIndex,key_resp.started,text.started,key_resp.keys,key_resp.rt,text_2.started,text_2.stopped,sample.started,Delay.started,sample.stopped,Delay.stopped,Response_1.started,Response_2.started,Response_3.started,Response_1.stopped,Response_2.stopped,Response_3.stopped,polygon.started,polygon.stopped,participant,session,date,expName,psychopyVersion,frameRate,
,,,,,,,,,,,,,,,,,,,,,,,,,,,,,,,,,,,,,,,,,,,88.63358833291568,88.63358833291568,t,57.72244441602379,,,,,,,,,,,,,,,200003,104,2023-03-24_13h15.03.518,DMS_et_12-36,2022.2.4,None,
7,PRED,12,0.7779860520468458,2,images/picture_3.png,images/picture_1.png,0,"[11.733433509789464, 11.733433509789462]",11.733433509789464,11.733433509789462,images/picture_2.png,1,"[-11.733433509789462, 11.733433509789464]",-11.733433509789462,11.733433509789464,images/picture_3.png,2,"[11.733433509789462, -11.733433509789466]",11.733433509789462,-11.733433509789464,0,1,1,0.7779860520468458,1.7779860520468458,1.2220139479531542,3.0,1,1.5279860520468458,0,4.0,3.0,1,2,0,0,0,0,0,0,0,7,,,,,146.87475079193246,158.91150616691448,158.91150616691448,158.91150616691448,159.91806175000966,160.45157612499315,160.66581916692667,160.66581916692667,160.66581916692667,161.89961924997624,161.89961924997624,161.89961924997624,161.89961924997624,162.91805491701234,200003,104,2023-03-24_13h15.03.518,DMS_et_12-36,2022.2.4,None,
5,PRED,12,0.7779860520468458,2,images/picture_3.png,images/picture_1.png,0,"[-11.733433509789466, -11.733433509789462]",-11.733433509789464,-11.733433509789462,images/picture_2.png,1,"[-11.733433509789462, 11.733433509789464]",-11.733433509789462,11.733433509789464,images/picture_3.png,2,"[11.733433509789462, -11.733433509789466]",11.733433509789462,-11.733433509789464,0,1,1,0.7779860520468458,1.7779860520468458,1.2220139479531542,3.0,1,1.5279860520468458,0,4.0,3.0,1,2,0,0,0,0,0,1,1,5,,,,,,,162.91805491701234,162.91805491701234,163.93286383291706,164.4520942919189,164.66615266702138,164.66615266702138,164.66615266702138,165.8992880419828,165.8992880419828,165.8992880419828,165.8992880419828,166.9181535829557,200003,104,2023-03-24_13h15.03.518,DMS_et_12-36,2022.2.4,None,
8,PRED,12,0.7779860520468458,2,images/picture_3.png,images/picture_1.png,0,"[11.733433509789462, -11.733433509789466]",11.733433509789462,-11.733433509789464,images/picture_2.png,1,"[-11.733433509789466, -11.733433509789462]",-11.733433509789464,-11.733433509789462,images/picture_3.png,2,"[-11.733433509789462, 11.733433509789464]",-11.733433509789462,11.733433509789464,0,1,1,0.7779860520468458,1.7779860520468458,1.2220139479531542,3.0,1,1.5279860520468458,0,4.0,3.0,1,2,0,0,0,0,0,2,2,8,,,,,,,166.9181535829557,166.9181535829557,167.93290608294774,168.4519864579197,168.66615524992812,168.66615524992812,168.66615524992812,169.89940616698004,169.89940616698004,169.89940616698004,169.89940616698004,170.91810137499124,200003,104,2023-03-24_13h15.03.518,DMS_et_12-36,2022.2.4,None,
3,PRED,12,0.7779860520468458,2,images/picture_3.png,images/picture_1.png,0,"[-11.733433509789466, -11.733433509789462]",-11.733433509789464,-11.733433509789462,images/picture_2.png,1,"[11.733433509789462, -11.733433509789466]",11.733433509789462,-11.733433509789464,images/picture_3.png,2,"[11.733433509789464, 11.733433509789462]",11.733433509789464,11.733433509789462,0,1,1,0.7779860520468458,1.7779860520468458,1.2220139479531542,3.0,1,1.5279860520468458,0,4.0,3.0,1,2,0,0,0,0,0,3,3,3,,,,,,,170.91810137499124,170.91810137499124,171.93299716699403,172.45215483300854,172.66620316694025,172.66620316694025,172.66620316694025,173.89962212496903,173.89962212496903,173.89962212496903,173.89962212496903,174.91808804194443,200003,104,2023-03-24_13h15.03.518,DMS_et_12-36,2022.2.4,None,
0,PRED,12,0.7779860520468458,2,images/picture_3.png,images/picture_1.png,0,"[-11.733433509789462, 11.733433509789464]",-11.733433509789462,11.733433509789464,images/picture_2.png,1,"[11.733433509789462, -11.733433509789466]",11.733433509789462,-11.733433509789464,images/picture_3.png,2,"[11.733433509789464, 11.733433509789462]",11.733433509789464,11.733433509789462,0,1,1,0.7779860520468458,1.7779860520468458,1.2220139479531542,3.0,1,1.5279860520468458,0,4.0,3.0,1,2,0,0,0,0,0,4,4,0,,,,,,,174.91808804194443,174.91808804194443,175.9327845419757,176.45201866701245,176.66612433292903,176.66612433292903,176.66612433292903,177.89975745801348,177.89975745801348,177.89975745801348,177.89975745801348,178.918086541933,200003,104,2023-03-24_13h15.03.518,DMS_et_12-36,2022.2.4,None,
4,PRED,12,0.7779860520468458,2,images/picture_3.png,images/picture_1.png,0,"[-11.733433509789462, 11.733433509789464]",-11.733433509789462,11.733433509789464,images/picture_2.png,1,"[-11.733433509789466, -11.733433509789462]",-11.733433509789464,-11.733433509789462,images/picture_3.png,2,"[11.733433509789464, 11.733433509789462]",11.733433509789464,11.733433509789462,0,1,1,0.7779860520468458,1.7779860520468458,1.2220139479531542,3.0,1,1.5279860520468458,0,4.0,3.0,1,2,0,0,0,0,0,5,5,4,,,,,,,178.918086541933,178.918086541933,179.93284608295653,180.45135462493636,180.66589308297262,180.66589308297262,180.66589308297262,181.8995891669765,181.8995891669765,181.8995891669765,181.8995891669765,182.91821475001052,200003,104,2023-03-24_13h15.03.518,DMS_et_12-36,2022.2.4,None,
6,PRED,12,0.7779860520468458,2,images/picture_3.png,images/picture_1.png,0,"[11.733433509789462, -11.733433509789466]",11.733433509789462,-11.733433509789464,images/picture_2.png,1,"[11.733433509789464, 11.733433509789462]",11.733433509789464,11.733433509789462,images/picture_3.png,2,"[-11.733433509789466, -11.733433509789462]",-11.733433509789464,-11.733433509789462,0,1,1,0.7779860520468458,1.7779860520468458,1.2220139479531542,3.0,1,1.5279860520468458,0,4.0,3.0,1,2,0,0,0,0,0,6,6,6,,,,,,,182.91821475001052,182.91821475001052,183.93287349992897,184.45217983296607,184.66619258292485,184.66619258292485,184.66619258292485,185.89959791698493,185.89959791698493,185.89959791698493,185.89959791698493,186.91848524997476,200003,104,2023-03-24_13h15.03.518,DMS_et_12-36,2022.2.4,None,
2,PRED,12,0.7779860520468458,2,images/picture_3.png,images/picture_1.png,0,"[-11.733433509789466, -11.733433509789462]",-11.733433509789464,-11.733433509789462,images/picture_2.png,1,"[11.733433509789464, 11.733433509789462]",11.733433509789464,11.733433509789462,images/picture_3.png,2,"[-11.733433509789462, 11.733433509789464]",-11.733433509789462,11.733433509789464,0,1,1,0.7779860520468458,1.7779860520468458,1.2220139479531542,3.0,1,1.5279860520468458,0,4.0,3.0,1,2,0,0,0,0,0,7,7,2,,,,,,,186.91848524997476,186.91848524997476,187.93289070797618,188.45196829200722,188.66617199999746,188.66617199999746,188.66617199999746,189.89924662502017,189.89924662502017,189.89924662502017,189.89924662502017,190.90022916696034,200003,104,2023-03-24_13h15.03.518,DMS_et_12-36,2022.2.4,None,
1,PRED,12,0.7779860520468458,2,images/picture_3.png,images/picture_1.png,0,"[11.733433509789464, 11.733433509789462]",11.733433509789464,11.733433509789462,images/picture_2.png,1,"[11.733433509789462, -11.733433509789466]",11.733433509789462,-11.733433509789464,images/picture_3.png,2,"[-11.733433509789466, -11.733433509789462]",-11.733433509789464,-11.733433509789462,0,1,1,0.7779860520468458,1.7779860520468458,1.2220139479531542,3.0,1,1.5279860520468458,0,4.0,3.0,1,2,0,0,0,0,0,8,8,1,,,,,,,190.90022916696034,190.90022916696034,191.89973958290648,192.43286374991294,192.66614424996078,192.66614424996078,192.66614424996078,193.89968333300203,193.89968333300203,193.89968333300203,193.89968333300203,194.91851954197045,200003,104,2023-03-24_13h15.03.518,DMS_et_12-36,2022.2.4,None,
,,,,,,,,,,,,,,,,,,,,,,,,,,,,,,,,,,,0,0,0,0,,,,,,,,,194.91851954197045,206.95145408296958,,,,,,,,,,,,,200003,104,2023-03-24_13h15.03.518,DMS_et_12-36,2022.2.4,None,
14,UNPRED,12,0.7779860520468458,0,images/picture_1.png,images/picture_1.png,0,"[11.733433509789464, 11.733433509789462]",11.733433509789464,11.733433509789462,images/picture_2.png,1,"[11.733433509789462, -11.733433509789466]",11.733433509789462,-11.733433509789464,images/picture_3.png,2,"[-11.733433509789466, -11.733433509789462]",-11.733433509789464,-11.733433509789462,0,1,1,0.7779860520468458,1.7779860520468458,1.2220139479531542,3.0,1,1.5279860520468458,0,4.0,3.0,1,2,1,0,1,0,0,0,0,5,,,,,,,206.95145408296958,206.95145408296958,207.9663608749397,208.48537729191594,208.71889041701797,208.71889041701797,208.71889041701797,209.95222091698088,209.95222091698088,209.95222091698088,209.93296891695354,210.93232924991753,200003,104,2023-03-24_13h15.03.518,DMS_et_12-36,2022.2.4,None,
12,UNPRED,12,0.7779860520468458,1,images/picture_2.png,images/picture_1.png,0,"[11.733433509789462, -11.733433509789466]",11.733433509789462,-11.733433509789464,images/picture_2.png,1,"[11.733433509789464, 11.733433509789462]",11.733433509789464,11.733433509789462,images/picture_3.png,2,"[-11.733433509789466, -11.733433509789462]",-11.733433509789464,-11.733433509789462,0,1,1,0.7779860520468458,1.7779860520468458,1.2220139479531542,3.0,1,1.5279860520468458,0,4.0,3.0,1,2,1,0,1,0,0,1,1,3,,,,,,,210.93232924991753,210.93232924991753,211.9325714999577,212.46633141697384,212.6995977499755,212.6995977499755,212.6995977499755,213.93292591697536,213.93292591697536,213.93292591697536,213.93292591697536,214.93227995792404,200003,104,2023-03-24_13h15.03.518,DMS_et_12-36,2022.2.4,None,
11,UNPRED,12,0.7779860520468458,0,images/picture_1.png,images/picture_1.png,0,"[11.733433509789462, -11.733433509789466]",11.733433509789462,-11.733433509789464,images/picture_2.png,1,"[11.733433509789464, 11.733433509789462]",11.733433509789464,11.733433509789462,images/picture_3.png,2,"[-11.733433509789462, 11.733433509789464]",-11.733433509789462,11.733433509789464,0,1,1,0.7779860520468458,1.7779860520468458,1.2220139479531542,3.0,1,1.5279860520468458,0,4.0,3.0,1,2,1,0,1,0,0,2,2,2,,,,,,,214.93227995792404,214.93227995792404,215.93290387501474,216.4663864999311,216.69962716696318,216.69962716696318,216.69962716696318,217.93294904194772,217.93294904194772,217.93294904194772,217.93294904194772,218.9514751669485,200003,104,2023-03-24_13h15.03.518,DMS_et_12-36,2022.2.4,None,
9,UNPRED,12,0.7779860520468458,2,images/picture_3.png,images/picture_1.png,0,"[11.733433509789462, -11.733433509789466]",11.733433509789462,-11.733433509789464,images/picture_2.png,1,"[11.733433509789464, 11.733433509789462]",11.733433509789464,11.733433509789462,images/picture_3.png,2,"[-11.733433509789462, 11.733433509789464]",-11.733433509789462,11.733433509789464,0,1,1,0.7779860520468458,1.7779860520468458,1.2220139479531542,3.0,1,1.5279860520468458,0,4.0,3.0,1,2,1,0,1,0,0,3,3,0,,,,,,,218.9514751669485,218.9514751669485,219.96638879191596,220.48575816699304,220.69960870791692,220.69960870791692,220.69960870791692,221.9327392919222,221.9327392919222,221.9327392919222,221.9327392919222,222.9321121670073,200003,104,2023-03-24_13h15.03.518,DMS_et_12-36,2022.2.4,None,
15,UNPRED,12,0.7779860520468458,1,images/picture_2.png,images/picture_1.png,0,"[-11.733433509789462, 11.733433509789464]",-11.733433509789462,11.733433509789464,images/picture_2.png,1,"[-11.733433509789466, -11.733433509789462]",-11.733433509789464,-11.733433509789462,images/picture_3.png,2,"[11.733433509789462, -11.733433509789466]",11.733433509789462,-11.733433509789464,0,1,1,0.7779860520468458,1.7779860520468458,1.2220139479531542,3.0,1,1.5279860520468458,0,4.0,3.0,1,2,1,0,1,0,0,4,4,6,,,,,,,222.9321121670073,222.9321121670073,223.93297583295498,224.46655804198235,224.69967812497634,224.69967812497634,224.69967812497634,225.93308774998877,225.93308774998877,225.93308774998877,225.93308774998877,226.95180220797192,200003,104,2023-03-24_13h15.03.518,DMS_et_12-36,2022.2.4,None,
13,UNPRED,12,0.7779860520468458,2,images/picture_3.png,images/picture_1.png,0,"[-11.733433509789466, -11.733433509789462]",-11.733433509789464,-11.733433509789462,images/picture_2.png,1,"[-11.733433509789462, 11.733433509789464]",-11.733433509789462,11.733433509789464,images/picture_3.png,2,"[11.733433509789464, 11.733433509789462]",11.733433509789464,11.733433509789462,0,1,1,0.7779860520468458,1.7779860520468458,1.2220139479531542,3.0,1,1.5279860520468458,0,4.0,3.0,1,2,1,0,1,0,0,5,5,4,,,,,,,226.95180220797192,226.95180220797192,227.9664479169296,228.48556950001512,228.69962308299728,228.69962308299728,228.69962308299728,229.9328841669485,229.9328841669485,229.9328841669485,229.9328841669485,230.95186908298638,200003,104,2023-03-24_13h15.03.518,DMS_et_12-36,2022.2.4,None,
16,UNPRED,12,0.7779860520468458,2,images/picture_3.png,images/picture_1.png,0,"[-11.733433509789462, 11.733433509789464]",-11.733433509789462,11.733433509789464,images/picture_2.png,1,"[-11.733433509789466, -11.733433509789462]",-11.733433509789464,-11.733433509789462,images/picture_3.png,2,"[11.733433509789464, 11.733433509789462]",11.733433509789464,11.733433509789462,0,1,1,0.7779860520468458,1.7779860520468458,1.2220139479531542,3.0,1,1.5279860520468458,0,4.0,3.0,1,2,1,0,1,0,0,6,6,7,,,,,,,230.95186908298638,230.95186908298638,231.9660812499933,232.48498029191978,232.6994612920098,232.6994612920098,232.6994612920098,233.93309395795222,233.93309395795222,233.93309395795222,233.93309395795222,234.93242724996526,200003,104,2023-03-24_13h15.03.518,DMS_et_12-36,2022.2.4,None,
10,UNPRED,12,0.7779860520468458,1,images/picture_2.png,images/picture_1.png,0,"[-11.733433509789466, -11.733433509789462]",-11.733433509789464,-11.733433509789462,images/picture_2.png,1,"[-11.733433509789462, 11.733433509789464]",-11.733433509789462,11.733433509789464,images/picture_3.png,2,"[11.733433509789462, -11.733433509789466]",11.733433509789462,-11.733433509789464,0,1,1,0.7779860520468458,1.7779860520468458,1.2220139479531542,3.0,1,1.5279860520468458,0,4.0,3.0,1,2,1,0,1,0,0,7,7,1,,,,,,,234.93242724996526,234.93242724996526,235.93316050001886,236.466377332923,236.69962833297905,236.69962833297905,236.69962833297905,237.93294287496246,237.93294287496246,237.93294287496246,237.93294287496246,238.93244183296338,200003,104,2023-03-24_13h15.03.518,DMS_et_12-36,2022.2.4,None,
17,UNPRED,12,0.7779860520468458,1,images/picture_2.png,images/picture_1.png,0,"[11.733433509789464, 11.733433509789462]",11.733433509789464,11.733433509789462,images/picture_2.png,1,"[-11.733433509789462, 11.733433509789464]",-11.733433509789462,11.733433509789464,images/picture_3.png,2,"[-11.733433509789466, -11.733433509789462]",-11.733433509789464,-11.733433509789462,0,1,1,0.7779860520468458,1.7779860520468458,1.2220139479531542,3.0,1,1.5279860520468458,0,4.0,3.0,1,2,1,0,1,0,0,8,8,8,,,,,,,238.93244183296338,238.93244183296338,239.93315229192376,240.46635904198047,240.6996850419091,240.6996850419091,240.6996850419091,241.9326272920007,241.9326272920007,241.9326272920007,241.9326272920007,242.9521342079388,200003,104,2023-03-24_13h15.03.518,DMS_et_12-36,2022.2.4,None,
,,,,,,,,,,,,,,,,,,,,,,,,,,,,,,,,,,,1,0,1,0,,,,,,,,,242.9521342079388,254.99370304192416,,,,,,,,,,,,,200003,104,2023-03-24_13h15.03.518,DMS_et_12-36,2022.2.4,None,
21,PRED,12,0.7779860520468458,2,images/picture_3.png,images/picture_1.png,0,"[11.733433509789464, 11.733433509789462]",11.733433509789464,11.733433509789462,images/picture_2.png,1,"[11.733433509789462, -11.733433509789466]",11.733433509789462,-11.733433509789464,images/picture_3.png,2,"[-11.733433509789462, 11.733433509789464]",-11.733433509789462,11.733433509789464,0,1,1,0.7779860520468458,1.7779860520468458,1.2220139479531542,3.0,1,1.5279860520468458,0,4.0,3.0,1,2,2,0,2,0,0,0,0,3,,,,,,,254.99370304192416,254.99370304192416,255.9998575419886,256.5331576669123,256.76638162496965,256.76638162496965,256.76638162496965,257.99967970792204,257.99967970792204,257.99967970792204,257.9854752079118,259.0186535419198,200003,104,2023-03-24_13h15.03.518,DMS_et_12-36,2022.2.4,None,
25,PRED,12,0.7779860520468458,2,images/picture_3.png,images/picture_1.png,0,"[-11.733433509789462, 11.733433509789464]",-11.733433509789462,11.733433509789464,images/picture_2.png,1,"[11.733433509789462, -11.733433509789466]",11.733433509789462,-11.733433509789464,images/picture_3.png,2,"[-11.733433509789466, -11.733433509789462]",-11.733433509789464,-11.733433509789462,0,1,1,0.7779860520468458,1.7779860520468458,1.2220139479531542,3.0,1,1.5279860520468458,0,4.0,3.0,1,2,2,0,2,0,0,1,1,7,,,,,,,259.0186535419198,259.0186535419198,260.0331177499611,260.5521866249619,260.7664002919337,260.7664002919337,260.7664002919337,261.9996931250207,261.9996931250207,261.9996931250207,261.9996931250207,263.0001291249646,200003,104,2023-03-24_13h15.03.518,DMS_et_12-36,2022.2.4,None,
18,PRED,12,0.7779860520468458,2,images/picture_3.png,images/picture_1.png,0,"[11.733433509789462, -11.733433509789466]",11.733433509789462,-11.733433509789464,images/picture_2.png,1,"[11.733433509789464, 11.733433509789462]",11.733433509789464,11.733433509789462,images/picture_3.png,2,"[-11.733433509789466, -11.733433509789462]",-11.733433509789464,-11.733433509789462,0,1,1,0.7779860520468458,1.7779860520468458,1.2220139479531542,3.0,1,1.5279860520468458,0,4.0,3.0,1,2,2,0,2,0,0,2,2,0,,,,,,,263.0001291249646,263.0001291249646,263.99963587499224,264.533142457949,264.76642949995585,264.76642949995585,264.76642949995585,265.99964445794467,265.99964445794467,265.99964445794467,265.99964445794467,267.0188468329143,200003,104,2023-03-24_13h15.03.518,DMS_et_12-36,2022.2.4,None,
20,PRED,12,0.7779860520468458,2,images/picture_3.png,images/picture_1.png,0,"[-11.733433509789466, -11.733433509789462]",-11.733433509789464,-11.733433509789462,images/picture_2.png,1,"[-11.733433509789462, 11.733433509789464]",-11.733433509789462,11.733433509789464,images/picture_3.png,2,"[11.733433509789462, -11.733433509789466]",11.733433509789462,-11.733433509789464,0,1,1,0.7779860520468458,1.7779860520468458,1.2220139479531542,3.0,1,1.5279860520468458,0,4.0,3.0,1,2,2,0,2,0,0,3,3,2,,,,,,,267.0188468329143,267.0188468329143,268.0331956249429,268.55230016692076,268.76638333301526,268.76638333301526,268.76638333301526,269.9996972079389,269.9996972079389,269.9996972079389,269.9996972079389,271.0182530829916,200003,104,2023-03-24_13h15.03.518,DMS_et_12-36,2022.2.4,None,
22,PRED,12,0.7779860520468458,2,images/picture_3.png,images/picture_1.png,0,"[-11.733433509789466, -11.733433509789462]",-11.733433509789464,-11.733433509789462,images/picture_2.png,1,"[-11.733433509789462, 11.733433509789464]",-11.733433509789462,11.733433509789464,images/picture_3.png,2,"[11.733433509789462, -11.733433509789466]",11.733433509789462,-11.733433509789464,0,1,1,0.7779860520468458,1.7779860520468458,1.2220139479531542,3.0,1,1.5279860520468458,0,4.0,3.0,1,2,2,0,2,0,0,4,4,4,,,,,,,271.0182530829916,271.0182530829916,272.03311283292715,272.5521692499751,272.76622133294586,272.76622133294586,272.76622133294586,273.999673333019,273.999673333019,273.999673333019,273.999673333019,275.0190620420035,200003,104,2023-03-24_13h15.03.518,DMS_et_12-36,2022.2.4,None,
19,PRED,12,0.7779860520468458,2,images/picture_3.png,images/picture_1.png,0,"[11.733433509789464, 11.733433509789462]",11.733433509789464,11.733433509789462,images/picture_2.png,1,"[-11.733433509789466, -11.733433509789462]",-11.733433509789464,-11.733433509789462,images/picture_3.png,2,"[-11.733433509789462, 11.733433509789464]",-11.733433509789462,11.733433509789464,0,1,1,0.7779860520468458,1.7779860520468458,1.2220139479531542,3.0,1,1.5279860520468458,0,4.0,3.0,1,2,2,0,2,0,0,5,5,1,,,,,,,275.0190620420035,275.0190620420035,276.0331516249571,276.5524279579986,276.76635820791125,276.76635820791125,276.76635820791125,277.99975750001613,277.99975750001613,277.99975750001613,277.99975750001613,279.01905304193497,200003,104,2023-03-24_13h15.03.518,DMS_et_12-36,2022.2.4,None,
23,PRED,12,0.7779860520468458,2,images/picture_3.png,images/picture_1.png,0,"[-11.733433509789466, -11.733433509789462]",-11.733433509789464,-11.733433509789462,images/picture_2.png,1,"[-11.733433509789462, 11.733433509789464]",-11.733433509789462,11.733433509789464,images/picture_3.png,2,"[11.733433509789464, 11.733433509789462]",11.733433509789464,11.733433509789462,0,1,1,0.7779860520468458,1.7779860520468458,1.2220139479531542,3.0,1,1.5279860520468458,0,4.0,3.0,1,2,2,0,2,0,0,6,6,5,,,,,,,279.01905304193497,279.01905304193497,280.03311829199083,280.5524098749738,280.7664156249957,280.7664156249957,280.7664156249957,281.99986158299726,281.99986158299726,281.99986158299726,281.99986158299726,283.01847333298065,200003,104,2023-03-24_13h15.03.518,DMS_et_12-36,2022.2.4,None,
24,PRED,12,0.7779860520468458,2,images/picture_3.png,images/picture_1.png,0,"[11.733433509789462, -11.733433509789466]",11.733433509789462,-11.733433509789464,images/picture_2.png,1,"[11.733433509789464, 11.733433509789462]",11.733433509789464,11.733433509789462,images/picture_3.png,2,"[-11.733433509789466, -11.733433509789462]",-11.733433509789464,-11.733433509789462,0,1,1,0.7779860520468458,1.7779860520468458,1.2220139479531542,3.0,1,1.5279860520468458,0,4.0,3.0,1,2,2,0,2,0,0,7,7,6,,,,,,,283.01847333298065,283.01847333298065,284.03291474992875,284.5522529169684,284.7664072079351,284.7664072079351,284.7664072079351,285.9999429580057,285.9999429580057,285.9999429580057,285.9999429580057,287.01902449992485,200003,104,2023-03-24_13h15.03.518,DMS_et_12-36,2022.2.4,None,
26,PRED,12,0.7779860520468458,2,images/picture_3.png,images/picture_1.png,0,"[11.733433509789464, 11.733433509789462]",11.733433509789464,11.733433509789462,images/picture_2.png,1,"[-11.733433509789462, 11.733433509789464]",-11.733433509789462,11.733433509789464,images/picture_3.png,2,"[-11.733433509789466, -11.733433509789462]",-11.733433509789464,-11.733433509789462,0,1,1,0.7779860520468458,1.7779860520468458,1.2220139479531542,3.0,1,1.5279860520468458,0,4.0,3.0,1,2,2,0,2,0,0,8,8,8,,,,,,,287.01902449992485,287.01902449992485,288.0332263750024,288.55249216698576,288.76646187494043,288.76646187494043,288.76646187494043,289.9998200829141,289.9998200829141,289.9998200829141,289.9998200829141,291.04489662498236,200003,104,2023-03-24_13h15.03.518,DMS_et_12-36,2022.2.4,None,
,,,,,,,,,,,,,,,,,,,,,,,,,,,,,,,,,,,2,0,2,0,,,,,,,,,291.04489662498236,303.0650870829122,,,,,,,,,,,,,200003,104,2023-03-24_13h15.03.518,DMS_et_12-36,2022.2.4,None,
30,UNPRED,12,0.7779860520468458,0,images/picture_1.png,images/picture_1.png,0,"[11.733433509789462, -11.733433509789466]",11.733433509789462,-11.733433509789464,images/picture_2.png,1,"[-11.733433509789462, 11.733433509789464]",-11.733433509789462,11.733433509789464,images/picture_3.png,2,"[-11.733433509789466, -11.733433509789462]",-11.733433509789464,-11.733433509789462,0,1,1,0.7779860520468458,1.7779860520468458,1.2220139479531542,3.0,1,1.5279860520468458,0,4.0,3.0,1,2,3,0,3,0,0,0,0,3,,,,,,,303.0650870829122,303.0650870829122,304.06599575001746,304.59952583292034,304.8329122919822,304.8329122919822,304.8329122919822,306.0662002499448,306.0662002499448,306.0662002499448,306.0662002499448,307.06592704192735,200003,104,2023-03-24_13h15.03.518,DMS_et_12-36,2022.2.4,None,
29,UNPRED,12,0.7779860520468458,0,images/picture_1.png,images/picture_1.png,0,"[-11.733433509789466, -11.733433509789462]",-11.733433509789464,-11.733433509789462,images/picture_2.png,1,"[-11.733433509789462, 11.733433509789464]",-11.733433509789462,11.733433509789464,images/picture_3.png,2,"[11.733433509789462, -11.733433509789466]",11.733433509789462,-11.733433509789464,0,1,1,0.7779860520468458,1.7779860520468458,1.2220139479531542,3.0,1,1.5279860520468458,0,4.0,3.0,1,2,3,0,3,0,0,1,1,2,,,,,,,307.06592704192735,307.06592704192735,308.0664125420153,308.5996084170183,308.83289600000717,308.83289600000717,308.83289600000717,310.0662302499404,310.0662302499404,310.0662302499404,310.0662302499404,311.0657349579269,200003,104,2023-03-24_13h15.03.518,DMS_et_12-36,2022.2.4,None,
31,UNPRED,12,0.7779860520468458,0,images/picture_1.png,images/picture_1.png,0,"[-11.733433509789462, 11.733433509789464]",-11.733433509789462,11.733433509789464,images/picture_2.png,1,"[-11.733433509789466, -11.733433509789462]",-11.733433509789464,-11.733433509789462,images/picture_3.png,2,"[11.733433509789464, 11.733433509789462]",11.733433509789464,11.733433509789462,0,1,1,0.7779860520468458,1.7779860520468458,1.2220139479531542,3.0,1,1.5279860520468458,0,4.0,3.0,1,2,3,0,3,0,0,2,2,4,,,,,,,311.0657349579269,311.0657349579269,312.0660947919823,312.59964479191694,312.83291891694535,312.83291891694535,312.83291891694535,314.06592316692695,314.06592316692695,314.06592316692695,314.06592316692695,315.0659409579821,200003,104,2023-03-24_13h15.03.518,DMS_et_12-36,2022.2.4,None,
33,UNPRED,12,0.7779860520468458,1,images/picture_2.png,images/picture_1.png,0,"[-11.733433509789466, -11.733433509789462]",-11.733433509789464,-11.733433509789462,images/picture_2.png,1,"[11.733433509789464, 11.733433509789462]",11.733433509789464,11.733433509789462,images/picture_3.png,2,"[11.733433509789462, -11.733433509789466]",11.733433509789462,-11.733433509789464,0,1,1,0.7779860520468458,1.7779860520468458,1.2220139479531542,3.0,1,1.5279860520468458,0,4.0,3.0,1,2,3,0,3,0,0,3,3,6,,,,,,,315.0659409579821,315.0659409579821,316.06617562496103,316.59964770800434,316.83293462498114,316.83293462498114,316.83293462498114,318.06632554193493,318.06632554193493,318.06632554193493,318.06632554193493,319.0657210419886,200003,104,2023-03-24_13h15.03.518,DMS_et_12-36,2022.2.4,None,
34,UNPRED,12,0.7779860520468458,0,images/picture_1.png,images/picture_1.png,0,"[-11.733433509789466, -11.733433509789462]",-11.733433509789464,-11.733433509789462,images/picture_2.png,1,"[11.733433509789464, 11.733433509789462]",11.733433509789464,11.733433509789462,images/picture_3.png,2,"[11.733433509789462, -11.733433509789466]",11.733433509789462,-11.733433509789464,0,1,1,0.7779860520468458,1.7779860520468458,1.2220139479531542,3.0,1,1.5279860520468458,0,4.0,3.0,1,2,3,0,3,0,0,4,4,7,,,,,,,319.0657210419886,319.0657210419886,320.06619720801245,320.59935966692865,320.8329674579436,320.8329674579436,320.8329674579436,322.06637399992906,322.06637399992906,322.06637399992906,322.06637399992906,323.0850223749876,200003,104,2023-03-24_13h15.03.518,DMS_et_12-36,2022.2.4,None,
28,UNPRED,12,0.7779860520468458,2,images/picture_3.png,images/picture_1.png,0,"[-11.733433509789462, 11.733433509789464]",-11.733433509789462,11.733433509789464,images/picture_2.png,1,"[-11.733433509789466, -11.733433509789462]",-11.733433509789464,-11.733433509789462,images/picture_3.png,2,"[11.733433509789464, 11.733433509789462]",11.733433509789464,11.733433509789462,0,1,1,0.7779860520468458,1.7779860520468458,1.2220139479531542,3.0,1,1.5279860520468458,0,4.0,3.0,1,2,3,0,3,0,0,5,5,1,,,,,,,323.0850223749876,323.0850223749876,324.0993365419563,324.61804037494585,324.8327009999193,324.8327009999193,324.8327009999193,326.0661545000039,326.0661545000039,326.0661545000039,326.0661545000039,327.08481404196937,200003,104,2023-03-24_13h15.03.518,DMS_et_12-36,2022.2.4,None,
27,UNPRED,12,0.7779860520468458,2,images/picture_3.png,images/picture_1.png,0,"[11.733433509789462, -11.733433509789466]",11.733433509789462,-11.733433509789464,images/picture_2.png,1,"[11.733433509789464, 11.733433509789462]",11.733433509789464,11.733433509789462,images/picture_3.png,2,"[-11.733433509789466, -11.733433509789462]",-11.733433509789464,-11.733433509789462,0,1,1,0.7779860520468458,1.7779860520468458,1.2220139479531542,3.0,1,1.5279860520468458,0,4.0,3.0,1,2,3,0,3,0,0,6,6,0,,,,,,,327.08481404196937,327.08481404196937,328.0995936249383,328.61860533291474,328.8329082080163,328.8329082080163,328.8329082080163,330.0663466670085,330.0663466670085,330.0663466670085,330.0663466670085,331.0852494999999,200003,104,2023-03-24_13h15.03.518,DMS_et_12-36,2022.2.4,None,
32,UNPRED,12,0.7779860520468458,2,images/picture_3.png,images/picture_1.png,0,"[-11.733433509789466, -11.733433509789462]",-11.733433509789464,-11.733433509789462,images/picture_2.png,1,"[11.733433509789462, -11.733433509789466]",11.733433509789462,-11.733433509789464,images/picture_3.png,2,"[-11.733433509789462, 11.733433509789464]",-11.733433509789462,11.733433509789464,0,1,1,0.7779860520468458,1.7779860520468458,1.2220139479531542,3.0,1,1.5279860520468458,0,4.0,3.0,1,2,3,0,3,0,0,7,7,5,,,,,,,331.0852494999999,331.0852494999999,332.09964345791377,332.6187410419807,332.8328975419281,332.8328975419281,332.8328975419281,334.0663095419295,334.0663095419295,334.0663095419295,334.0663095419295,335.08494995802175,200003,104,2023-03-24_13h15.03.518,DMS_et_12-36,2022.2.4,None,
35,UNPRED,12,0.7779860520468458,2,images/picture_3.png,images/picture_1.png,0,"[11.733433509789462, -11.733433509789466]",11.733433509789462,-11.733433509789464,images/picture_2.png,1,"[-11.733433509789462, 11.733433509789464]",-11.733433509789462,11.733433509789464,images/picture_3.png,2,"[-11.733433509789466, -11.733433509789462]",-11.733433509789464,-11.733433509789462,0,1,1,0.7779860520468458,1.7779860520468458,1.2220139479531542,3.0,1,1.5279860520468458,0,4.0,3.0,1,2,3,0,3,0,0,8,8,8,,,,,,,335.08494995802175,335.08494995802175,336.09975654201116,336.6187355419388,336.832890749909,336.832890749909,336.832890749909,338.0663554579951,338.0663554579951,338.0663554579951,338.0663554579951,339.11858458293136,200003,104,2023-03-24_13h15.03.518,DMS_et_12-36,2022.2.4,None,
,,,,,,,,,,,,,,,,,,,,,,,,,,,,,,,,,,,3,0,3,0,,,,,,,,,339.11858458293136,351.15240120794624,,,,,,,,,,,,,200003,104,2023-03-24_13h15.03.518,DMS_et_12-36,2022.2.4,None,
36,PRED,12,0.7779860520468458,0,images/picture_1.png,images/picture_1.png,0,"[-11.733433509789462, 11.733433509789464]",-11.733433509789462,11.733433509789464,images/picture_2.png,1,"[11.733433509789464, 11.733433509789462]",11.733433509789464,11.733433509789462,images/picture_3.png,2,"[-11.733433509789466, -11.733433509789462]",-11.733433509789464,-11.733433509789462,0,1,1,0.7779860520468458,1.7779860520468458,1.2220139479531542,3.0,1,1.5279860520468458,0,4.0,3.0,1,2,4,0,4,0,0,0,0,0,,,,,,,351.15240120794624,351.15240120794624,352.1663481249707,352.6853087079944,352.932903332985,352.932903332985,352.932903332985,354.1663725830149,354.1663725830149,354.1663725830149,354.1521152500063,355.1659539169632,200003,104,2023-03-24_13h15.03.518,DMS_et_12-36,2022.2.4,None,
41,PRED,12,0.7779860520468458,0,images/picture_1.png,images/picture_1.png,0,"[-11.733433509789466, -11.733433509789462]",-11.733433509789464,-11.733433509789462,images/picture_2.png,1,"[11.733433509789462, -11.733433509789466]",11.733433509789462,-11.733433509789464,images/picture_3.png,2,"[11.733433509789464, 11.733433509789462]",11.733433509789464,11.733433509789462,0,1,1,0.7779860520468458,1.7779860520468458,1.2220139479531542,3.0,1,1.5279860520468458,0,4.0,3.0,1,2,4,0,4,0,0,1,1,5,,,,,,,355.1659539169632,355.1659539169632,356.1661668330198,356.6996154169319,356.9329959999304,356.9329959999304,356.9329959999304,358.1664244579151,358.1664244579151,358.1664244579151,358.1664244579151,359.16582712496165,200003,104,2023-03-24_13h15.03.518,DMS_et_12-36,2022.2.4,None,
39,PRED,12,0.7779860520468458,0,images/picture_1.png,images/picture_1.png,0,"[-11.733433509789466, -11.733433509789462]",-11.733433509789464,-11.733433509789462,images/picture_2.png,1,"[11.733433509789462, -11.733433509789466]",11.733433509789462,-11.733433509789464,images/picture_3.png,2,"[11.733433509789464, 11.733433509789462]",11.733433509789464,11.733433509789462,0,1,1,0.7779860520468458,1.7779860520468458,1.2220139479531542,3.0,1,1.5279860520468458,0,4.0,3.0,1,2,4,0,4,0,0,2,2,3,,,,,,,359.16582712496165,359.16582712496165,360.16643754194956,360.6996090419125,360.93290758295916,360.93290758295916,360.93290758295916,362.16632995801046,362.16632995801046,362.16632995801046,362.16632995801046,363.16597266693134,200003,104,2023-03-24_13h15.03.518,DMS_et_12-36,2022.2.4,None,
40,PRED,12,0.7779860520468458,0,images/picture_1.png,images/picture_1.png,0,"[-11.733433509789462, 11.733433509789464]",-11.733433509789462,11.733433509789464,images/picture_2.png,1,"[11.733433509789462, -11.733433509789466]",11.733433509789462,-11.733433509789464,images/picture_3.png,2,"[11.733433509789464, 11.733433509789462]",11.733433509789464,11.733433509789462,0,1,1,0.7779860520468458,1.7779860520468458,1.2220139479531542,3.0,1,1.5279860520468458,0,4.0,3.0,1,2,4,0,4,0,0,3,3,4,,,,,,,363.16597266693134,363.16597266693134,364.16615891701076,364.69948949990794,364.93290699995123,364.93290699995123,364.93290699995123,366.1660265829414,366.1660265829414,366.1660265829414,366.1660265829414,367.165955125005,200003,104,2023-03-24_13h15.03.518,DMS_et_12-36,2022.2.4,None,
42,PRED,12,0.7779860520468458,0,images/picture_1.png,images/picture_1.png,0,"[-11.733433509789462, 11.733433509789464]",-11.733433509789462,11.733433509789464,images/picture_2.png,1,"[11.733433509789462, -11.733433509789466]",11.733433509789462,-11.733433509789464,images/picture_3.png,2,"[-11.733433509789466, -11.733433509789462]",-11.733433509789464,-11.733433509789462,0,1,1,0.7779860520468458,1.7779860520468458,1.2220139479531542,3.0,1,1.5279860520468458,0,4.0,3.0,1,2,4,0,4,0,0,4,4,6,,,,,,,367.165955125005,367.165955125005,368.1661389579531,368.6996216250118,368.93300204200204,368.93300204200204,368.93300204200204,370.1661821670132,370.1661821670132,370.1661821670132,370.1661821670132,371.165739167016,200003,104,2023-03-24_13h15.03.518,DMS_et_12-36,2022.2.4,None,
37,PRED,12,0.7779860520468458,0,images/picture_1.png,images/picture_1.png,0,"[-11.733433509789466, -11.733433509789462]",-11.733433509789464,-11.733433509789462,images/picture_2.png,1,"[11.733433509789464, 11.733433509789462]",11.733433509789464,11.733433509789462,images/picture_3.png,2,"[-11.733433509789462, 11.733433509789464]",-11.733433509789462,11.733433509789464,0,1,1,0.7779860520468458,1.7779860520468458,1.2220139479531542,3.0,1,1.5279860520468458,0,4.0,3.0,1,2,4,0,4,0,0,5,5,1,,,,,,,371.165739167016,371.165739167016,372.16638162499294,372.6996454579057,372.93288691691123,372.93288691691123,372.93288691691123,374.1663549169898,374.1663549169898,374.1663549169898,374.1663549169898,375.165724499966,200003,104,2023-03-24_13h15.03.518,DMS_et_12-36,2022.2.4,None,
38,PRED,12,0.7779860520468458,0,images/picture_1.png,images/picture_1.png,0,"[11.733433509789464, 11.733433509789462]",11.733433509789464,11.733433509789462,images/picture_2.png,1,"[-11.733433509789466, -11.733433509789462]",-11.733433509789464,-11.733433509789462,images/picture_3.png,2,"[-11.733433509789462, 11.733433509789464]",-11.733433509789462,11.733433509789464,0,1,1,0.7779860520468458,1.7779860520468458,1.2220139479531542,3.0,1,1.5279860520468458,0,4.0,3.0,1,2,4,0,4,0,0,6,6,2,,,,,,,375.165724499966,375.165724499966,376.16599520796444,376.69954316690564,376.93293675000314,376.93293675000314,376.93293675000314,378.1661692080088,378.1661692080088,378.1661692080088,378.1661692080088,379.16592291695997,200003,104,2023-03-24_13h15.03.518,DMS_et_12-36,2022.2.4,None,
43,PRED,12,0.7779860520468458,0,images/picture_1.png,images/picture_1.png,0,"[-11.733433509789462, 11.733433509789464]",-11.733433509789462,11.733433509789464,images/picture_2.png,1,"[11.733433509789462, -11.733433509789466]",11.733433509789462,-11.733433509789464,images/picture_3.png,2,"[-11.733433509789466, -11.733433509789462]",-11.733433509789464,-11.733433509789462,0,1,1,0.7779860520468458,1.7779860520468458,1.2220139479531542,3.0,1,1.5279860520468458,0,4.0,3.0,1,2,4,0,4,0,0,7,7,7,,,,,,,379.16592291695997,379.16592291695997,380.1663272919832,380.6995882500196,380.93284824991133,380.93284824991133,380.93284824991133,382.1661290419288,382.1661290419288,382.1661290419288,382.1661290419288,383.16568108298816,200003,104,2023-03-24_13h15.03.518,DMS_et_12-36,2022.2.4,None,
44,PRED,12,0.7779860520468458,0,images/picture_1.png,images/picture_1.png,0,"[-11.733433509789462, 11.733433509789464]",-11.733433509789462,11.733433509789464,images/picture_2.png,1,"[11.733433509789462, -11.733433509789466]",11.733433509789462,-11.733433509789464,images/picture_3.png,2,"[-11.733433509789466, -11.733433509789462]",-11.733433509789464,-11.733433509789462,0,1,1,0.7779860520468458,1.7779860520468458,1.2220139479531542,3.0,1,1.5279860520468458,0,4.0,3.0,1,2,4,0,4,0,0,8,8,8,,,,,,,383.16568108298816,383.16568108298816,384.1663704579696,384.69962679198943,384.9329231249867,384.9329231249867,384.9329231249867,386.16584429191425,386.16584429191425,386.16584429191425,386.16584429191425,387.2309899579268,200003,104,2023-03-24_13h15.03.518,DMS_et_12-36,2022.2.4,None,
,,,,,,,,,,,,,,,,,,,,,,,,,,,,,,,,,,,4,0,4,0,,,,,,,,,387.2309899579268,399.2549196250038,,,,,,,,,,,,,200003,104,2023-03-24_13h15.03.518,DMS_et_12-36,2022.2.4,None,
53,UNPRED,12,0.7779860520468458,1,images/picture_2.png,images/picture_1.png,0,"[11.733433509789464, 11.733433509789462]",11.733433509789464,11.733433509789462,images/picture_2.png,1,"[11.733433509789462, -11.733433509789466]",11.733433509789462,-11.733433509789464,images/picture_3.png,2,"[-11.733433509789466, -11.733433509789462]",-11.733433509789464,-11.733433509789462,0,1,1,0.7779860520468458,1.7779860520468458,1.2220139479531542,3.0,1,1.5279860520468458,0,4.0,3.0,1,2,5,0,5,0,0,0,0,8,,,,,,,399.2549196250038,399.2549196250038,400.26615791697986,400.78541295800824,401.03287583298516,401.03287583298516,401.03287583298516,402.2662954579573,402.2662954579573,402.2662954579573,402.25215254200157,403.2854523329297,200003,104,2023-03-24_13h15.03.518,DMS_et_12-36,2022.2.4,None,
47,UNPRED,12,0.7779860520468458,2,images/picture_3.png,images/picture_1.png,0,"[-11.733433509789462, 11.733433509789464]",-11.733433509789462,11.733433509789464,images/picture_2.png,1,"[11.733433509789464, 11.733433509789462]",11.733433509789464,11.733433509789462,images/picture_3.png,2,"[-11.733433509789466, -11.733433509789462]",-11.733433509789464,-11.733433509789462,0,1,1,0.7779860520468458,1.7779860520468458,1.2220139479531542,3.0,1,1.5279860520468458,0,4.0,3.0,1,2,5,0,5,0,0,1,1,2,,,,,,,403.2854523329297,403.2854523329297,404.29961058299523,404.81882770801894,405.0329680419527,405.0329680419527,405.0329680419527,406.2659774579806,406.2659774579806,406.2659774579806,406.2659774579806,407.26593595801387,200003,104,2023-03-24_13h15.03.518,DMS_et_12-36,2022.2.4,None,
48,UNPRED,12,0.7779860520468458,0,images/picture_1.png,images/picture_1.png,0,"[11.733433509789464, 11.733433509789462]",11.733433509789464,11.733433509789462,images/picture_2.png,1,"[11.733433509789462, -11.733433509789466]",11.733433509789462,-11.733433509789464,images/picture_3.png,2,"[-11.733433509789462, 11.733433509789464]",-11.733433509789462,11.733433509789464,0,1,1,0.7779860520468458,1.7779860520468458,1.2220139479531542,3.0,1,1.5279860520468458,0,4.0,3.0,1,2,5,0,5,0,0,2,2,3,,,,,,,407.26593595801387,407.26593595801387,408.2663197499933,408.7996196669992,409.03292604198214,409.03292604198214,409.03292604198214,410.26635649998207,410.26635649998207,410.26635649998207,410.26635649998207,411.28494016698096,200003,104,2023-03-24_13h15.03.518,DMS_et_12-36,2022.2.4,None,
49,UNPRED,12,0.7779860520468458,2,images/picture_3.png,images/picture_1.png,0,"[11.733433509789464, 11.733433509789462]",11.733433509789464,11.733433509789462,images/picture_2.png,1,"[11.733433509789462, -11.733433509789466]",11.733433509789462,-11.733433509789464,images/picture_3.png,2,"[-11.733433509789466, -11.733433509789462]",-11.733433509789464,-11.733433509789462,0,1,1,0.7779860520468458,1.7779860520468458,1.2220139479531542,3.0,1,1.5279860520468458,0,4.0,3.0,1,2,5,0,5,0,0,3,3,4,,,,,,,411.28494016698096,411.28494016698096,412.2995842919918,412.8186643329682,413.0329279579455,413.0329279579455,413.0329279579455,414.26634145795833,414.26634145795833,414.26634145795833,414.26634145795833,415.28500616701785,200003,104,2023-03-24_13h15.03.518,DMS_et_12-36,2022.2.4,None,
50,UNPRED,12,0.7779860520468458,2,images/picture_3.png,images/picture_1.png,0,"[-11.733433509789462, 11.733433509789464]",-11.733433509789462,11.733433509789464,images/picture_2.png,1,"[11.733433509789464, 11.733433509789462]",11.733433509789464,11.733433509789462,images/picture_3.png,2,"[-11.733433509789466, -11.733433509789462]",-11.733433509789464,-11.733433509789462,0,1,1,0.7779860520468458,1.7779860520468458,1.2220139479531542,3.0,1,1.5279860520468458,0,4.0,3.0,1,2,5,0,5,0,0,4,4,5,,,,,,,415.28500616701785,415.28500616701785,416.29965900001116,416.8184402079787,417.032686999999,417.032686999999,417.032686999999,418.2663655419601,418.2663655419601,418.2663655419601,418.2663655419601,419.26633662497625,200003,104,2023-03-24_13h15.03.518,DMS_et_12-36,2022.2.4,None,
45,UNPRED,12,0.7779860520468458,1,images/picture_2.png,images/picture_1.png,0,"[-11.733433509789466, -11.733433509789462]",-11.733433509789464,-11.733433509789462,images/picture_2.png,1,"[-11.733433509789462, 11.733433509789464]",-11.733433509789462,11.733433509789464,images/picture_3.png,2,"[11.733433509789462, -11.733433509789466]",11.733433509789462,-11.733433509789464,0,1,1,0.7779860520468458,1.7779860520468458,1.2220139479531542,3.0,1,1.5279860520468458,0,4.0,3.0,1,2,5,0,5,0,0,5,5,0,,,,,,,419.26633662497625,419.26633662497625,420.2663197920192,420.7996196669992,421.032910333015,421.032910333015,421.032910333015,422.2662622500211,422.2662622500211,422.2662622500211,422.2662622500211,423.28502212499734,200003,104,2023-03-24_13h15.03.518,DMS_et_12-36,2022.2.4,None,
46,UNPRED,12,0.7779860520468458,2,images/picture_3.png,images/picture_1.png,0,"[11.733433509789464, 11.733433509789462]",11.733433509789464,11.733433509789462,images/picture_2.png,1,"[-11.733433509789462, 11.733433509789464]",-11.733433509789462,11.733433509789464,images/picture_3.png,2,"[-11.733433509789466, -11.733433509789462]",-11.733433509789464,-11.733433509789462,0,1,1,0.7779860520468458,1.7779860520468458,1.2220139479531542,3.0,1,1.5279860520468458,0,4.0,3.0,1,2,5,0,5,0,0,6,6,1,,,,,,,423.28502212499734,423.28502212499734,424.2996378749376,424.8186993749114,425.0329801249318,425.0329801249318,425.0329801249318,426.2661653329851,426.2661653329851,426.2661653329851,426.2661653329851,427.26584449992515,200003,104,2023-03-24_13h15.03.518,DMS_et_12-36,2022.2.4,None,
51,UNPRED,12,0.7779860520468458,1,images/picture_2.png,images/picture_1.png,0,"[-11.733433509789462, 11.733433509789464]",-11.733433509789462,11.733433509789464,images/picture_2.png,1,"[11.733433509789464, 11.733433509789462]",11.733433509789464,11.733433509789462,images/picture_3.png,2,"[-11.733433509789466, -11.733433509789462]",-11.733433509789464,-11.733433509789462,0,1,1,0.7779860520468458,1.7779860520468458,1.2220139479531542,3.0,1,1.5279860520468458,0,4.0,3.0,1,2,5,0,5,0,0,7,7,6,,,,,,,427.26584449992515,427.26584449992515,428.2663487920072,428.799566041911,429.0329390829429,429.0329390829429,429.0329390829429,430.2663630419411,430.2663630419411,430.2663630419411,430.2663630419411,431.26577629195526,200003,104,2023-03-24_13h15.03.518,DMS_et_12-36,2022.2.4,None,
52,UNPRED,12,0.7779860520468458,0,images/picture_1.png,images/picture_1.png,0,"[-11.733433509789466, -11.733433509789462]",-11.733433509789464,-11.733433509789462,images/picture_2.png,1,"[11.733433509789464, 11.733433509789462]",11.733433509789464,11.733433509789462,images/picture_3.png,2,"[11.733433509789462, -11.733433509789466]",11.733433509789462,-11.733433509789464,0,1,1,0.7779860520468458,1.7779860520468458,1.2220139479531542,3.0,1,1.5279860520468458,0,4.0,3.0,1,2,5,0,5,0,0,8,8,7,,,,,,,431.26577629195526,431.26577629195526,432.26627687492874,432.799613457988,433.03290074993856,433.03290074993856,433.03290074993856,434.26633487502113,434.26633487502113,434.26633487502113,434.26633487502113,435.3374649999896,200003,104,2023-03-24_13h15.03.518,DMS_et_12-36,2022.2.4,None,
,,,,,,,,,,,,,,,,,,,,,,,,,,,,,,,,,,,5,0,5,0,,,,,,,,,435.3374649999896,447.3613029170083,,,,,,,,,,,,,200003,104,2023-03-24_13h15.03.518,DMS_et_12-36,2022.2.4,None,
62,PRED,12,0.7779860520468458,2,images/picture_3.png,images/picture_1.png,0,"[11.733433509789464, 11.733433509789462]",11.733433509789464,11.733433509789462,images/picture_2.png,1,"[-11.733433509789462, 11.733433509789464]",-11.733433509789462,11.733433509789464,images/picture_3.png,2,"[-11.733433509789466, -11.733433509789462]",-11.733433509789464,-11.733433509789462,0,1,1,0.7779860520468458,1.7779860520468458,1.2220139479531542,3.0,1,1.5279860520468458,0,4.0,3.0,1,2,6,0,6,0,0,0,0,8,,,,,,,447.3613029170083,447.3613029170083,448.3659395419527,448.89960887492634,449.13286116695963,449.13286116695963,449.13286116695963,450.3663461249089,450.3663461249089,450.3663461249089,450.3521750830114,451.384903332917,200003,104,2023-03-24_13h15.03.518,DMS_et_12-36,2022.2.4,None,
58,PRED,12,0.7779860520468458,2,images/picture_3.png,images/picture_1.png,0,"[-11.733433509789462, 11.733433509789464]",-11.733433509789462,11.733433509789464,images/picture_2.png,1,"[-11.733433509789466, -11.733433509789462]",-11.733433509789464,-11.733433509789462,images/picture_3.png,2,"[11.733433509789462, -11.733433509789466]",11.733433509789462,-11.733433509789464,0,1,1,0.7779860520468458,1.7779860520468458,1.2220139479531542,3.0,1,1.5279860520468458,0,4.0,3.0,1,2,6,0,6,0,0,1,1,4,,,,,,,451.384903332917,451.384903332917,452.3994516249513,452.9193085830193,453.1328828330152,453.1328828330152,453.1328828330152,454.36617016699165,454.36617016699165,454.36617016699165,454.36617016699165,455.38484624994453,200003,104,2023-03-24_13h15.03.518,DMS_et_12-36,2022.2.4,None,
59,PRED,12,0.7779860520468458,2,images/picture_3.png,images/picture_1.png,0,"[11.733433509789462, -11.733433509789466]",11.733433509789462,-11.733433509789464,images/picture_2.png,1,"[-11.733433509789462, 11.733433509789464]",-11.733433509789462,11.733433509789464,images/picture_3.png,2,"[11.733433509789464, 11.733433509789462]",11.733433509789464,11.733433509789462,0,1,1,0.7779860520468458,1.7779860520468458,1.2220139479531542,3.0,1,1.5279860520468458,0,4.0,3.0,1,2,6,0,6,0,0,2,2,5,,,,,,,455.38484624994453,455.38484624994453,456.39960762497503,456.91866441699676,457.1329097079579,457.1329097079579,457.1329097079579,458.36601904197596,458.36601904197596,458.36601904197596,458.36601904197596,459.38500104192644,200003,104,2023-03-24_13h15.03.518,DMS_et_12-36,2022.2.4,None,
54,PRED,12,0.7779860520468458,2,images/picture_3.png,images/picture_1.png,0,"[11.733433509789462, -11.733433509789466]",11.733433509789462,-11.733433509789464,images/picture_2.png,1,"[11.733433509789464, 11.733433509789462]",11.733433509789464,11.733433509789462,images/picture_3.png,2,"[-11.733433509789462, 11.733433509789464]",-11.733433509789462,11.733433509789464,0,1,1,0.7779860520468458,1.7779860520468458,1.2220139479531542,3.0,1,1.5279860520468458,0,4.0,3.0,1,2,6,0,6,0,0,3,3,0,,,,,,,459.38500104192644,459.38500104192644,460.3996051669819,460.9191245830152,461.1328684169566,461.1328684169566,461.1328684169566,462.3661277500214,462.3661277500214,462.3661277500214,462.3661277500214,463.38468858296983,200003,104,2023-03-24_13h15.03.518,DMS_et_12-36,2022.2.4,None,
60,PRED,12,0.7779860520468458,2,images/picture_3.png,images/picture_1.png,0,"[-11.733433509789462, 11.733433509789464]",-11.733433509789462,11.733433509789464,images/picture_2.png,1,"[-11.733433509789466, -11.733433509789462]",-11.733433509789464,-11.733433509789462,images/picture_3.png,2,"[11.733433509789462, -11.733433509789466]",11.733433509789462,-11.733433509789464,0,1,1,0.7779860520468458,1.7779860520468458,1.2220139479531542,3.0,1,1.5279860520468458,0,4.0,3.0,1,2,6,0,6,0,0,4,4,6,,,,,,,463.38468858296983,463.38468858296983,464.3995492499089,464.9186756249983,465.13287112500984,465.13287112500984,465.13287112500984,466.36637162498664,466.36637162498664,466.36637162498664,466.36637162498664,467.38493641698733,200003,104,2023-03-24_13h15.03.518,DMS_et_12-36,2022.2.4,None,
61,PRED,12,0.7779860520468458,2,images/picture_3.png,images/picture_1.png,0,"[11.733433509789462, -11.733433509789466]",11.733433509789462,-11.733433509789464,images/picture_2.png,1,"[-11.733433509789466, -11.733433509789462]",-11.733433509789464,-11.733433509789462,images/picture_3.png,2,"[-11.733433509789462, 11.733433509789464]",-11.733433509789462,11.733433509789464,0,1,1,0.7779860520468458,1.7779860520468458,1.2220139479531542,3.0,1,1.5279860520468458,0,4.0,3.0,1,2,6,0,6,0,0,5,5,7,,,,,,,467.38493641698733,467.38493641698733,468.3992621250218,468.9180536249187,469.133108332986,469.133108332986,469.133108332986,470.36591362499166,470.36591362499166,470.36591362499166,470.36591362499166,471.3853000419913,200003,104,2023-03-24_13h15.03.518,DMS_et_12-36,2022.2.4,None,
56,PRED,12,0.7779860520468458,2,images/picture_3.png,images/picture_1.png,0,"[-11.733433509789466, -11.733433509789462]",-11.733433509789464,-11.733433509789462,images/picture_2.png,1,"[11.733433509789462, -11.733433509789466]",11.733433509789462,-11.733433509789464,images/picture_3.png,2,"[11.733433509789464, 11.733433509789462]",11.733433509789464,11.733433509789462,0,1,1,0.7779860520468458,1.7779860520468458,1.2220139479531542,3.0,1,1.5279860520468458,0,4.0,3.0,1,2,6,0,6,0,0,6,6,2,,,,,,,471.3853000419913,471.3853000419913,472.3996043750085,472.91888787492644,473.1328744579805,473.1328744579805,473.1328744579805,474.36618612497114,474.36618612497114,474.36618612497114,474.36618612497114,475.384996082983,200003,104,2023-03-24_13h15.03.518,DMS_et_12-36,2022.2.4,None,
55,PRED,12,0.7779860520468458,2,images/picture_3.png,images/picture_1.png,0,"[11.733433509789464, 11.733433509789462]",11.733433509789464,11.733433509789462,images/picture_2.png,1,"[-11.733433509789462, 11.733433509789464]",-11.733433509789462,11.733433509789464,images/picture_3.png,2,"[-11.733433509789466, -11.733433509789462]",-11.733433509789464,-11.733433509789462,0,1,1,0.7779860520468458,1.7779860520468458,1.2220139479531542,3.0,1,1.5279860520468458,0,4.0,3.0,1,2,6,0,6,0,0,7,7,1,,,,,,,475.384996082983,475.384996082983,476.3992744999705,476.9188976249425,477.1329481669236,477.1329481669236,477.1329481669236,478.3659366669599,478.3659366669599,478.3659366669599,478.3659366669599,479.3850192920072,200003,104,2023-03-24_13h15.03.518,DMS_et_12-36,2022.2.4,None,
57,PRED,12,0.7779860520468458,2,images/picture_3.png,images/picture_1.png,0,"[11.733433509789464, 11.733433509789462]",11.733433509789464,11.733433509789462,images/picture_2.png,1,"[-11.733433509789466, -11.733433509789462]",-11.733433509789464,-11.733433509789462,images/picture_3.png,2,"[-11.733433509789462, 11.733433509789464]",-11.733433509789462,11.733433509789464,0,1,1,0.7779860520468458,1.7779860520468458,1.2220139479531542,3.0,1,1.5279860520468458,0,4.0,3.0,1,2,6,0,6,0,0,8,8,3,,,,,,,479.3850192920072,479.3850192920072,480.39971141691785,480.9188306250144,481.1328612079378,481.1328612079378,481.1328612079378,482.36602866696194,482.36602866696194,482.36602866696194,482.36602866696194,483.44066224992275,200003,104,2023-03-24_13h15.03.518,DMS_et_12-36,2022.2.4,None,
,,,,,,,,,,,,,,,,,,,,,,,,,,,,,,,,,,,6,0,6,0,,,,,,,,,483.44066224992275,495.4696809579618,,,,,,,,,,,,,200003,104,2023-03-24_13h15.03.518,DMS_et_12-36,2022.2.4,None,
66,UNPRED,12,0.7779860520468458,0,images/picture_1.png,images/picture_1.png,0,"[11.733433509789464, 11.733433509789462]",11.733433509789464,11.733433509789462,images/picture_2.png,1,"[-11.733433509789462, 11.733433509789464]",-11.733433509789462,11.733433509789464,images/picture_3.png,2,"[11.733433509789462, -11.733433509789466]",11.733433509789462,-11.733433509789464,0,1,1,0.7779860520468458,1.7779860520468458,1.2220139479531542,3.0,1,1.5279860520468458,0,4.0,3.0,1,2,7,0,7,0,0,0,0,3,,,,,,,495.4696809579618,495.4696809579618,496.4664219999686,496.9996631249087,497.25209616695065,497.25209616695065,497.25209616695065,498.4853582920041,498.4853582920041,498.4853582920041,498.4661688749911,499.4847981670173,200003,104,2023-03-24_13h15.03.518,DMS_et_12-36,2022.2.4,None,
71,UNPRED,12,0.7779860520468458,2,images/picture_3.png,images/picture_1.png,0,"[11.733433509789462, -11.733433509789466]",11.733433509789462,-11.733433509789464,images/picture_2.png,1,"[-11.733433509789466, -11.733433509789462]",-11.733433509789464,-11.733433509789462,images/picture_3.png,2,"[11.733433509789464, 11.733433509789462]",11.733433509789464,11.733433509789462,0,1,1,0.7779860520468458,1.7779860520468458,1.2220139479531542,3.0,1,1.5279860520468458,0,4.0,3.0,1,2,7,0,7,0,0,1,1,8,,,,,,,499.4847981670173,499.4847981670173,500.4997124999063,501.0188451249851,501.23293283290695,501.23293283290695,501.23293283290695,502.46622558298986,502.46622558298986,502.46622558298986,502.46622558298986,503.46565037500113,200003,104,2023-03-24_13h15.03.518,DMS_et_12-36,2022.2.4,None,
63,UNPRED,12,0.7779860520468458,0,images/picture_1.png,images/picture_1.png,0,"[11.733433509789464, 11.733433509789462]",11.733433509789464,11.733433509789462,images/picture_2.png,1,"[11.733433509789462, -11.733433509789466]",11.733433509789462,-11.733433509789464,images/picture_3.png,2,"[-11.733433509789466, -11.733433509789462]",-11.733433509789464,-11.733433509789462,0,1,1,0.7779860520468458,1.7779860520468458,1.2220139479531542,3.0,1,1.5279860520468458,0,4.0,3.0,1,2,7,0,7,0,0,2,2,0,,,,,,,503.46565037500113,503.46565037500113,504.46617183298804,504.99968045798596,505.23289604193997,505.23289604193997,505.23289604193997,506.46618779201526,506.46618779201526,506.46618779201526,506.46618779201526,507.48535070801154,200003,104,2023-03-24_13h15.03.518,DMS_et_12-36,2022.2.4,None,
65,UNPRED,12,0.7779860520468458,2,images/picture_3.png,images/picture_1.png,0,"[-11.733433509789462, 11.733433509789464]",-11.733433509789462,11.733433509789464,images/picture_2.png,1,"[-11.733433509789466, -11.733433509789462]",-11.733433509789464,-11.733433509789462,images/picture_3.png,2,"[11.733433509789462, -11.733433509789466]",11.733433509789462,-11.733433509789464,0,1,1,0.7779860520468458,1.7779860520468458,1.2220139479531542,3.0,1,1.5279860520468458,0,4.0,3.0,1,2,7,0,7,0,0,3,3,2,,,,,,,507.48535070801154,507.48535070801154,508.4994952499401,509.018309667008,509.2326007919619,509.2326007919619,509.2326007919619,510.46618133294396,510.46618133294396,510.46618133294396,510.46618133294396,511.4847747499589,200003,104,2023-03-24_13h15.03.518,DMS_et_12-36,2022.2.4,None,
70,UNPRED,12,0.7779860520468458,2,images/picture_3.png,images/picture_1.png,0,"[-11.733433509789462, 11.733433509789464]",-11.733433509789462,11.733433509789464,images/picture_2.png,1,"[-11.733433509789466, -11.733433509789462]",-11.733433509789464,-11.733433509789462,images/picture_3.png,2,"[11.733433509789462, -11.733433509789466]",11.733433509789462,-11.733433509789464,0,1,1,0.7779860520468458,1.7779860520468458,1.2220139479531542,3.0,1,1.5279860520468458,0,4.0,3.0,1,2,7,0,7,0,0,4,4,7,,,,,,,511.4847747499589,511.4847747499589,512.4994446670171,513.0190444999607,513.2329044169746,513.2329044169746,513.2329044169746,514.4663607919356,514.4663607919356,514.4663607919356,514.4663607919356,515.4662260420155,200003,104,2023-03-24_13h15.03.518,DMS_et_12-36,2022.2.4,None,
67,UNPRED,12,0.7779860520468458,1,images/picture_2.png,images/picture_1.png,0,"[-11.733433509789462, 11.733433509789464]",-11.733433509789462,11.733433509789464,images/picture_2.png,1,"[-11.733433509789466, -11.733433509789462]",-11.733433509789464,-11.733433509789462,images/picture_3.png,2,"[11.733433509789462, -11.733433509789466]",11.733433509789462,-11.733433509789464,0,1,1,0.7779860520468458,1.7779860520468458,1.2220139479531542,3.0,1,1.5279860520468458,0,4.0,3.0,1,2,7,0,7,0,0,5,5,4,,,,,,,515.4662260420155,515.4662260420155,516.4661857079482,516.9996515829116,517.2329329169588,517.2329329169588,517.2329329169588,518.4664388329256,518.4664388329256,518.4664388329256,518.4664388329256,519.4854181669652,200003,104,2023-03-24_13h15.03.518,DMS_et_12-36,2022.2.4,None,
68,UNPRED,12,0.7779860520468458,2,images/picture_3.png,images/picture_1.png,0,"[-11.733433509789466, -11.733433509789462]",-11.733433509789464,-11.733433509789462,images/picture_2.png,1,"[11.733433509789462, -11.733433509789466]",11.733433509789462,-11.733433509789464,images/picture_3.png,2,"[-11.733433509789462, 11.733433509789464]",-11.733433509789462,11.733433509789464,0,1,1,0.7779860520468458,1.7779860520468458,1.2220139479531542,3.0,1,1.5279860520468458,0,4.0,3.0,1,2,7,0,7,0,0,6,6,5,,,,,,,519.4854181669652,519.4854181669652,520.4996341249207,521.0180842499249,521.2327619999414,521.2327619999414,521.2327619999414,522.4661708750064,522.4661708750064,522.4661708750064,522.4661708750064,523.4658780419268,200003,104,2023-03-24_13h15.03.518,DMS_et_12-36,2022.2.4,None,
69,UNPRED,12,0.7779860520468458,0,images/picture_1.png,images/picture_1.png,0,"[11.733433509789462, -11.733433509789466]",11.733433509789462,-11.733433509789464,images/picture_2.png,1,"[-11.733433509789462, 11.733433509789464]",-11.733433509789462,11.733433509789464,images/picture_3.png,2,"[11.733433509789464, 11.733433509789462]",11.733433509789464,11.733433509789462,0,1,1,0.7779860520468458,1.7779860520468458,1.2220139479531542,3.0,1,1.5279860520468458,0,4.0,3.0,1,2,7,0,7,0,0,7,7,6,,,,,,,523.4658780419268,523.4658780419268,524.4662249169778,524.9997413329547,525.2328890829813,525.2328890829813,525.2328890829813,526.4663537499728,526.4663537499728,526.4663537499728,526.4663537499728,527.4659538329579,200003,104,2023-03-24_13h15.03.518,DMS_et_12-36,2022.2.4,None,
64,UNPRED,12,0.7779860520468458,0,images/picture_1.png,images/picture_1.png,0,"[-11.733433509789466, -11.733433509789462]",-11.733433509789464,-11.733433509789462,images/picture_2.png,1,"[11.733433509789464, 11.733433509789462]",11.733433509789464,11.733433509789462,images/picture_3.png,2,"[11.733433509789462, -11.733433509789466]",11.733433509789462,-11.733433509789464,0,1,1,0.7779860520468458,1.7779860520468458,1.2220139479531542,3.0,1,1.5279860520468458,0,4.0,3.0,1,2,7,0,7,0,0,8,8,1,,,,,,,527.4659538329579,527.4659538329579,528.4663051249227,528.999624082935,529.2328979580197,529.2328979580197,529.2328979580197,530.4659975420218,530.4659975420218,530.4659975420218,530.4659975420218,531.5575380829396,200003,104,2023-03-24_13h15.03.518,DMS_et_12-36,2022.2.4,None,
,,,,,,,,,,,,,,,,,,,,,,,,,,,,,,,,,,,7,0,7,0,,,,,,,,,531.5575380829396,543.5856160830008,,,,,,,,,,,,,200003,104,2023-03-24_13h15.03.518,DMS_et_12-36,2022.2.4,None,
77,PRED,12,0.7779860520468458,1,images/picture_2.png,images/picture_1.png,0,"[11.733433509789462, -11.733433509789466]",11.733433509789462,-11.733433509789464,images/picture_2.png,1,"[-11.733433509789462, 11.733433509789464]",-11.733433509789462,11.733433509789464,images/picture_3.png,2,"[11.733433509789464, 11.733433509789462]",11.733433509789464,11.733433509789462,0,1,1,0.7779860520468458,1.7779860520468458,1.2220139479531542,3.0,1,1.5279860520468458,0,4.0,3.0,1,2,8,0,8,0,0,0,0,5,,,,,,,543.5856160830008,543.5856160830008,544.5995924579911,545.1193375419825,545.3658737919759,545.3658737919759,545.3658737919759,546.6019241249887,546.6019241249887,546.6019241249887,546.5860137919663,547.5989315420156,200003,104,2023-03-24_13h15.03.518,DMS_et_12-36,2022.2.4,None,
72,PRED,12,0.7779860520468458,1,images/picture_2.png,images/picture_1.png,0,"[11.733433509789462, -11.733433509789466]",11.733433509789462,-11.733433509789464,images/picture_2.png,1,"[-11.733433509789462, 11.733433509789464]",-11.733433509789462,11.733433509789464,images/picture_3.png,2,"[-11.733433509789466, -11.733433509789462]",-11.733433509789464,-11.733433509789462,0,1,1,0.7779860520468458,1.7779860520468458,1.2220139479531542,3.0,1,1.5279860520468458,0,4.0,3.0,1,2,8,0,8,0,0,1,1,0,,,,,,,547.5989315420156,547.5989315420156,548.5995261250064,549.1330133749871,549.3662097079214,549.3662097079214,549.3662097079214,550.5993257499067,550.5993257499067,550.5993257499067,550.5993257499067,551.5989492919762,200003,104,2023-03-24_13h15.03.518,DMS_et_12-36,2022.2.4,None,
79,PRED,12,0.7779860520468458,1,images/picture_2.png,images/picture_1.png,0,"[-11.733433509789466, -11.733433509789462]",-11.733433509789464,-11.733433509789462,images/picture_2.png,1,"[-11.733433509789462, 11.733433509789464]",-11.733433509789462,11.733433509789464,images/picture_3.png,2,"[11.733433509789464, 11.733433509789462]",11.733433509789464,11.733433509789462,0,1,1,0.7779860520468458,1.7779860520468458,1.2220139479531542,3.0,1,1.5279860520468458,0,4.0,3.0,1,2,8,0,8,0,0,2,2,7,,,,,,,551.5989492919762,551.5989492919762,552.5995894999942,553.1392424169462,553.3662606249563,553.3662606249563,553.3662606249563,554.599710832932,554.599710832932,554.599710832932,554.599710832932,555.599022832932,200003,104,2023-03-24_13h15.03.518,DMS_et_12-36,2022.2.4,None,
78,PRED,12,0.7779860520468458,1,images/picture_2.png,images/picture_1.png,0,"[11.733433509789464, 11.733433509789462]",11.733433509789464,11.733433509789462,images/picture_2.png,1,"[-11.733433509789462, 11.733433509789464]",-11.733433509789462,11.733433509789464,images/picture_3.png,2,"[11.733433509789462, -11.733433509789466]",11.733433509789462,-11.733433509789464,0,1,1,0.7779860520468458,1.7779860520468458,1.2220139479531542,3.0,1,1.5279860520468458,0,4.0,3.0,1,2,8,0,8,0,0,3,3,6,,,,,,,555.599022832932,555.599022832932,556.5997604579898,557.1331012499286,557.3659991669701,557.3659991669701,557.3659991669701,558.5997692079982,558.5997692079982,558.5997692079982,558.5997692079982,559.599149000016,200003,104,2023-03-24_13h15.03.518,DMS_et_12-36,2022.2.4,None,
76,PRED,12,0.7779860520468458,1,images/picture_2.png,images/picture_1.png,0,"[11.733433509789464, 11.733433509789462]",11.733433509789464,11.733433509789462,images/picture_2.png,1,"[-11.733433509789466, -11.733433509789462]",-11.733433509789464,-11.733433509789462,images/picture_3.png,2,"[11.733433509789462, -11.733433509789466]",11.733433509789462,-11.733433509789464,0,1,1,0.7779860520468458,1.7779860520468458,1.2220139479531542,3.0,1,1.5279860520468458,0,4.0,3.0,1,2,8,0,8,0,0,4,4,4,,,,,,,559.599149000016,559.599149000016,560.5993268749444,561.1325767500093,561.3660670419922,561.3660670419922,561.3660670419922,562.5995854579378,562.5995854579378,562.5995854579378,562.5995854579378,563.5989141250029,200003,104,2023-03-24_13h15.03.518,DMS_et_12-36,2022.2.4,None,
75,PRED,12,0.7779860520468458,1,images/picture_2.png,images/picture_1.png,0,"[-11.733433509789466, -11.733433509789462]",-11.733433509789464,-11.733433509789462,images/picture_2.png,1,"[-11.733433509789462, 11.733433509789464]",-11.733433509789462,11.733433509789464,images/picture_3.png,2,"[11.733433509789462, -11.733433509789466]",11.733433509789462,-11.733433509789464,0,1,1,0.7779860520468458,1.7779860520468458,1.2220139479531542,3.0,1,1.5279860520468458,0,4.0,3.0,1,2,8,0,8,0,0,5,5,3,,,,,,,563.5989141250029,563.5989141250029,564.5996125829406,565.1328749579843,565.3661767499289,565.3661767499289,565.3661767499289,566.5996376249241,566.5996376249241,566.5996376249241,566.5996376249241,567.5990862499457,200003,104,2023-03-24_13h15.03.518,DMS_et_12-36,2022.2.4,None,
73,PRED,12,0.7779860520468458,1,images/picture_2.png,images/picture_1.png,0,"[-11.733433509789466, -11.733433509789462]",-11.733433509789464,-11.733433509789462,images/picture_2.png,1,"[-11.733433509789462, 11.733433509789464]",-11.733433509789462,11.733433509789464,images/picture_3.png,2,"[11.733433509789462, -11.733433509789466]",11.733433509789462,-11.733433509789464,0,1,1,0.7779860520468458,1.7779860520468458,1.2220139479531542,3.0,1,1.5279860520468458,0,4.0,3.0,1,2,8,0,8,0,0,6,6,1,,,,,,,567.5990862499457,567.5990862499457,568.5996259169187,569.1329889169428,569.3659200000111,569.3659200000111,569.3659200000111,570.5991993329953,570.5991993329953,570.5991993329953,570.5991993329953,571.5993022499606,200003,104,2023-03-24_13h15.03.518,DMS_et_12-36,2022.2.4,None,
74,PRED,12,0.7779860520468458,1,images/picture_2.png,images/picture_1.png,0,"[11.733433509789462, -11.733433509789466]",11.733433509789462,-11.733433509789464,images/picture_2.png,1,"[-11.733433509789462, 11.733433509789464]",-11.733433509789462,11.733433509789464,images/picture_3.png,2,"[-11.733433509789466, -11.733433509789462]",-11.733433509789464,-11.733433509789462,0,1,1,0.7779860520468458,1.7779860520468458,1.2220139479531542,3.0,1,1.5279860520468458,0,4.0,3.0,1,2,8,0,8,0,0,7,7,2,,,,,,,571.5993022499606,571.5993022499606,572.5996419169242,573.1328769579995,573.366414832999,573.366414832999,573.366414832999,574.5995197499869,574.5995197499869,574.5995197499869,574.5995197499869,575.5991213329835,200003,104,2023-03-24_13h15.03.518,DMS_et_12-36,2022.2.4,None,
80,PRED,12,0.7779860520468458,1,images/picture_2.png,images/picture_1.png,0,"[11.733433509789464, 11.733433509789462]",11.733433509789464,11.733433509789462,images/picture_2.png,1,"[-11.733433509789462, 11.733433509789464]",-11.733433509789462,11.733433509789464,images/picture_3.png,2,"[11.733433509789462, -11.733433509789466]",11.733433509789462,-11.733433509789464,0,1,1,0.7779860520468458,1.7779860520468458,1.2220139479531542,3.0,1,1.5279860520468458,0,4.0,3.0,1,2,8,0,8,0,0,8,8,8,,,,,,,575.5991213329835,575.5991213329835,576.5998303749366,577.1330854169792,577.3664313749177,577.3664313749177,577.3664313749177,578.5996554580051,578.5996554580051,578.5996554580051,578.5996554580051,579.6935014579212,200003,104,2023-03-24_13h15.03.518,DMS_et_12-36,2022.2.4,None,
,,,,,,,,,,,,,,,,,,,,,,,,,,,,,,,,,,,8,0,8,0,,,,,,,,,579.6935014579212,591.7184676249744,,,,,,,,,,,,,200003,104,2023-03-24_13h15.03.518,DMS_et_12-36,2022.2.4,None,
85,UNPRED,12,0.7779860520468458,0,images/picture_1.png,images/picture_1.png,0,"[-11.733433509789466, -11.733433509789462]",-11.733433509789464,-11.733433509789462,images/picture_2.png,1,"[-11.733433509789462, 11.733433509789464]",-11.733433509789462,11.733433509789464,images/picture_3.png,2,"[11.733433509789462, -11.733433509789466]",11.733433509789462,-11.733433509789464,0,1,1,0.7779860520468458,1.7779860520468458,1.2220139479531542,3.0,1,1.5279860520468458,0,4.0,3.0,1,2,9,0,9,0,0,0,0,4,,,,,,,591.7184676249744,591.7184676249744,592.7328222079668,593.2522999579087,593.4852579999715,593.4852579999715,593.4852579999715,594.7188704169821,594.7188704169821,594.7188704169821,594.6996388749685,595.6990397080081,200003,104,2023-03-24_13h15.03.518,DMS_et_12-36,2022.2.4,None,
82,UNPRED,12,0.7779860520468458,0,images/picture_1.png,images/picture_1.png,0,"[11.733433509789464, 11.733433509789462]",11.733433509789464,11.733433509789462,images/picture_2.png,1,"[-11.733433509789466, -11.733433509789462]",-11.733433509789464,-11.733433509789462,images/picture_3.png,2,"[-11.733433509789462, 11.733433509789464]",-11.733433509789462,11.733433509789464,0,1,1,0.7779860520468458,1.7779860520468458,1.2220139479531542,3.0,1,1.5279860520468458,0,4.0,3.0,1,2,9,0,9,0,0,1,1,1,,,,,,,595.6990397080081,595.6990397080081,596.6995818329742,597.232905791956,597.4661559999222,597.4661559999222,597.4661559999222,598.6996124169091,598.6996124169091,598.6996124169091,598.6996124169091,599.7181879169075,200003,104,2023-03-24_13h15.03.518,DMS_et_12-36,2022.2.4,None,
87,UNPRED,12,0.7779860520468458,2,images/picture_3.png,images/picture_1.png,0,"[-11.733433509789462, 11.733433509789464]",-11.733433509789462,11.733433509789464,images/picture_2.png,1,"[11.733433509789462, -11.733433509789466]",11.733433509789462,-11.733433509789464,images/picture_3.png,2,"[-11.733433509789466, -11.733433509789462]",-11.733433509789464,-11.733433509789462,0,1,1,0.7779860520468458,1.7779860520468458,1.2220139479531542,3.0,1,1.5279860520468458,0,4.0,3.0,1,2,9,0,9,0,0,2,2,6,,,,,,,599.7181879169075,599.7181879169075,600.7331375830108,601.2520746670198,601.4659541669535,601.4659541669535,601.4659541669535,602.6996502499096,602.6996502499096,602.6996502499096,602.6996502499096,603.7180730829714,200003,104,2023-03-24_13h15.03.518,DMS_et_12-36,2022.2.4,None,
86,UNPRED,12,0.7779860520468458,2,images/picture_3.png,images/picture_1.png,0,"[-11.733433509789462, 11.733433509789464]",-11.733433509789462,11.733433509789464,images/picture_2.png,1,"[11.733433509789464, 11.733433509789462]",11.733433509789464,11.733433509789462,images/picture_3.png,2,"[-11.733433509789466, -11.733433509789462]",-11.733433509789464,-11.733433509789462,0,1,1,0.7779860520468458,1.7779860520468458,1.2220139479531542,3.0,1,1.5279860520468458,0,4.0,3.0,1,2,9,0,9,0,0,3,3,5,,,,,,,603.7180730829714,603.7180730829714,604.7328741250094,605.2521848749602,605.4661897919141,605.4661897919141,605.4661897919141,606.6996514169732,606.6996514169732,606.6996514169732,606.6996514169732,607.718865416944,200003,104,2023-03-24_13h15.03.518,DMS_et_12-36,2022.2.4,None,
89,UNPRED,12,0.7779860520468458,2,images/picture_3.png,images/picture_1.png,0,"[11.733433509789462, -11.733433509789466]",11.733433509789462,-11.733433509789464,images/picture_2.png,1,"[-11.733433509789466, -11.733433509789462]",-11.733433509789464,-11.733433509789462,images/picture_3.png,2,"[-11.733433509789462, 11.733433509789464]",-11.733433509789462,11.733433509789464,0,1,1,0.7779860520468458,1.7779860520468458,1.2220139479531542,3.0,1,1.5279860520468458,0,4.0,3.0,1,2,9,0,9,0,0,4,4,8,,,,,,,607.718865416944,607.718865416944,608.7328981249593,609.2521940829465,609.4661642080173,609.4661642080173,609.4661642080173,610.699616207974,610.699616207974,610.699616207974,610.699616207974,611.699259749963,200003,104,2023-03-24_13h15.03.518,DMS_et_12-36,2022.2.4,None,
81,UNPRED,12,0.7779860520468458,1,images/picture_2.png,images/picture_1.png,0,"[-11.733433509789466, -11.733433509789462]",-11.733433509789464,-11.733433509789462,images/picture_2.png,1,"[-11.733433509789462, 11.733433509789464]",-11.733433509789462,11.733433509789464,images/picture_3.png,2,"[11.733433509789462, -11.733433509789466]",11.733433509789462,-11.733433509789464,0,1,1,0.7779860520468458,1.7779860520468458,1.2220139479531542,3.0,1,1.5279860520468458,0,4.0,3.0,1,2,9,0,9,0,0,5,5,0,,,,,,,611.699259749963,611.699259749963,612.6993937499356,613.2329167500138,613.4662018329836,613.4662018329836,613.4662018329836,614.6996408749837,614.6996408749837,614.6996408749837,614.6996408749837,615.6990174169187,200003,104,2023-03-24_13h15.03.518,DMS_et_12-36,2022.2.4,None,
88,UNPRED,12,0.7779860520468458,0,images/picture_1.png,images/picture_1.png,0,"[11.733433509789464, 11.733433509789462]",11.733433509789464,11.733433509789462,images/picture_2.png,1,"[11.733433509789462, -11.733433509789466]",11.733433509789462,-11.733433509789464,images/picture_3.png,2,"[-11.733433509789466, -11.733433509789462]",-11.733433509789464,-11.733433509789462,0,1,1,0.7779860520468458,1.7779860520468458,1.2220139479531542,3.0,1,1.5279860520468458,0,4.0,3.0,1,2,9,0,9,0,0,6,6,7,,,,,,,615.6990174169187,615.6990174169187,616.6996492500184,617.2329155829502,617.4662868749583,617.4662868749583,617.4662868749583,618.6995955000166,618.6995955000166,618.6995955000166,618.6995955000166,619.7181599169271,200003,104,2023-03-24_13h15.03.518,DMS_et_12-36,2022.2.4,None,
83,UNPRED,12,0.7779860520468458,2,images/picture_3.png,images/picture_1.png,0,"[-11.733433509789466, -11.733433509789462]",-11.733433509789464,-11.733433509789462,images/picture_2.png,1,"[-11.733433509789462, 11.733433509789464]",-11.733433509789462,11.733433509789464,images/picture_3.png,2,"[11.733433509789462, -11.733433509789466]",11.733433509789462,-11.733433509789464,0,1,1,0.7779860520468458,1.7779860520468458,1.2220139479531542,3.0,1,1.5279860520468458,0,4.0,3.0,1,2,9,0,9,0,0,7,7,2,,,,,,,619.7181599169271,619.7181599169271,620.732892,621.2521058749408,621.4663253750186,621.4663253750186,621.4663253750186,622.6993859169306,622.6993859169306,622.6993859169306,622.6993859169306,623.718892041943,200003,104,2023-03-24_13h15.03.518,DMS_et_12-36,2022.2.4,None,
84,UNPRED,12,0.7779860520468458,2,images/picture_3.png,images/picture_1.png,0,"[-11.733433509789462, 11.733433509789464]",-11.733433509789462,11.733433509789464,images/picture_2.png,1,"[11.733433509789462, -11.733433509789466]",11.733433509789462,-11.733433509789464,images/picture_3.png,2,"[11.733433509789464, 11.733433509789462]",11.733433509789464,11.733433509789462,0,1,1,0.7779860520468458,1.7779860520468458,1.2220139479531542,3.0,1,1.5279860520468458,0,4.0,3.0,1,2,9,0,9,0,0,8,8,3,,,,,,,623.718892041943,623.718892041943,624.7329061250202,625.2523691669339,625.4661737919087,625.4661737919087,625.4661737919087,626.6996164169395,626.6996164169395,626.6996164169395,626.6996164169395,627.8036920420127,200003,104,2023-03-24_13h15.03.518,DMS_et_12-36,2022.2.4,None,
,,,,,,,,,,,,,,,,,,,,,,,,,,,,,,,,,,,9,0,9,0,,,,,,,,,627.8036920420127,639.8394203329226,,,,,,,,,,,,,200003,104,2023-03-24_13h15.03.518,DMS_et_12-36,2022.2.4,None,
96,PRED,12,0.7779860520468458,0,images/picture_1.png,images/picture_1.png,0,"[11.733433509789464, 11.733433509789462]",11.733433509789464,11.733433509789462,images/picture_2.png,1,"[11.733433509789462, -11.733433509789466]",11.733433509789462,-11.733433509789464,images/picture_3.png,2,"[-11.733433509789466, -11.733433509789462]",-11.733433509789464,-11.733433509789462,0,1,1,0.7779860520468458,1.7779860520468458,1.2220139479531542,3.0,1,1.5279860520468458,0,4.0,3.0,1,2,10,0,10,0,0,0,0,6,,,,,,,639.8394203329226,639.8394203329226,640.8521801669849,641.3660276249284,641.6183634169865,641.6183634169865,641.6183634169865,642.851785833016,642.851785833016,642.851785833016,642.8326457499061,643.832304792013,200003,104,2023-03-24_13h15.03.518,DMS_et_12-36,2022.2.4,None,
97,PRED,12,0.7779860520468458,0,images/picture_1.png,images/picture_1.png,0,"[11.733433509789464, 11.733433509789462]",11.733433509789464,11.733433509789462,images/picture_2.png,1,"[-11.733433509789466, -11.733433509789462]",-11.733433509789464,-11.733433509789462,images/picture_3.png,2,"[-11.733433509789462, 11.733433509789464]",-11.733433509789462,11.733433509789464,0,1,1,0.7779860520468458,1.7779860520468458,1.2220139479531542,3.0,1,1.5279860520468458,0,4.0,3.0,1,2,10,0,10,0,0,1,1,7,,,,,,,643.832304792013,643.832304792013,644.8329134170199,645.3661946249194,645.5996610419825,645.5996610419825,645.5996610419825,646.8330837920075,646.8330837920075,646.8330837920075,646.8330837920075,647.8325469999108,200003,104,2023-03-24_13h15.03.518,DMS_et_12-36,2022.2.4,None,
90,PRED,12,0.7779860520468458,0,images/picture_1.png,images/picture_1.png,0,"[-11.733433509789462, 11.733433509789464]",-11.733433509789462,11.733433509789464,images/picture_2.png,1,"[-11.733433509789466, -11.733433509789462]",-11.733433509789464,-11.733433509789462,images/picture_3.png,2,"[11.733433509789462, -11.733433509789466]",11.733433509789462,-11.733433509789464,0,1,1,0.7779860520468458,1.7779860520468458,1.2220139479531542,3.0,1,1.5279860520468458,0,4.0,3.0,1,2,10,0,10,0,0,2,2,0,,,,,,,647.8325469999108,647.8325469999108,648.8328833749983,649.3663393749157,649.5995954999235,649.5995954999235,649.5995954999235,650.8328822919866,650.8328822919866,650.8328822919866,650.8328822919866,651.8324392079376,200003,104,2023-03-24_13h15.03.518,DMS_et_12-36,2022.2.4,None,
98,PRED,12,0.7779860520468458,0,images/picture_1.png,images/picture_1.png,0,"[-11.733433509789462, 11.733433509789464]",-11.733433509789462,11.733433509789464,images/picture_2.png,1,"[11.733433509789464, 11.733433509789462]",11.733433509789464,11.733433509789462,images/picture_3.png,2,"[11.733433509789462, -11.733433509789466]",11.733433509789462,-11.733433509789464,0,1,1,0.7779860520468458,1.7779860520468458,1.2220139479531542,3.0,1,1.5279860520468458,0,4.0,3.0,1,2,10,0,10,0,0,3,3,8,,,,,,,651.8324392079376,651.8324392079376,652.8326727079693,653.3659213749925,653.5993241670076,653.5993241670076,653.5993241670076,654.8330526669743,654.8330526669743,654.8330526669743,654.8330526669743,655.832323999959,200003,104,2023-03-24_13h15.03.518,DMS_et_12-36,2022.2.4,None,
91,PRED,12,0.7779860520468458,0,images/picture_1.png,images/picture_1.png,0,"[11.733433509789462, -11.733433509789466]",11.733433509789462,-11.733433509789464,images/picture_2.png,1,"[11.733433509789464, 11.733433509789462]",11.733433509789464,11.733433509789462,images/picture_3.png,2,"[-11.733433509789466, -11.733433509789462]",-11.733433509789464,-11.733433509789462,0,1,1,0.7779860520468458,1.7779860520468458,1.2220139479531542,3.0,1,1.5279860520468458,0,4.0,3.0,1,2,10,0,10,0,0,4,4,1,,,,,,,655.832323999959,655.832323999959,656.8328797919676,657.3663100829581,657.5996089999098,657.5996089999098,657.5996089999098,658.8329528749455,658.8329528749455,658.8329528749455,658.8329528749455,659.8325539999641,200003,104,2023-03-24_13h15.03.518,DMS_et_12-36,2022.2.4,None,
92,PRED,12,0.7779860520468458,0,images/picture_1.png,images/picture_1.png,0,"[11.733433509789462, -11.733433509789466]",11.733433509789462,-11.733433509789464,images/picture_2.png,1,"[-11.733433509789462, 11.733433509789464]",-11.733433509789462,11.733433509789464,images/picture_3.png,2,"[-11.733433509789466, -11.733433509789462]",-11.733433509789464,-11.733433509789462,0,1,1,0.7779860520468458,1.7779860520468458,1.2220139479531542,3.0,1,1.5279860520468458,0,4.0,3.0,1,2,10,0,10,0,0,5,5,2,,,,,,,659.8325539999641,659.8325539999641,660.833067541942,661.3661369169131,661.5996136249742,661.5996136249742,661.5996136249742,662.8329003329854,662.8329003329854,662.8329003329854,662.8329003329854,663.8325837919256,200003,104,2023-03-24_13h15.03.518,DMS_et_12-36,2022.2.4,None,
94,PRED,12,0.7779860520468458,0,images/picture_1.png,images/picture_1.png,0,"[-11.733433509789466, -11.733433509789462]",-11.733433509789464,-11.733433509789462,images/picture_2.png,1,"[11.733433509789464, 11.733433509789462]",11.733433509789464,11.733433509789462,images/picture_3.png,2,"[-11.733433509789462, 11.733433509789464]",-11.733433509789462,11.733433509789464,0,1,1,0.7779860520468458,1.7779860520468458,1.2220139479531542,3.0,1,1.5279860520468458,0,4.0,3.0,1,2,10,0,10,0,0,6,6,4,,,,,,,663.8325837919256,663.8325837919256,664.8328701249557,665.3661031669471,665.599487499916,665.599487499916,665.599487499916,666.8329137079418,666.8329137079418,666.8329137079418,666.8329137079418,667.8323111250065,200003,104,2023-03-24_13h15.03.518,DMS_et_12-36,2022.2.4,None,
95,PRED,12,0.7779860520468458,0,images/picture_1.png,images/picture_1.png,0,"[-11.733433509789466, -11.733433509789462]",-11.733433509789464,-11.733433509789462,images/picture_2.png,1,"[11.733433509789462, -11.733433509789466]",11.733433509789462,-11.733433509789464,images/picture_3.png,2,"[11.733433509789464, 11.733433509789462]",11.733433509789464,11.733433509789462,0,1,1,0.7779860520468458,1.7779860520468458,1.2220139479531542,3.0,1,1.5279860520468458,0,4.0,3.0,1,2,10,0,10,0,0,7,7,5,,,,,,,667.8323111250065,667.8323111250065,668.8328936669277,669.3663033329649,669.5995660829358,669.5995660829358,669.5995660829358,670.8331309999339,670.8331309999339,670.8331309999339,670.8331309999339,671.8323132079095,200003,104,2023-03-24_13h15.03.518,DMS_et_12-36,2022.2.4,None,
93,PRED,12,0.7779860520468458,0,images/picture_1.png,images/picture_1.png,0,"[-11.733433509789462, 11.733433509789464]",-11.733433509789462,11.733433509789464,images/picture_2.png,1,"[11.733433509789464, 11.733433509789462]",11.733433509789464,11.733433509789462,images/picture_3.png,2,"[-11.733433509789466, -11.733433509789462]",-11.733433509789464,-11.733433509789462,0,1,1,0.7779860520468458,1.7779860520468458,1.2220139479531542,3.0,1,1.5279860520468458,0,4.0,3.0,1,2,10,0,10,0,0,8,8,3,,,,,,,671.8323132079095,671.8323132079095,672.8328900829656,673.3659491249127,673.5990525420057,673.5990525420057,673.5990525420057,674.8329137919936,674.8329137919936,674.8329137919936,674.8329137919936,675.945341499988,200003,104,2023-03-24_13h15.03.518,DMS_et_12-36,2022.2.4,None,
,,,,,,,,,,,,,,,,,,,,,,,,,,,,,,,,,,,10,0,10,0,,,,,,,,,675.945341499988,687.9676324579632,,,,,,,,,,,,,200003,104,2023-03-24_13h15.03.518,DMS_et_12-36,2022.2.4,None,
107,UNPRED,12,0.7779860520468458,0,images/picture_1.png,images/picture_1.png,0,"[11.733433509789464, 11.733433509789462]",11.733433509789464,11.733433509789462,images/picture_2.png,1,"[-11.733433509789462, 11.733433509789464]",-11.733433509789462,11.733433509789464,images/picture_3.png,2,"[11.733433509789462, -11.733433509789466]",11.733433509789462,-11.733433509789464,0,1,1,0.7779860520468458,1.7779860520468458,1.2220139479531542,3.0,1,1.5279860520468458,0,4.0,3.0,1,2,11,0,11,0,0,0,0,8,,,,,,,687.9676324579632,687.9676324579632,688.9663774579531,689.4996900419937,689.7521467499901,689.7521467499901,689.7521467499901,690.9855862079421,690.9855862079421,690.9855862079421,690.9663353749784,691.9850497499574,200003,104,2023-03-24_13h15.03.518,DMS_et_12-36,2022.2.4,None,
99,UNPRED,12,0.7779860520468458,2,images/picture_3.png,images/picture_1.png,0,"[11.733433509789462, -11.733433509789466]",11.733433509789462,-11.733433509789464,images/picture_2.png,1,"[-11.733433509789462, 11.733433509789464]",-11.733433509789462,11.733433509789464,images/picture_3.png,2,"[11.733433509789464, 11.733433509789462]",11.733433509789464,11.733433509789462,0,1,1,0.7779860520468458,1.7779860520468458,1.2220139479531542,3.0,1,1.5279860520468458,0,4.0,3.0,1,2,11,0,11,0,0,1,1,0,,,,,,,691.9850497499574,691.9850497499574,692.9995890419232,693.5187313749921,693.7326926249079,693.7326926249079,693.7326926249079,694.9663776669186,694.9663776669186,694.9663776669186,694.9663776669186,695.9849995829863,200003,104,2023-03-24_13h15.03.518,DMS_et_12-36,2022.2.4,None,
105,UNPRED,12,0.7779860520468458,2,images/picture_3.png,images/picture_1.png,0,"[11.733433509789462, -11.733433509789466]",11.733433509789462,-11.733433509789464,images/picture_2.png,1,"[-11.733433509789462, 11.733433509789464]",-11.733433509789462,11.733433509789464,images/picture_3.png,2,"[-11.733433509789466, -11.733433509789462]",-11.733433509789464,-11.733433509789462,0,1,1,0.7779860520468458,1.7779860520468458,1.2220139479531542,3.0,1,1.5279860520468458,0,4.0,3.0,1,2,11,0,11,0,0,2,2,6,,,,,,,695.9849995829863,695.9849995829863,696.9996198329609,697.5189665419748,697.7329004579224,697.7329004579224,697.7329004579224,698.9661533329636,698.9661533329636,698.9661533329636,698.9661533329636,699.9661195829976,200003,104,2023-03-24_13h15.03.518,DMS_et_12-36,2022.2.4,None,
106,UNPRED,12,0.7779860520468458,1,images/picture_2.png,images/picture_1.png,0,"[-11.733433509789462, 11.733433509789464]",-11.733433509789462,11.733433509789464,images/picture_2.png,1,"[11.733433509789464, 11.733433509789462]",11.733433509789464,11.733433509789462,images/picture_3.png,2,"[11.733433509789462, -11.733433509789466]",11.733433509789462,-11.733433509789464,0,1,1,0.7779860520468458,1.7779860520468458,1.2220139479531542,3.0,1,1.5279860520468458,0,4.0,3.0,1,2,11,0,11,0,0,3,3,7,,,,,,,699.9661195829976,699.9661195829976,700.9663742500124,701.4996308749542,701.7328852079809,701.7328852079809,701.7328852079809,702.9661944999825,702.9661944999825,702.9661944999825,702.9661944999825,703.9659212499391,200003,104,2023-03-24_13h15.03.518,DMS_et_12-36,2022.2.4,None,
102,UNPRED,12,0.7779860520468458,0,images/picture_1.png,images/picture_1.png,0,"[-11.733433509789466, -11.733433509789462]",-11.733433509789464,-11.733433509789462,images/picture_2.png,1,"[-11.733433509789462, 11.733433509789464]",-11.733433509789462,11.733433509789464,images/picture_3.png,2,"[11.733433509789462, -11.733433509789466]",11.733433509789462,-11.733433509789464,0,1,1,0.7779860520468458,1.7779860520468458,1.2220139479531542,3.0,1,1.5279860520468458,0,4.0,3.0,1,2,11,0,11,0,0,4,4,3,,,,,,,703.9659212499391,703.9659212499391,704.9662179999286,705.4996317919577,705.732920999988,705.732920999988,705.732920999988,706.9662450000178,706.9662450000178,706.9662450000178,706.9662450000178,707.9656893749489,200003,104,2023-03-24_13h15.03.518,DMS_et_12-36,2022.2.4,None,
100,UNPRED,12,0.7779860520468458,1,images/picture_2.png,images/picture_1.png,0,"[-11.733433509789462, 11.733433509789464]",-11.733433509789462,11.733433509789464,images/picture_2.png,1,"[-11.733433509789466, -11.733433509789462]",-11.733433509789464,-11.733433509789462,images/picture_3.png,2,"[11.733433509789462, -11.733433509789466]",11.733433509789462,-11.733433509789464,0,1,1,0.7779860520468458,1.7779860520468458,1.2220139479531542,3.0,1,1.5279860520468458,0,4.0,3.0,1,2,11,0,11,0,0,5,5,1,,,,,,,707.9656893749489,707.9656893749489,708.9662552919472,709.4996479579713,709.7329522499349,709.7329522499349,709.7329522499349,710.9664476669859,710.9664476669859,710.9664476669859,710.9664476669859,711.9658250419889,200003,104,2023-03-24_13h15.03.518,DMS_et_12-36,2022.2.4,None,
104,UNPRED,12,0.7779860520468458,1,images/picture_2.png,images/picture_1.png,0,"[11.733433509789462, -11.733433509789466]",11.733433509789462,-11.733433509789464,images/picture_2.png,1,"[-11.733433509789462, 11.733433509789464]",-11.733433509789462,11.733433509789464,images/picture_3.png,2,"[11.733433509789464, 11.733433509789462]",11.733433509789464,11.733433509789462,0,1,1,0.7779860520468458,1.7779860520468458,1.2220139479531542,3.0,1,1.5279860520468458,0,4.0,3.0,1,2,11,0,11,0,0,6,6,5,,,,,,,711.9658250419889,711.9658250419889,712.9662328750128,713.4997485829517,713.7329336249968,713.7329336249968,713.7329336249968,714.9659638329176,714.9659638329176,714.9659638329176,714.9659638329176,715.9656274579465,200003,104,2023-03-24_13h15.03.518,DMS_et_12-36,2022.2.4,None,
103,UNPRED,12,0.7779860520468458,0,images/picture_1.png,images/picture_1.png,0,"[-11.733433509789466, -11.733433509789462]",-11.733433509789464,-11.733433509789462,images/picture_2.png,1,"[11.733433509789464, 11.733433509789462]",11.733433509789464,11.733433509789462,images/picture_3.png,2,"[-11.733433509789462, 11.733433509789464]",-11.733433509789462,11.733433509789464,0,1,1,0.7779860520468458,1.7779860520468458,1.2220139479531542,3.0,1,1.5279860520468458,0,4.0,3.0,1,2,11,0,11,0,0,7,7,4,,,,,,,715.9656274579465,715.9656274579465,716.9661942499224,717.4996375419432,717.732906499994,717.732906499994,717.732906499994,718.9661908749258,718.9661908749258,718.9661908749258,718.9661908749258,719.9850443329196,200003,104,2023-03-24_13h15.03.518,DMS_et_12-36,2022.2.4,None,
101,UNPRED,12,0.7779860520468458,2,images/picture_3.png,images/picture_1.png,0,"[11.733433509789462, -11.733433509789466]",11.733433509789462,-11.733433509789464,images/picture_2.png,1,"[-11.733433509789466, -11.733433509789462]",-11.733433509789464,-11.733433509789462,images/picture_3.png,2,"[-11.733433509789462, 11.733433509789464]",-11.733433509789462,11.733433509789464,0,1,1,0.7779860520468458,1.7779860520468458,1.2220139479531542,3.0,1,1.5279860520468458,0,4.0,3.0,1,2,11,0,11,0,0,8,8,2,,,,,,,719.9850443329196,719.9850443329196,720.9996537499828,721.5186420419486,721.7328867079923,721.7328867079923,721.7328867079923,722.9662498749094,722.9662498749094,722.9662498749094,722.9662498749094,724.0834653750062,200003,104,2023-03-24_13h15.03.518,DMS_et_12-36,2022.2.4,None,
,,,,,,,,,,,,,,,,,,,,,,,,,,,,,,,,,,,11,0,11,0,,,,,,,,,724.0834653750062,736.2167197499657,,,,,,,,,,,,,200003,104,2023-03-24_13h15.03.518,DMS_et_12-36,2022.2.4,None,
,,,,,,,,,,,,,,,,,,,,,,,,,,,,,,,,,,,,,,,,,,,,,,,736.2167197499657,748.7439071249682,,,,,,,,,,,,,,,,,,,
