trial_count,blockType,blockNum,delay_time,stimImage_i,stimImage,responseImage1,responseImage1_i,responseImage1_pos,responseImage1_X,responseImage1_Y,responseImage2,responseImage2_i,responseImage2_pos,responseImage2_X,responseImage2_Y,responseImage3,responseImage3_i,responseImage3_pos,responseImage3_X,responseImage3_Y,cue_onset,cue_dur,delay_onset,delay_dur,resp_onset,resp_dur,rest_onset,rest_dur,circle_dur,circle_onset,total_dur,cross_onset,cross_dur,delay_resp_period,blocks.thisRepN,blocks.thisTrialN,blocks.thisN,blocks.thisIndex,trials.thisRepN,trials.thisTrialN,trials.thisN,trials.thisIndex,key_resp.started,text.started,key_resp.keys,key_resp.rt,text_2.started,text_2.stopped,sample.started,Delay.started,sample.stopped,Delay.stopped,Response_1.started,Response_2.started,Response_3.started,polygon.started,Response_1.stopped,Response_2.stopped,Response_3.stopped,polygon.stopped,participant,session,date,expName,psychopyVersion,frameRate,
,,,,,,,,,,,,,,,,,,,,,,,,,,,,,,,,,,,,,,,,,,,49.764147458132356,49.764147458132356,t,47.40375783294439,,,,,,,,,,,,,,,200004,004,2023-03-31_11h13.38.434,DMS_et_12-36,2022.2.4,None,
2,PRED,12,0.7759925450803846,0,images/picture_1.png,images/picture_1.png,0,"[11.733433509789462, -11.733433509789466]",11.733433509789462,-11.733433509789464,images/picture_2.png,1,"[-11.733433509789466, -11.733433509789462]",-11.733433509789464,-11.733433509789462,images/picture_3.png,2,"[11.733433509789464, 11.733433509789462]",11.733433509789464,11.733433509789462,0,1,1,0.7759925450803846,1.7759925450803846,1.2240074549196154,3.0,1,1.5259925450803846,0,4.0,3.0,1,2,0,0,0,0,0,0,0,2,,,,,97.686754666036,109.71655900008045,109.71655900008045,109.71655900008045,110.73107062513009,111.25041266600601,111.4839667500928,111.4839667500928,111.4839667500928,112.69782345811836,112.71755729103461,112.71755729103461,112.71755729103461,113.69694970804267,200004,004,2023-03-31_11h13.38.434,DMS_et_12-36,2022.2.4,None,
5,PRED,12,0.7759925450803846,0,images/picture_1.png,images/picture_1.png,0,"[11.733433509789462, -11.733433509789466]",11.733433509789462,-11.733433509789464,images/picture_2.png,1,"[-11.733433509789466, -11.733433509789462]",-11.733433509789464,-11.733433509789462,images/picture_3.png,2,"[-11.733433509789462, 11.733433509789464]",-11.733433509789462,11.733433509789464,0,1,1,0.7759925450803846,1.7759925450803846,1.2240074549196154,3.0,1,1.5259925450803846,0,4.0,3.0,1,2,0,0,0,0,0,1,1,5,,,,,,,113.69694970804267,113.69694970804267,114.69773537502624,115.23126529110596,115.46440454106778,115.46440454106778,115.46440454106778,116.69759020791389,116.69759020791389,116.69759020791389,116.69759020791389,117.69727733312175,200004,004,2023-03-31_11h13.38.434,DMS_et_12-36,2022.2.4,None,
1,PRED,12,0.7759925450803846,0,images/picture_1.png,images/picture_1.png,0,"[-11.733433509789462, 11.733433509789464]",-11.733433509789462,11.733433509789464,images/picture_2.png,1,"[11.733433509789464, 11.733433509789462]",11.733433509789464,11.733433509789462,images/picture_3.png,2,"[11.733433509789462, -11.733433509789466]",11.733433509789462,-11.733433509789464,0,1,1,0.7759925450803846,1.7759925450803846,1.2240074549196154,3.0,1,1.5259925450803846,0,4.0,3.0,1,2,0,0,0,0,0,2,2,1,,,,,,,117.69727733312175,117.69727733312175,118.6975167079363,119.23107087495737,119.46415462507866,119.46415462507866,119.46415462507866,120.69782779109664,120.69782779109664,120.69782779109664,120.69782779109664,121.69736687513068,200004,004,2023-03-31_11h13.38.434,DMS_et_12-36,2022.2.4,None,
7,PRED,12,0.7759925450803846,0,images/picture_1.png,images/picture_1.png,0,"[-11.733433509789462, 11.733433509789464]",-11.733433509789462,11.733433509789464,images/picture_2.png,1,"[-11.733433509789466, -11.733433509789462]",-11.733433509789464,-11.733433509789462,images/picture_3.png,2,"[11.733433509789462, -11.733433509789466]",11.733433509789462,-11.733433509789464,0,1,1,0.7759925450803846,1.7759925450803846,1.2240074549196154,3.0,1,1.5259925450803846,0,4.0,3.0,1,2,0,0,0,0,0,3,3,7,,,,,,,121.69736687513068,121.69736687513068,122.69792216597125,123.2312457500957,123.4646150409244,123.4646150409244,123.4646150409244,124.6978259999305,124.6978259999305,124.6978259999305,124.6978259999305,125.69722558301874,200004,004,2023-03-31_11h13.38.434,DMS_et_12-36,2022.2.4,None,
8,PRED,12,0.7759925450803846,0,images/picture_1.png,images/picture_1.png,0,"[-11.733433509789462, 11.733433509789464]",-11.733433509789462,11.733433509789464,images/picture_2.png,1,"[11.733433509789462, -11.733433509789466]",11.733433509789462,-11.733433509789464,images/picture_3.png,2,"[-11.733433509789466, -11.733433509789462]",-11.733433509789464,-11.733433509789462,0,1,1,0.7759925450803846,1.7759925450803846,1.2240074549196154,3.0,1,1.5259925450803846,0,4.0,3.0,1,2,0,0,0,0,0,4,4,8,,,,,,,125.69722558301874,125.69722558301874,126.69797904090956,127.23098504100926,127.46450400003232,127.46450400003232,127.46450400003232,128.6976547499653,128.6976547499653,128.6976547499653,128.6976547499653,129.6974932081066,200004,004,2023-03-31_11h13.38.434,DMS_et_12-36,2022.2.4,None,
3,PRED,12,0.7759925450803846,0,images/picture_1.png,images/picture_1.png,0,"[11.733433509789462, -11.733433509789466]",11.733433509789462,-11.733433509789464,images/picture_2.png,1,"[-11.733433509789462, 11.733433509789464]",-11.733433509789462,11.733433509789464,images/picture_3.png,2,"[11.733433509789464, 11.733433509789462]",11.733433509789464,11.733433509789462,0,1,1,0.7759925450803846,1.7759925450803846,1.2240074549196154,3.0,1,1.5259925450803846,0,4.0,3.0,1,2,0,0,0,0,0,5,5,3,,,,,,,129.6974932081066,129.6974932081066,130.69767070794478,131.2312835829798,131.46451554098167,131.46451554098167,131.46451554098167,132.6980383330956,132.6980383330956,132.6980383330956,132.6980383330956,133.6974474999588,200004,004,2023-03-31_11h13.38.434,DMS_et_12-36,2022.2.4,None,
0,PRED,12,0.7759925450803846,0,images/picture_1.png,images/picture_1.png,0,"[-11.733433509789462, 11.733433509789464]",-11.733433509789462,11.733433509789464,images/picture_2.png,1,"[11.733433509789464, 11.733433509789462]",11.733433509789464,11.733433509789462,images/picture_3.png,2,"[-11.733433509789466, -11.733433509789462]",-11.733433509789464,-11.733433509789462,0,1,1,0.7759925450803846,1.7759925450803846,1.2240074549196154,3.0,1,1.5259925450803846,0,4.0,3.0,1,2,0,0,0,0,0,6,6,0,,,,,,,133.6974474999588,133.6974474999588,134.6976048750803,135.23077954095788,135.46404312504455,135.46404312504455,135.46404312504455,136.69780795811675,136.69780795811675,136.69780795811675,136.69780795811675,137.69667454110458,200004,004,2023-03-31_11h13.38.434,DMS_et_12-36,2022.2.4,None,
4,PRED,12,0.7759925450803846,0,images/picture_1.png,images/picture_1.png,0,"[11.733433509789462, -11.733433509789466]",11.733433509789462,-11.733433509789464,images/picture_2.png,1,"[11.733433509789464, 11.733433509789462]",11.733433509789464,11.733433509789462,images/picture_3.png,2,"[-11.733433509789466, -11.733433509789462]",-11.733433509789464,-11.733433509789462,0,1,1,0.7759925450803846,1.7759925450803846,1.2240074549196154,3.0,1,1.5259925450803846,0,4.0,3.0,1,2,0,0,0,0,0,7,7,4,,,,,,,137.69667454110458,137.69667454110458,138.69800504110754,139.23133016610518,139.46453162492253,139.46453162492253,139.46453162492253,140.69757404108532,140.69757404108532,140.69757404108532,140.69757404108532,141.6972726250533,200004,004,2023-03-31_11h13.38.434,DMS_et_12-36,2022.2.4,None,
6,PRED,12,0.7759925450803846,0,images/picture_1.png,images/picture_1.png,0,"[11.733433509789464, 11.733433509789462]",11.733433509789464,11.733433509789462,images/picture_2.png,1,"[-11.733433509789462, 11.733433509789464]",-11.733433509789462,11.733433509789464,images/picture_3.png,2,"[11.733433509789462, -11.733433509789466]",11.733433509789462,-11.733433509789464,0,1,1,0.7759925450803846,1.7759925450803846,1.2240074549196154,3.0,1,1.5259925450803846,0,4.0,3.0,1,2,0,0,0,0,0,8,8,6,,,,,,,141.6972726250533,141.6972726250533,142.69784033298492,143.2313700830564,143.4645343751181,143.4645343751181,143.4645343751181,144.69797616591677,144.69797616591677,144.69797616591677,144.69797616591677,145.71716574998572,200004,004,2023-03-31_11h13.38.434,DMS_et_12-36,2022.2.4,None,
,,,,,,,,,,,,,,,,,,,,,,,,,,,,,,,,,,,0,0,0,0,,,,,,,,,145.71716574998572,157.76005287491716,,,,,,,,,,,,,200004,004,2023-03-31_11h13.38.434,DMS_et_12-36,2022.2.4,None,
13,UNPRED,12,0.7759925450803846,2,images/picture_3.png,images/picture_1.png,0,"[11.733433509789462, -11.733433509789466]",11.733433509789462,-11.733433509789464,images/picture_2.png,1,"[-11.733433509789462, 11.733433509789464]",-11.733433509789462,11.733433509789464,images/picture_3.png,2,"[-11.733433509789466, -11.733433509789462]",-11.733433509789464,-11.733433509789462,0,1,1,0.7759925450803846,1.7759925450803846,1.2240074549196154,3.0,1,1.5259925450803846,0,4.0,3.0,1,2,1,0,1,0,0,0,0,4,,,,,,,157.76005287491716,157.76005287491716,158.76464133313857,159.29776462493464,159.51738333306275,159.51738333306275,159.51738333306275,160.74996745795943,160.74996745795943,160.74996745795943,160.74996745795943,161.78337495797314,200004,004,2023-03-31_11h13.38.434,DMS_et_12-36,2022.2.4,None,
12,UNPRED,12,0.7759925450803846,2,images/picture_3.png,images/picture_1.png,0,"[11.733433509789462, -11.733433509789466]",11.733433509789462,-11.733433509789464,images/picture_2.png,1,"[-11.733433509789462, 11.733433509789464]",-11.733433509789462,11.733433509789464,images/picture_3.png,2,"[11.733433509789464, 11.733433509789462]",11.733433509789464,11.733433509789462,0,1,1,0.7759925450803846,1.7759925450803846,1.2240074549196154,3.0,1,1.5259925450803846,0,4.0,3.0,1,2,1,0,1,0,0,1,1,3,,,,,,,161.78337495797314,161.78337495797314,162.7979635000229,163.31723187491298,163.53138991608284,163.53138991608284,163.53138991608284,164.7646651249379,164.7646651249379,164.7646651249379,164.7646651249379,165.76476491591893,200004,004,2023-03-31_11h13.38.434,DMS_et_12-36,2022.2.4,None,
16,UNPRED,12,0.7759925450803846,0,images/picture_1.png,images/picture_1.png,0,"[11.733433509789462, -11.733433509789466]",11.733433509789462,-11.733433509789464,images/picture_2.png,1,"[11.733433509789464, 11.733433509789462]",11.733433509789464,11.733433509789462,images/picture_3.png,2,"[-11.733433509789462, 11.733433509789464]",-11.733433509789462,11.733433509789464,0,1,1,0.7759925450803846,1.7759925450803846,1.2240074549196154,3.0,1,1.5259925450803846,0,4.0,3.0,1,2,1,0,1,0,0,2,2,7,,,,,,,165.76476491591893,165.76476491591893,166.76425362494774,167.29749091598205,167.53104141610675,167.53104141610675,167.53104141610675,168.76477970811538,168.76477970811538,168.76477970811538,168.76477970811538,169.76422291598283,200004,004,2023-03-31_11h13.38.434,DMS_et_12-36,2022.2.4,None,
14,UNPRED,12,0.7759925450803846,0,images/picture_1.png,images/picture_1.png,0,"[-11.733433509789462, 11.733433509789464]",-11.733433509789462,11.733433509789464,images/picture_2.png,1,"[-11.733433509789466, -11.733433509789462]",-11.733433509789464,-11.733433509789462,images/picture_3.png,2,"[11.733433509789464, 11.733433509789462]",11.733433509789464,11.733433509789462,0,1,1,0.7759925450803846,1.7759925450803846,1.2240074549196154,3.0,1,1.5259925450803846,0,4.0,3.0,1,2,1,0,1,0,0,3,3,5,,,,,,,169.76422291598283,169.76422291598283,170.7645034159068,171.29756929096766,171.5308908331208,171.5308908331208,171.5308908331208,172.76454854104668,172.76454854104668,172.76454854104668,172.76454854104668,173.76437341608107,200004,004,2023-03-31_11h13.38.434,DMS_et_12-36,2022.2.4,None,
15,UNPRED,12,0.7759925450803846,0,images/picture_1.png,images/picture_1.png,0,"[-11.733433509789466, -11.733433509789462]",-11.733433509789464,-11.733433509789462,images/picture_2.png,1,"[11.733433509789464, 11.733433509789462]",11.733433509789464,11.733433509789462,images/picture_3.png,2,"[11.733433509789462, -11.733433509789466]",11.733433509789462,-11.733433509789464,0,1,1,0.7759925450803846,1.7759925450803846,1.2240074549196154,3.0,1,1.5259925450803846,0,4.0,3.0,1,2,1,0,1,0,0,4,4,6,,,,,,,173.76437341608107,173.76437341608107,174.76454458292574,175.29824899998493,175.5312892079819,175.5312892079819,175.5312892079819,176.764682082925,176.764682082925,176.764682082925,176.764682082925,177.76396870799363,200004,004,2023-03-31_11h13.38.434,DMS_et_12-36,2022.2.4,None,
11,UNPRED,12,0.7759925450803846,0,images/picture_1.png,images/picture_1.png,0,"[11.733433509789462, -11.733433509789466]",11.733433509789462,-11.733433509789464,images/picture_2.png,1,"[-11.733433509789466, -11.733433509789462]",-11.733433509789464,-11.733433509789462,images/picture_3.png,2,"[11.733433509789464, 11.733433509789462]",11.733433509789464,11.733433509789462,0,1,1,0.7759925450803846,1.7759925450803846,1.2240074549196154,3.0,1,1.5259925450803846,0,4.0,3.0,1,2,1,0,1,0,0,5,5,2,,,,,,,177.76396870799363,177.76396870799363,178.76462274999358,179.29800595808774,179.53120362502523,179.53120362502523,179.53120362502523,180.7643013750203,180.7643013750203,180.7643013750203,180.7643013750203,181.78382712509483,200004,004,2023-03-31_11h13.38.434,DMS_et_12-36,2022.2.4,None,
17,UNPRED,12,0.7759925450803846,2,images/picture_3.png,images/picture_1.png,0,"[-11.733433509789462, 11.733433509789464]",-11.733433509789462,11.733433509789464,images/picture_2.png,1,"[11.733433509789464, 11.733433509789462]",11.733433509789464,11.733433509789462,images/picture_3.png,2,"[11.733433509789462, -11.733433509789466]",11.733433509789462,-11.733433509789464,0,1,1,0.7759925450803846,1.7759925450803846,1.2240074549196154,3.0,1,1.5259925450803846,0,4.0,3.0,1,2,1,0,1,0,0,6,6,8,,,,,,,181.78382712509483,181.78382712509483,182.7980665829964,183.31731887510978,183.5312302079983,183.5312302079983,183.5312302079983,184.76454370794818,184.76454370794818,184.76454370794818,184.76454370794818,185.76417829096317,200004,004,2023-03-31_11h13.38.434,DMS_et_12-36,2022.2.4,None,
10,UNPRED,12,0.7759925450803846,0,images/picture_1.png,images/picture_1.png,0,"[-11.733433509789462, 11.733433509789464]",-11.733433509789462,11.733433509789464,images/picture_2.png,1,"[11.733433509789462, -11.733433509789466]",11.733433509789462,-11.733433509789464,images/picture_3.png,2,"[-11.733433509789466, -11.733433509789462]",-11.733433509789464,-11.733433509789462,0,1,1,0.7759925450803846,1.7759925450803846,1.2240074549196154,3.0,1,1.5259925450803846,0,4.0,3.0,1,2,1,0,1,0,0,7,7,1,,,,,,,185.76417829096317,185.76417829096317,186.76455316599458,187.29807200003415,187.53124316595495,187.53124316595495,187.53124316595495,188.76462649996392,188.76462649996392,188.76462649996392,188.76462649996392,189.76427345792763,200004,004,2023-03-31_11h13.38.434,DMS_et_12-36,2022.2.4,None,
9,UNPRED,12,0.7759925450803846,1,images/picture_2.png,images/picture_1.png,0,"[-11.733433509789462, 11.733433509789464]",-11.733433509789462,11.733433509789464,images/picture_2.png,1,"[-11.733433509789466, -11.733433509789462]",-11.733433509789464,-11.733433509789462,images/picture_3.png,2,"[11.733433509789464, 11.733433509789462]",11.733433509789464,11.733433509789462,0,1,1,0.7759925450803846,1.7759925450803846,1.2240074549196154,3.0,1,1.5259925450803846,0,4.0,3.0,1,2,1,0,1,0,0,8,8,0,,,,,,,189.76427345792763,189.76427345792763,190.7644933750853,191.29764600005,191.53087441599928,191.53087441599928,191.53087441599928,192.76452720793895,192.76452720793895,192.76452720793895,192.76452720793895,193.80117416591384,200004,004,2023-03-31_11h13.38.434,DMS_et_12-36,2022.2.4,None,
,,,,,,,,,,,,,,,,,,,,,,,,,,,,,,,,,,,1,0,1,0,,,,,,,,,193.80117416591384,205.81686133309267,,,,,,,,,,,,,200004,004,2023-03-31_11h13.38.434,DMS_et_12-36,2022.2.4,None,
22,PRED,12,0.7759925450803846,1,images/picture_2.png,images/picture_1.png,0,"[-11.733433509789462, 11.733433509789464]",-11.733433509789462,11.733433509789464,images/picture_2.png,1,"[11.733433509789462, -11.733433509789466]",11.733433509789462,-11.733433509789464,images/picture_3.png,2,"[-11.733433509789466, -11.733433509789462]",-11.733433509789464,-11.733433509789462,0,1,1,0.7759925450803846,1.7759925450803846,1.2240074549196154,3.0,1,1.5259925450803846,0,4.0,3.0,1,2,2,0,2,0,0,0,0,4,,,,,,,205.81686133309267,205.81686133309267,206.83128100004978,207.35046566603705,207.58422520803288,207.58422520803288,207.58422520803288,208.81719770794734,208.81719770794734,208.81719770794734,208.81719770794734,209.83090441604145,200004,004,2023-03-31_11h13.38.434,DMS_et_12-36,2022.2.4,None,
26,PRED,12,0.7759925450803846,1,images/picture_2.png,images/picture_1.png,0,"[-11.733433509789466, -11.733433509789462]",-11.733433509789464,-11.733433509789462,images/picture_2.png,1,"[-11.733433509789462, 11.733433509789464]",-11.733433509789462,11.733433509789464,images/picture_3.png,2,"[11.733433509789464, 11.733433509789462]",11.733433509789464,11.733433509789462,0,1,1,0.7759925450803846,1.7759925450803846,1.2240074549196154,3.0,1,1.5259925450803846,0,4.0,3.0,1,2,2,0,2,0,0,1,1,8,,,,,,,209.83090441604145,209.83090441604145,210.83129787491634,211.364584291121,211.5978693331126,211.5978693331126,211.5978693331126,212.83136912505142,212.83136912505142,212.83136912505142,212.83136912505142,213.83070754096843,200004,004,2023-03-31_11h13.38.434,DMS_et_12-36,2022.2.4,None,
20,PRED,12,0.7759925450803846,1,images/picture_2.png,images/picture_1.png,0,"[-11.733433509789462, 11.733433509789464]",-11.733433509789462,11.733433509789464,images/picture_2.png,1,"[11.733433509789462, -11.733433509789466]",11.733433509789462,-11.733433509789464,images/picture_3.png,2,"[-11.733433509789466, -11.733433509789462]",-11.733433509789464,-11.733433509789462,0,1,1,0.7759925450803846,1.7759925450803846,1.2240074549196154,3.0,1,1.5259925450803846,0,4.0,3.0,1,2,2,0,2,0,0,2,2,2,,,,,,,213.83070754096843,213.83070754096843,214.83126875013113,215.3648089999333,215.5979970409535,215.5979970409535,215.5979970409535,216.83127750013955,216.83127750013955,216.83127750013955,216.83127750013955,217.8307226251345,200004,004,2023-03-31_11h13.38.434,DMS_et_12-36,2022.2.4,None,
24,PRED,12,0.7759925450803846,1,images/picture_2.png,images/picture_1.png,0,"[11.733433509789462, -11.733433509789466]",11.733433509789462,-11.733433509789464,images/picture_2.png,1,"[-11.733433509789462, 11.733433509789464]",-11.733433509789462,11.733433509789464,images/picture_3.png,2,"[-11.733433509789466, -11.733433509789462]",-11.733433509789464,-11.733433509789462,0,1,1,0.7759925450803846,1.7759925450803846,1.2240074549196154,3.0,1,1.5259925450803846,0,4.0,3.0,1,2,2,0,2,0,0,3,3,6,,,,,,,217.8307226251345,217.8307226251345,218.83137295790948,219.3645719999913,219.59798416611739,219.59798416611739,219.59798416611739,220.83129000011832,220.83129000011832,220.83129000011832,220.83129000011832,221.83104375004768,200004,004,2023-03-31_11h13.38.434,DMS_et_12-36,2022.2.4,None,
25,PRED,12,0.7759925450803846,1,images/picture_2.png,images/picture_1.png,0,"[-11.733433509789466, -11.733433509789462]",-11.733433509789464,-11.733433509789462,images/picture_2.png,1,"[11.733433509789464, 11.733433509789462]",11.733433509789464,11.733433509789462,images/picture_3.png,2,"[11.733433509789462, -11.733433509789466]",11.733433509789462,-11.733433509789464,0,1,1,0.7759925450803846,1.7759925450803846,1.2240074549196154,3.0,1,1.5259925450803846,0,4.0,3.0,1,2,2,0,2,0,0,4,4,7,,,,,,,221.83104375004768,221.83104375004768,222.83098845812492,223.3645282080397,223.59821041603573,223.59821041603573,223.59821041603573,224.8313495409675,224.8313495409675,224.8313495409675,224.8313495409675,225.8310017909389,200004,004,2023-03-31_11h13.38.434,DMS_et_12-36,2022.2.4,None,
23,PRED,12,0.7759925450803846,1,images/picture_2.png,images/picture_1.png,0,"[-11.733433509789462, 11.733433509789464]",-11.733433509789462,11.733433509789464,images/picture_2.png,1,"[11.733433509789464, 11.733433509789462]",11.733433509789464,11.733433509789462,images/picture_3.png,2,"[-11.733433509789466, -11.733433509789462]",-11.733433509789464,-11.733433509789462,0,1,1,0.7759925450803846,1.7759925450803846,1.2240074549196154,3.0,1,1.5259925450803846,0,4.0,3.0,1,2,2,0,2,0,0,5,5,5,,,,,,,225.8310017909389,225.8310017909389,226.83129529096186,227.364569791127,227.59795212512836,227.59795212512836,227.59795212512836,228.83132545812987,228.83132545812987,228.83132545812987,228.83132545812987,229.83078833296895,200004,004,2023-03-31_11h13.38.434,DMS_et_12-36,2022.2.4,None,
19,PRED,12,0.7759925450803846,1,images/picture_2.png,images/picture_1.png,0,"[11.733433509789462, -11.733433509789466]",11.733433509789462,-11.733433509789464,images/picture_2.png,1,"[-11.733433509789466, -11.733433509789462]",-11.733433509789464,-11.733433509789462,images/picture_3.png,2,"[11.733433509789464, 11.733433509789462]",11.733433509789464,11.733433509789462,0,1,1,0.7759925450803846,1.7759925450803846,1.2240074549196154,3.0,1,1.5259925450803846,0,4.0,3.0,1,2,2,0,2,0,0,6,6,1,,,,,,,229.83078833296895,229.83078833296895,230.83089179103263,231.3642571659293,231.59796537505463,231.59796537505463,231.59796537505463,232.8309917501174,232.8309917501174,232.8309917501174,232.8309917501174,233.8308435829822,200004,004,2023-03-31_11h13.38.434,DMS_et_12-36,2022.2.4,None,
21,PRED,12,0.7759925450803846,1,images/picture_2.png,images/picture_1.png,0,"[-11.733433509789462, 11.733433509789464]",-11.733433509789462,11.733433509789464,images/picture_2.png,1,"[-11.733433509789466, -11.733433509789462]",-11.733433509789464,-11.733433509789462,images/picture_3.png,2,"[11.733433509789462, -11.733433509789466]",11.733433509789462,-11.733433509789464,0,1,1,0.7759925450803846,1.7759925450803846,1.2240074549196154,3.0,1,1.5259925450803846,0,4.0,3.0,1,2,2,0,2,0,0,7,7,3,,,,,,,233.8308435829822,233.8308435829822,234.83129350002855,235.36474266601726,235.5979856250342,235.5979856250342,235.5979856250342,236.83147270791233,236.83147270791233,236.83147270791233,236.83147270791233,237.83042775001377,200004,004,2023-03-31_11h13.38.434,DMS_et_12-36,2022.2.4,None,
18,PRED,12,0.7759925450803846,1,images/picture_2.png,images/picture_1.png,0,"[-11.733433509789466, -11.733433509789462]",-11.733433509789464,-11.733433509789462,images/picture_2.png,1,"[-11.733433509789462, 11.733433509789464]",-11.733433509789462,11.733433509789464,images/picture_3.png,2,"[11.733433509789464, 11.733433509789462]",11.733433509789464,11.733433509789462,0,1,1,0.7759925450803846,1.7759925450803846,1.2240074549196154,3.0,1,1.5259925450803846,0,4.0,3.0,1,2,2,0,2,0,0,8,8,0,,,,,,,237.83042775001377,237.83042775001377,238.83130541606806,239.36479283310473,239.59799479111098,239.59799479111098,239.59799479111098,240.83129395800643,240.83129395800643,240.83129395800643,240.83129395800643,241.87634849990718,200004,004,2023-03-31_11h13.38.434,DMS_et_12-36,2022.2.4,None,
,,,,,,,,,,,,,,,,,,,,,,,,,,,,,,,,,,,2,0,2,0,,,,,,,,,241.87634849990718,253.89774550008588,,,,,,,,,,,,,200004,004,2023-03-31_11h13.38.434,DMS_et_12-36,2022.2.4,None,
35,UNPRED,12,0.7759925450803846,1,images/picture_2.png,images/picture_1.png,0,"[11.733433509789464, 11.733433509789462]",11.733433509789464,11.733433509789462,images/picture_2.png,1,"[-11.733433509789466, -11.733433509789462]",-11.733433509789464,-11.733433509789462,images/picture_3.png,2,"[11.733433509789462, -11.733433509789466]",11.733433509789462,-11.733433509789464,0,1,1,0.7759925450803846,1.7759925450803846,1.2240074549196154,3.0,1,1.5259925450803846,0,4.0,3.0,1,2,3,0,3,0,0,0,0,8,,,,,,,253.89774550008588,253.89774550008588,254.8980179161299,255.43124704109505,255.66471195803024,255.66471195803024,255.66471195803024,256.89803758310154,256.89803758310154,256.89803758310154,256.89803758310154,257.91666366602294,200004,004,2023-03-31_11h13.38.434,DMS_et_12-36,2022.2.4,None,
34,UNPRED,12,0.7759925450803846,2,images/picture_3.png,images/picture_1.png,0,"[-11.733433509789462, 11.733433509789464]",-11.733433509789462,11.733433509789464,images/picture_2.png,1,"[11.733433509789464, 11.733433509789462]",11.733433509789464,11.733433509789462,images/picture_3.png,2,"[11.733433509789462, -11.733433509789466]",11.733433509789462,-11.733433509789464,0,1,1,0.7759925450803846,1.7759925450803846,1.2240074549196154,3.0,1,1.5259925450803846,0,4.0,3.0,1,2,3,0,3,0,0,1,1,7,,,,,,,257.91666366602294,257.91666366602294,258.93126900005154,259.45073762512766,259.66471024998464,259.66471024998464,259.66471024998464,260.89801079104654,260.89801079104654,260.89801079104654,260.89801079104654,261.8978061659727,200004,004,2023-03-31_11h13.38.434,DMS_et_12-36,2022.2.4,None,
28,UNPRED,12,0.7759925450803846,0,images/picture_1.png,images/picture_1.png,0,"[11.733433509789462, -11.733433509789466]",11.733433509789462,-11.733433509789464,images/picture_2.png,1,"[11.733433509789464, 11.733433509789462]",11.733433509789464,11.733433509789462,images/picture_3.png,2,"[-11.733433509789466, -11.733433509789462]",-11.733433509789464,-11.733433509789462,0,1,1,0.7759925450803846,1.7759925450803846,1.2240074549196154,3.0,1,1.5259925450803846,0,4.0,3.0,1,2,3,0,3,0,0,2,2,1,,,,,,,261.8978061659727,261.8978061659727,262.8978108749725,263.4313540409785,263.66445279098116,263.66445279098116,263.66445279098116,264.89806345803663,264.89806345803663,264.89806345803663,264.89806345803663,265.8974461660255,200004,004,2023-03-31_11h13.38.434,DMS_et_12-36,2022.2.4,None,
30,UNPRED,12,0.7759925450803846,0,images/picture_1.png,images/picture_1.png,0,"[11.733433509789462, -11.733433509789466]",11.733433509789462,-11.733433509789464,images/picture_2.png,1,"[-11.733433509789466, -11.733433509789462]",-11.733433509789464,-11.733433509789462,images/picture_3.png,2,"[11.733433509789464, 11.733433509789462]",11.733433509789464,11.733433509789462,0,1,1,0.7759925450803846,1.7759925450803846,1.2240074549196154,3.0,1,1.5259925450803846,0,4.0,3.0,1,2,3,0,3,0,0,3,3,3,,,,,,,265.8974461660255,265.8974461660255,266.89800275000744,267.43132512504235,267.66475749993697,267.66475749993697,267.66475749993697,268.8980300000403,268.8980300000403,268.8980300000403,268.8980300000403,269.89775800006464,200004,004,2023-03-31_11h13.38.434,DMS_et_12-36,2022.2.4,None,
29,UNPRED,12,0.7759925450803846,0,images/picture_1.png,images/picture_1.png,0,"[11.733433509789464, 11.733433509789462]",11.733433509789464,11.733433509789462,images/picture_2.png,1,"[11.733433509789462, -11.733433509789466]",11.733433509789462,-11.733433509789464,images/picture_3.png,2,"[-11.733433509789462, 11.733433509789464]",-11.733433509789462,11.733433509789464,0,1,1,0.7759925450803846,1.7759925450803846,1.2240074549196154,3.0,1,1.5259925450803846,0,4.0,3.0,1,2,3,0,3,0,0,4,4,2,,,,,,,269.89775800006464,269.89775800006464,270.89790270803496,271.43129091593437,271.664737458108,271.664737458108,271.664737458108,272.8981642909348,272.8981642909348,272.8981642909348,272.8981642909348,273.8976817911025,200004,004,2023-03-31_11h13.38.434,DMS_et_12-36,2022.2.4,None,
33,UNPRED,12,0.7759925450803846,1,images/picture_2.png,images/picture_1.png,0,"[11.733433509789462, -11.733433509789466]",11.733433509789462,-11.733433509789464,images/picture_2.png,1,"[-11.733433509789462, 11.733433509789464]",-11.733433509789462,11.733433509789464,images/picture_3.png,2,"[-11.733433509789466, -11.733433509789462]",-11.733433509789464,-11.733433509789462,0,1,1,0.7759925450803846,1.7759925450803846,1.2240074549196154,3.0,1,1.5259925450803846,0,4.0,3.0,1,2,3,0,3,0,0,5,5,6,,,,,,,273.8976817911025,273.8976817911025,274.89799450011924,275.4312650829088,275.66453083301894,275.66453083301894,275.66453083301894,276.8980444581248,276.8980444581248,276.8980444581248,276.8980444581248,277.91710500000045,200004,004,2023-03-31_11h13.38.434,DMS_et_12-36,2022.2.4,None,
27,UNPRED,12,0.7759925450803846,2,images/picture_3.png,images/picture_1.png,0,"[11.733433509789462, -11.733433509789466]",11.733433509789462,-11.733433509789464,images/picture_2.png,1,"[11.733433509789464, 11.733433509789462]",11.733433509789464,11.733433509789462,images/picture_3.png,2,"[-11.733433509789462, 11.733433509789464]",-11.733433509789462,11.733433509789464,0,1,1,0.7759925450803846,1.7759925450803846,1.2240074549196154,3.0,1,1.5259925450803846,0,4.0,3.0,1,2,3,0,3,0,0,6,6,0,,,,,,,277.91710500000045,277.91710500000045,278.93128916597925,279.4505977910012,279.6647876249626,279.6647876249626,279.6647876249626,280.89802966592833,280.89802966592833,280.89802966592833,280.89802966592833,281.9166814580094,200004,004,2023-03-31_11h13.38.434,DMS_et_12-36,2022.2.4,None,
31,UNPRED,12,0.7759925450803846,2,images/picture_3.png,images/picture_1.png,0,"[-11.733433509789466, -11.733433509789462]",-11.733433509789464,-11.733433509789462,images/picture_2.png,1,"[11.733433509789462, -11.733433509789466]",11.733433509789462,-11.733433509789464,images/picture_3.png,2,"[-11.733433509789462, 11.733433509789464]",-11.733433509789462,11.733433509789464,0,1,1,0.7759925450803846,1.7759925450803846,1.2240074549196154,3.0,1,1.5259925450803846,0,4.0,3.0,1,2,3,0,3,0,0,7,7,4,,,,,,,281.9166814580094,281.9166814580094,282.93127416609786,283.44982199999504,283.66447883308865,283.66447883308865,283.66447883308865,284.8979949580971,284.8979949580971,284.8979949580971,284.8979949580971,285.89840445807204,200004,004,2023-03-31_11h13.38.434,DMS_et_12-36,2022.2.4,None,
32,UNPRED,12,0.7759925450803846,1,images/picture_2.png,images/picture_1.png,0,"[11.733433509789464, 11.733433509789462]",11.733433509789464,11.733433509789462,images/picture_2.png,1,"[11.733433509789462, -11.733433509789466]",11.733433509789462,-11.733433509789464,images/picture_3.png,2,"[-11.733433509789462, 11.733433509789464]",-11.733433509789462,11.733433509789464,0,1,1,0.7759925450803846,1.7759925450803846,1.2240074549196154,3.0,1,1.5259925450803846,0,4.0,3.0,1,2,3,0,3,0,0,8,8,5,,,,,,,285.89840445807204,285.89840445807204,286.8979770410806,287.43152395798825,287.6647559159901,287.6647559159901,287.6647559159901,288.89800200005993,288.89800200005993,288.89800200005993,288.89800200005993,289.9474777909927,200004,004,2023-03-31_11h13.38.434,DMS_et_12-36,2022.2.4,None,
,,,,,,,,,,,,,,,,,,,,,,,,,,,,,,,,,,,3,0,3,0,,,,,,,,,289.9474777909927,301.97503008297645,,,,,,,,,,,,,200004,004,2023-03-31_11h13.38.434,DMS_et_12-36,2022.2.4,None,
39,PRED,12,0.7759925450803846,2,images/picture_3.png,images/picture_1.png,0,"[11.733433509789462, -11.733433509789466]",11.733433509789462,-11.733433509789464,images/picture_2.png,1,"[11.733433509789464, 11.733433509789462]",11.733433509789464,11.733433509789462,images/picture_3.png,2,"[-11.733433509789462, 11.733433509789464]",-11.733433509789462,11.733433509789464,0,1,1,0.7759925450803846,1.7759925450803846,1.2240074549196154,3.0,1,1.5259925450803846,0,4.0,3.0,1,2,4,0,4,0,0,0,0,3,,,,,,,301.97503008297645,301.97503008297645,302.98415966611356,303.4980667911004,303.73111779103056,303.73111779103056,303.73111779103056,304.96484491601586,304.96484491601586,304.96484491601586,304.96484491601586,305.9833205831237,200004,004,2023-03-31_11h13.38.434,DMS_et_12-36,2022.2.4,None,
38,PRED,12,0.7759925450803846,2,images/picture_3.png,images/picture_1.png,0,"[-11.733433509789466, -11.733433509789462]",-11.733433509789464,-11.733433509789462,images/picture_2.png,1,"[11.733433509789464, 11.733433509789462]",11.733433509789464,11.733433509789462,images/picture_3.png,2,"[-11.733433509789462, 11.733433509789464]",-11.733433509789462,11.733433509789464,0,1,1,0.7759925450803846,1.7759925450803846,1.2240074549196154,3.0,1,1.5259925450803846,0,4.0,3.0,1,2,4,0,4,0,0,1,1,2,,,,,,,305.9833205831237,305.9833205831237,306.99803391611204,307.5173155409284,307.7312655830756,307.7312655830756,307.7312655830756,308.9647663331125,308.9647663331125,308.9647663331125,308.9647663331125,309.9837897079997,200004,004,2023-03-31_11h13.38.434,DMS_et_12-36,2022.2.4,None,
36,PRED,12,0.7759925450803846,2,images/picture_3.png,images/picture_1.png,0,"[-11.733433509789462, 11.733433509789464]",-11.733433509789462,11.733433509789464,images/picture_2.png,1,"[-11.733433509789466, -11.733433509789462]",-11.733433509789464,-11.733433509789462,images/picture_3.png,2,"[11.733433509789462, -11.733433509789466]",11.733433509789462,-11.733433509789464,0,1,1,0.7759925450803846,1.7759925450803846,1.2240074549196154,3.0,1,1.5259925450803846,0,4.0,3.0,1,2,4,0,4,0,0,2,2,0,,,,,,,309.9837897079997,309.9837897079997,310.99804679094814,311.5173345829826,311.7316467501223,311.7316467501223,311.7316467501223,312.9647724579554,312.9647724579554,312.9647724579554,312.9647724579554,313.9834906659089,200004,004,2023-03-31_11h13.38.434,DMS_et_12-36,2022.2.4,None,
44,PRED,12,0.7759925450803846,2,images/picture_3.png,images/picture_1.png,0,"[-11.733433509789466, -11.733433509789462]",-11.733433509789464,-11.733433509789462,images/picture_2.png,1,"[-11.733433509789462, 11.733433509789464]",-11.733433509789462,11.733433509789464,images/picture_3.png,2,"[11.733433509789464, 11.733433509789462]",11.733433509789464,11.733433509789462,0,1,1,0.7759925450803846,1.7759925450803846,1.2240074549196154,3.0,1,1.5259925450803846,0,4.0,3.0,1,2,4,0,4,0,0,3,3,8,,,,,,,313.9834906659089,313.9834906659089,314.99771687504835,315.5171880410053,315.7312849580776,315.7312849580776,315.7312849580776,316.9650149999652,316.9650149999652,316.9650149999652,316.9650149999652,317.98335116612725,200004,004,2023-03-31_11h13.38.434,DMS_et_12-36,2022.2.4,None,
43,PRED,12,0.7759925450803846,2,images/picture_3.png,images/picture_1.png,0,"[-11.733433509789466, -11.733433509789462]",-11.733433509789464,-11.733433509789462,images/picture_2.png,1,"[11.733433509789462, -11.733433509789466]",11.733433509789462,-11.733433509789464,images/picture_3.png,2,"[-11.733433509789462, 11.733433509789464]",-11.733433509789462,11.733433509789464,0,1,1,0.7759925450803846,1.7759925450803846,1.2240074549196154,3.0,1,1.5259925450803846,0,4.0,3.0,1,2,4,0,4,0,0,4,4,7,,,,,,,317.98335116612725,317.98335116612725,318.9980425829999,319.5171459999401,319.731509833131,319.731509833131,319.731509833131,320.9648075411096,320.9648075411096,320.9648075411096,320.9648075411096,321.98358316603117,200004,004,2023-03-31_11h13.38.434,DMS_et_12-36,2022.2.4,None,
42,PRED,12,0.7759925450803846,2,images/picture_3.png,images/picture_1.png,0,"[11.733433509789462, -11.733433509789466]",11.733433509789462,-11.733433509789464,images/picture_2.png,1,"[-11.733433509789462, 11.733433509789464]",-11.733433509789462,11.733433509789464,images/picture_3.png,2,"[-11.733433509789466, -11.733433509789462]",-11.733433509789464,-11.733433509789462,0,1,1,0.7759925450803846,1.7759925450803846,1.2240074549196154,3.0,1,1.5259925450803846,0,4.0,3.0,1,2,4,0,4,0,0,5,5,6,,,,,,,321.98358316603117,321.98358316603117,322.9981162911281,323.5173090409953,323.7313587081153,323.7313587081153,323.7313587081153,324.9646251250524,324.9646251250524,324.9646251250524,324.9646251250524,325.9837950831279,200004,004,2023-03-31_11h13.38.434,DMS_et_12-36,2022.2.4,None,
37,PRED,12,0.7759925450803846,2,images/picture_3.png,images/picture_1.png,0,"[-11.733433509789466, -11.733433509789462]",-11.733433509789464,-11.733433509789462,images/picture_2.png,1,"[11.733433509789462, -11.733433509789466]",11.733433509789462,-11.733433509789464,images/picture_3.png,2,"[11.733433509789464, 11.733433509789462]",11.733433509789464,11.733433509789462,0,1,1,0.7759925450803846,1.7759925450803846,1.2240074549196154,3.0,1,1.5259925450803846,0,4.0,3.0,1,2,4,0,4,0,0,6,6,1,,,,,,,325.9837950831279,325.9837950831279,326.9976036250591,327.51740204100497,327.73134020809084,327.73134020809084,327.73134020809084,328.964758166112,328.964758166112,328.964758166112,328.964758166112,329.983379665995,200004,004,2023-03-31_11h13.38.434,DMS_et_12-36,2022.2.4,None,
40,PRED,12,0.7759925450803846,2,images/picture_3.png,images/picture_1.png,0,"[11.733433509789464, 11.733433509789462]",11.733433509789464,11.733433509789462,images/picture_2.png,1,"[-11.733433509789466, -11.733433509789462]",-11.733433509789464,-11.733433509789462,images/picture_3.png,2,"[11.733433509789462, -11.733433509789466]",11.733433509789462,-11.733433509789464,0,1,1,0.7759925450803846,1.7759925450803846,1.2240074549196154,3.0,1,1.5259925450803846,0,4.0,3.0,1,2,4,0,4,0,0,7,7,4,,,,,,,329.983379665995,329.983379665995,330.9980715829879,331.51766895805486,331.7314963750541,331.7314963750541,331.7314963750541,332.964756625006,332.964756625006,332.964756625006,332.964756625006,333.98400854109786,200004,004,2023-03-31_11h13.38.434,DMS_et_12-36,2022.2.4,None,
41,PRED,12,0.7759925450803846,2,images/picture_3.png,images/picture_1.png,0,"[-11.733433509789462, 11.733433509789464]",-11.733433509789462,11.733433509789464,images/picture_2.png,1,"[-11.733433509789466, -11.733433509789462]",-11.733433509789464,-11.733433509789462,images/picture_3.png,2,"[11.733433509789462, -11.733433509789466]",11.733433509789462,-11.733433509789464,0,1,1,0.7759925450803846,1.7759925450803846,1.2240074549196154,3.0,1,1.5259925450803846,0,4.0,3.0,1,2,4,0,4,0,0,8,8,5,,,,,,,333.98400854109786,333.98400854109786,334.9979204579722,335.5168867909815,335.73125774995424,335.73125774995424,335.73125774995424,336.96479020803235,336.96479020803235,336.96479020803235,336.96479020803235,338.07109083305113,200004,004,2023-03-31_11h13.38.434,DMS_et_12-36,2022.2.4,None,
,,,,,,,,,,,,,,,,,,,,,,,,,,,,,,,,,,,4,0,4,0,,,,,,,,,338.07109083305113,350.1040982911363,,,,,,,,,,,,,200004,004,2023-03-31_11h13.38.434,DMS_et_12-36,2022.2.4,None,
53,UNPRED,12,0.7759925450803846,2,images/picture_3.png,images/picture_1.png,0,"[11.733433509789462, -11.733433509789466]",11.733433509789462,-11.733433509789464,images/picture_2.png,1,"[11.733433509789464, 11.733433509789462]",11.733433509789464,11.733433509789462,images/picture_3.png,2,"[-11.733433509789462, 11.733433509789464]",-11.733433509789462,11.733433509789464,0,1,1,0.7759925450803846,1.7759925450803846,1.2240074549196154,3.0,1,1.5259925450803846,0,4.0,3.0,1,2,5,0,5,0,0,0,0,8,,,,,,,350.1040982911363,350.1040982911363,351.1172656249255,351.63149437494576,351.8647544160485,351.8647544160485,351.8647544160485,353.0980367080774,353.0980367080774,353.0980367080774,353.0980367080774,354.0977781659458,200004,004,2023-03-31_11h13.38.434,DMS_et_12-36,2022.2.4,None,
45,UNPRED,12,0.7759925450803846,0,images/picture_1.png,images/picture_1.png,0,"[-11.733433509789466, -11.733433509789462]",-11.733433509789464,-11.733433509789462,images/picture_2.png,1,"[11.733433509789464, 11.733433509789462]",11.733433509789464,11.733433509789462,images/picture_3.png,2,"[-11.733433509789462, 11.733433509789464]",-11.733433509789462,11.733433509789464,0,1,1,0.7759925450803846,1.7759925450803846,1.2240074549196154,3.0,1,1.5259925450803846,0,4.0,3.0,1,2,5,0,5,0,0,1,1,0,,,,,,,354.0977781659458,354.0977781659458,355.09808079106733,355.6311457080301,355.8644358329475,355.8644358329475,355.8644358329475,357.09801020799205,357.09801020799205,357.09801020799205,357.09801020799205,358.0975110831205,200004,004,2023-03-31_11h13.38.434,DMS_et_12-36,2022.2.4,None,
49,UNPRED,12,0.7759925450803846,1,images/picture_2.png,images/picture_1.png,0,"[-11.733433509789462, 11.733433509789464]",-11.733433509789462,11.733433509789464,images/picture_2.png,1,"[11.733433509789464, 11.733433509789462]",11.733433509789464,11.733433509789462,images/picture_3.png,2,"[11.733433509789462, -11.733433509789466]",11.733433509789462,-11.733433509789464,0,1,1,0.7759925450803846,1.7759925450803846,1.2240074549196154,3.0,1,1.5259925450803846,0,4.0,3.0,1,2,5,0,5,0,0,2,2,4,,,,,,,358.0975110831205,358.0975110831205,359.09777733311057,359.631454291055,359.864857125096,359.864857125096,359.864857125096,361.0979951249901,361.0979951249901,361.0979951249901,361.0979951249901,362.0975665000733,200004,004,2023-03-31_11h13.38.434,DMS_et_12-36,2022.2.4,None,
46,UNPRED,12,0.7759925450803846,0,images/picture_1.png,images/picture_1.png,0,"[11.733433509789462, -11.733433509789466]",11.733433509789462,-11.733433509789464,images/picture_2.png,1,"[-11.733433509789462, 11.733433509789464]",-11.733433509789462,11.733433509789464,images/picture_3.png,2,"[11.733433509789464, 11.733433509789462]",11.733433509789464,11.733433509789462,0,1,1,0.7759925450803846,1.7759925450803846,1.2240074549196154,3.0,1,1.5259925450803846,0,4.0,3.0,1,2,5,0,5,0,0,3,3,1,,,,,,,362.0975665000733,362.0975665000733,363.09828379098326,363.63147283298895,363.86495979106985,363.86495979106985,363.86495979106985,365.098019041121,365.098019041121,365.098019041121,365.098019041121,366.09775120811537,200004,004,2023-03-31_11h13.38.434,DMS_et_12-36,2022.2.4,None,
51,UNPRED,12,0.7759925450803846,0,images/picture_1.png,images/picture_1.png,0,"[-11.733433509789466, -11.733433509789462]",-11.733433509789464,-11.733433509789462,images/picture_2.png,1,"[-11.733433509789462, 11.733433509789464]",-11.733433509789462,11.733433509789464,images/picture_3.png,2,"[11.733433509789462, -11.733433509789466]",11.733433509789462,-11.733433509789464,0,1,1,0.7759925450803846,1.7759925450803846,1.2240074549196154,3.0,1,1.5259925450803846,0,4.0,3.0,1,2,5,0,5,0,0,4,4,6,,,,,,,366.09775120811537,366.09775120811537,367.0979998749681,367.631488166051,367.86480983300135,367.86480983300135,367.86480983300135,369.0982003330719,369.0982003330719,369.0982003330719,369.0982003330719,370.11670783301815,200004,004,2023-03-31_11h13.38.434,DMS_et_12-36,2022.2.4,None,
52,UNPRED,12,0.7759925450803846,2,images/picture_3.png,images/picture_1.png,0,"[-11.733433509789462, 11.733433509789464]",-11.733433509789462,11.733433509789464,images/picture_2.png,1,"[11.733433509789462, -11.733433509789466]",11.733433509789462,-11.733433509789464,images/picture_3.png,2,"[11.733433509789464, 11.733433509789462]",11.733433509789464,11.733433509789462,0,1,1,0.7759925450803846,1.7759925450803846,1.2240074549196154,3.0,1,1.5259925450803846,0,4.0,3.0,1,2,5,0,5,0,0,5,5,7,,,,,,,370.11670783301815,370.11670783301815,371.1315279160626,371.65083916601725,371.8648189159576,371.8648189159576,371.8648189159576,373.09802325000055,373.09802325000055,373.09802325000055,373.09802325000055,374.0984637909569,200004,004,2023-03-31_11h13.38.434,DMS_et_12-36,2022.2.4,None,
50,UNPRED,12,0.7759925450803846,1,images/picture_2.png,images/picture_1.png,0,"[-11.733433509789466, -11.733433509789462]",-11.733433509789464,-11.733433509789462,images/picture_2.png,1,"[11.733433509789464, 11.733433509789462]",11.733433509789464,11.733433509789462,images/picture_3.png,2,"[-11.733433509789462, 11.733433509789464]",-11.733433509789462,11.733433509789464,0,1,1,0.7759925450803846,1.7759925450803846,1.2240074549196154,3.0,1,1.5259925450803846,0,4.0,3.0,1,2,5,0,5,0,0,6,6,5,,,,,,,374.0984637909569,374.0984637909569,375.09822400007397,375.63127233297564,375.8646643750835,375.8646643750835,375.8646643750835,377.0982617500704,377.0982617500704,377.0982617500704,377.0982617500704,378.09750766609795,200004,004,2023-03-31_11h13.38.434,DMS_et_12-36,2022.2.4,None,
47,UNPRED,12,0.7759925450803846,0,images/picture_1.png,images/picture_1.png,0,"[-11.733433509789462, 11.733433509789464]",-11.733433509789462,11.733433509789464,images/picture_2.png,1,"[11.733433509789462, -11.733433509789466]",11.733433509789462,-11.733433509789464,images/picture_3.png,2,"[11.733433509789464, 11.733433509789462]",11.733433509789464,11.733433509789462,0,1,1,0.7759925450803846,1.7759925450803846,1.2240074549196154,3.0,1,1.5259925450803846,0,4.0,3.0,1,2,5,0,5,0,0,7,7,2,,,,,,,378.09750766609795,378.09750766609795,379.09837725013494,379.6316068749875,379.864814999979,379.864814999979,379.864814999979,381.09810941596515,381.09810941596515,381.09810941596515,381.09810941596515,382.0975499160122,200004,004,2023-03-31_11h13.38.434,DMS_et_12-36,2022.2.4,None,
48,UNPRED,12,0.7759925450803846,0,images/picture_1.png,images/picture_1.png,0,"[-11.733433509789466, -11.733433509789462]",-11.733433509789464,-11.733433509789462,images/picture_2.png,1,"[11.733433509789462, -11.733433509789466]",11.733433509789462,-11.733433509789464,images/picture_3.png,2,"[-11.733433509789462, 11.733433509789464]",-11.733433509789462,11.733433509789464,0,1,1,0.7759925450803846,1.7759925450803846,1.2240074549196154,3.0,1,1.5259925450803846,0,4.0,3.0,1,2,5,0,5,0,0,8,8,3,,,,,,,382.0975499160122,382.0975499160122,383.09828741592355,383.6312869999092,383.8647865410894,383.8647865410894,383.8647865410894,385.0982369999401,385.0982369999401,385.0982369999401,385.0982369999401,386.14976362511516,200004,004,2023-03-31_11h13.38.434,DMS_et_12-36,2022.2.4,None,
,,,,,,,,,,,,,,,,,,,,,,,,,,,,,,,,,,,5,0,5,0,,,,,,,,,386.14976362511516,398.1872333330102,,,,,,,,,,,,,200004,004,2023-03-31_11h13.38.434,DMS_et_12-36,2022.2.4,None,
57,PRED,12,0.7759925450803846,1,images/picture_2.png,images/picture_1.png,0,"[11.733433509789464, 11.733433509789462]",11.733433509789464,11.733433509789462,images/picture_2.png,1,"[-11.733433509789466, -11.733433509789462]",-11.733433509789464,-11.733433509789462,images/picture_3.png,2,"[-11.733433509789462, 11.733433509789464]",-11.733433509789462,11.733433509789464,0,1,1,0.7759925450803846,1.7759925450803846,1.2240074549196154,3.0,1,1.5259925450803846,0,4.0,3.0,1,2,6,0,6,0,0,0,0,3,,,,,,,398.1872333330102,398.1872333330102,399.19821470812894,399.7175584160723,399.9648931249976,399.9648931249976,399.9648931249976,401.18425941606984,401.1982609999832,401.1982609999832,401.1982609999832,402.19760970794596,200004,004,2023-03-31_11h13.38.434,DMS_et_12-36,2022.2.4,None,
56,PRED,12,0.7759925450803846,1,images/picture_2.png,images/picture_1.png,0,"[11.733433509789464, 11.733433509789462]",11.733433509789464,11.733433509789462,images/picture_2.png,1,"[-11.733433509789466, -11.733433509789462]",-11.733433509789464,-11.733433509789462,images/picture_3.png,2,"[11.733433509789462, -11.733433509789466]",11.733433509789462,-11.733433509789464,0,1,1,0.7759925450803846,1.7759925450803846,1.2240074549196154,3.0,1,1.5259925450803846,0,4.0,3.0,1,2,6,0,6,0,0,1,1,2,,,,,,,402.19760970794596,402.19760970794596,403.19795766612515,403.7314925000537,403.9648524580989,403.9648524580989,403.9648524580989,405.19825925002806,405.19825925002806,405.19825925002806,405.19825925002806,406.1985075001139,200004,004,2023-03-31_11h13.38.434,DMS_et_12-36,2022.2.4,None,
60,PRED,12,0.7759925450803846,1,images/picture_2.png,images/picture_1.png,0,"[11.733433509789462, -11.733433509789466]",11.733433509789462,-11.733433509789464,images/picture_2.png,1,"[-11.733433509789462, 11.733433509789464]",-11.733433509789462,11.733433509789464,images/picture_3.png,2,"[-11.733433509789466, -11.733433509789462]",-11.733433509789464,-11.733433509789462,0,1,1,0.7759925450803846,1.7759925450803846,1.2240074549196154,3.0,1,1.5259925450803846,0,4.0,3.0,1,2,6,0,6,0,0,2,2,6,,,,,,,406.1985075001139,406.1985075001139,407.19820308312774,407.73138616606593,407.9647799159866,407.9647799159866,407.9647799159866,409.1980787499342,409.1980787499342,409.1980787499342,409.1980787499342,410.1979593329597,200004,004,2023-03-31_11h13.38.434,DMS_et_12-36,2022.2.4,None,
58,PRED,12,0.7759925450803846,1,images/picture_2.png,images/picture_1.png,0,"[-11.733433509789462, 11.733433509789464]",-11.733433509789462,11.733433509789464,images/picture_2.png,1,"[11.733433509789462, -11.733433509789466]",11.733433509789462,-11.733433509789464,images/picture_3.png,2,"[-11.733433509789466, -11.733433509789462]",-11.733433509789464,-11.733433509789462,0,1,1,0.7759925450803846,1.7759925450803846,1.2240074549196154,3.0,1,1.5259925450803846,0,4.0,3.0,1,2,6,0,6,0,0,3,3,4,,,,,,,410.1979593329597,410.1979593329597,411.19826945802197,411.7315162909217,411.9649655830581,411.9649655830581,411.9649655830581,413.19838570803404,413.19838570803404,413.19838570803404,413.19838570803404,414.19771550013684,200004,004,2023-03-31_11h13.38.434,DMS_et_12-36,2022.2.4,None,
62,PRED,12,0.7759925450803846,1,images/picture_2.png,images/picture_1.png,0,"[-11.733433509789462, 11.733433509789464]",-11.733433509789462,11.733433509789464,images/picture_2.png,1,"[11.733433509789464, 11.733433509789462]",11.733433509789464,11.733433509789462,images/picture_3.png,2,"[-11.733433509789466, -11.733433509789462]",-11.733433509789464,-11.733433509789462,0,1,1,0.7759925450803846,1.7759925450803846,1.2240074549196154,3.0,1,1.5259925450803846,0,4.0,3.0,1,2,6,0,6,0,0,4,4,8,,,,,,,414.19771550013684,414.19771550013684,415.1980769580696,415.73151220800355,415.96475608297624,415.96475608297624,415.96475608297624,417.1979395831004,417.1979395831004,417.1979395831004,417.1979395831004,418.1986580409575,200004,004,2023-03-31_11h13.38.434,DMS_et_12-36,2022.2.4,None,
59,PRED,12,0.7759925450803846,1,images/picture_2.png,images/picture_1.png,0,"[-11.733433509789466, -11.733433509789462]",-11.733433509789464,-11.733433509789462,images/picture_2.png,1,"[11.733433509789462, -11.733433509789466]",11.733433509789462,-11.733433509789464,images/picture_3.png,2,"[-11.733433509789462, 11.733433509789464]",-11.733433509789462,11.733433509789464,0,1,1,0.7759925450803846,1.7759925450803846,1.2240074549196154,3.0,1,1.5259925450803846,0,4.0,3.0,1,2,6,0,6,0,0,5,5,5,,,,,,,418.1986580409575,418.1986580409575,419.19828779110685,419.73170350003056,419.9649712499231,419.9649712499231,419.9649712499231,421.19814025005326,421.19814025005326,421.19814025005326,421.19814025005326,422.197728500003,200004,004,2023-03-31_11h13.38.434,DMS_et_12-36,2022.2.4,None,
55,PRED,12,0.7759925450803846,1,images/picture_2.png,images/picture_1.png,0,"[-11.733433509789462, 11.733433509789464]",-11.733433509789462,11.733433509789464,images/picture_2.png,1,"[11.733433509789462, -11.733433509789466]",11.733433509789462,-11.733433509789464,images/picture_3.png,2,"[-11.733433509789466, -11.733433509789462]",-11.733433509789464,-11.733433509789462,0,1,1,0.7759925450803846,1.7759925450803846,1.2240074549196154,3.0,1,1.5259925450803846,0,4.0,3.0,1,2,6,0,6,0,0,6,6,1,,,,,,,422.197728500003,422.197728500003,423.1977472079452,423.73154079099186,423.9648302081041,423.9648302081041,423.9648302081041,425.19825658295304,425.19825658295304,425.19825658295304,425.19825658295304,426.19770033308305,200004,004,2023-03-31_11h13.38.434,DMS_et_12-36,2022.2.4,None,
61,PRED,12,0.7759925450803846,1,images/picture_2.png,images/picture_1.png,0,"[11.733433509789464, 11.733433509789462]",11.733433509789464,11.733433509789462,images/picture_2.png,1,"[11.733433509789462, -11.733433509789466]",11.733433509789462,-11.733433509789464,images/picture_3.png,2,"[-11.733433509789462, 11.733433509789464]",-11.733433509789462,11.733433509789464,0,1,1,0.7759925450803846,1.7759925450803846,1.2240074549196154,3.0,1,1.5259925450803846,0,4.0,3.0,1,2,6,0,6,0,0,7,7,7,,,,,,,426.19770033308305,426.19770033308305,427.198174207937,427.73124300013296,427.9646424159873,427.9646424159873,427.9646424159873,429.1982658330817,429.1982658330817,429.1982658330817,429.1982658330817,430.1978562499862,200004,004,2023-03-31_11h13.38.434,DMS_et_12-36,2022.2.4,None,
54,PRED,12,0.7759925450803846,1,images/picture_2.png,images/picture_1.png,0,"[-11.733433509789462, 11.733433509789464]",-11.733433509789462,11.733433509789464,images/picture_2.png,1,"[11.733433509789464, 11.733433509789462]",11.733433509789464,11.733433509789462,images/picture_3.png,2,"[11.733433509789462, -11.733433509789466]",11.733433509789462,-11.733433509789464,0,1,1,0.7759925450803846,1.7759925450803846,1.2240074549196154,3.0,1,1.5259925450803846,0,4.0,3.0,1,2,6,0,6,0,0,8,8,0,,,,,,,430.1978562499862,430.1978562499862,431.1983630829491,431.73162195808254,431.9649485829286,431.9649485829286,431.9649485829286,433.19815941597335,433.19815941597335,433.19815941597335,433.19815941597335,434.279520082986,200004,004,2023-03-31_11h13.38.434,DMS_et_12-36,2022.2.4,None,
,,,,,,,,,,,,,,,,,,,,,,,,,,,,,,,,,,,6,0,6,0,,,,,,,,,434.279520082986,446.30177800008096,,,,,,,,,,,,,200004,004,2023-03-31_11h13.38.434,DMS_et_12-36,2022.2.4,None,
67,UNPRED,12,0.7759925450803846,1,images/picture_2.png,images/picture_1.png,0,"[11.733433509789464, 11.733433509789462]",11.733433509789464,11.733433509789462,images/picture_2.png,1,"[-11.733433509789462, 11.733433509789464]",-11.733433509789462,11.733433509789464,images/picture_3.png,2,"[-11.733433509789466, -11.733433509789462]",-11.733433509789464,-11.733433509789462,0,1,1,0.7759925450803846,1.7759925450803846,1.2240074549196154,3.0,1,1.5259925450803846,0,4.0,3.0,1,2,7,0,7,0,0,0,0,4,,,,,,,446.30177800008096,446.30177800008096,447.2982366660144,447.83139483304694,448.06460641603917,448.06460641603917,448.06460641603917,449.2982540829107,449.2982540829107,449.2982540829107,449.2982540829107,450.2977337909397,200004,004,2023-03-31_11h13.38.434,DMS_et_12-36,2022.2.4,None,
68,UNPRED,12,0.7759925450803846,0,images/picture_1.png,images/picture_1.png,0,"[11.733433509789462, -11.733433509789466]",11.733433509789462,-11.733433509789464,images/picture_2.png,1,"[-11.733433509789462, 11.733433509789464]",-11.733433509789462,11.733433509789464,images/picture_3.png,2,"[-11.733433509789466, -11.733433509789462]",-11.733433509789464,-11.733433509789462,0,1,1,0.7759925450803846,1.7759925450803846,1.2240074549196154,3.0,1,1.5259925450803846,0,4.0,3.0,1,2,7,0,7,0,0,1,1,5,,,,,,,450.2977337909397,450.2977337909397,451.2981132080313,451.831287750043,452.06455574999563,452.06455574999563,452.06455574999563,453.2981187500991,453.2981187500991,453.2981187500991,453.2981187500991,454.2974991251249,200004,004,2023-03-31_11h13.38.434,DMS_et_12-36,2022.2.4,None,
69,UNPRED,12,0.7759925450803846,0,images/picture_1.png,images/picture_1.png,0,"[-11.733433509789462, 11.733433509789464]",-11.733433509789462,11.733433509789464,images/picture_2.png,1,"[-11.733433509789466, -11.733433509789462]",-11.733433509789464,-11.733433509789462,images/picture_3.png,2,"[11.733433509789462, -11.733433509789466]",11.733433509789462,-11.733433509789464,0,1,1,0.7759925450803846,1.7759925450803846,1.2240074549196154,3.0,1,1.5259925450803846,0,4.0,3.0,1,2,7,0,7,0,0,2,2,6,,,,,,,454.2974991251249,454.2974991251249,455.2974903329741,455.83142129098997,456.06458320794627,456.06458320794627,456.06458320794627,457.29813800007105,457.29813800007105,457.29813800007105,457.29813800007105,458.2976232909132,200004,004,2023-03-31_11h13.38.434,DMS_et_12-36,2022.2.4,None,
66,UNPRED,12,0.7759925450803846,0,images/picture_1.png,images/picture_1.png,0,"[-11.733433509789466, -11.733433509789462]",-11.733433509789464,-11.733433509789462,images/picture_2.png,1,"[-11.733433509789462, 11.733433509789464]",-11.733433509789462,11.733433509789464,images/picture_3.png,2,"[11.733433509789464, 11.733433509789462]",11.733433509789464,11.733433509789462,0,1,1,0.7759925450803846,1.7759925450803846,1.2240074549196154,3.0,1,1.5259925450803846,0,4.0,3.0,1,2,7,0,7,0,0,3,3,3,,,,,,,458.2976232909132,458.2976232909132,459.2979980830569,459.83128312509507,460.0645191660151,460.0645191660151,460.0645191660151,461.29797191591933,461.29797191591933,461.29797191591933,461.29797191591933,462.2975557500031,200004,004,2023-03-31_11h13.38.434,DMS_et_12-36,2022.2.4,None,
63,UNPRED,12,0.7759925450803846,0,images/picture_1.png,images/picture_1.png,0,"[11.733433509789464, 11.733433509789462]",11.733433509789464,11.733433509789462,images/picture_2.png,1,"[-11.733433509789462, 11.733433509789464]",-11.733433509789462,11.733433509789464,images/picture_3.png,2,"[-11.733433509789466, -11.733433509789462]",-11.733433509789464,-11.733433509789462,0,1,1,0.7759925450803846,1.7759925450803846,1.2240074549196154,3.0,1,1.5259925450803846,0,4.0,3.0,1,2,7,0,7,0,0,4,4,0,,,,,,,462.2975557500031,462.2975557500031,463.29809679090977,463.831259458093,464.0645680411253,464.0645680411253,464.0645680411253,465.2979550410528,465.2979550410528,465.2979550410528,465.2979550410528,466.2976774161216,200004,004,2023-03-31_11h13.38.434,DMS_et_12-36,2022.2.4,None,
71,UNPRED,12,0.7759925450803846,1,images/picture_2.png,images/picture_1.png,0,"[11.733433509789464, 11.733433509789462]",11.733433509789464,11.733433509789462,images/picture_2.png,1,"[-11.733433509789466, -11.733433509789462]",-11.733433509789464,-11.733433509789462,images/picture_3.png,2,"[-11.733433509789462, 11.733433509789464]",-11.733433509789462,11.733433509789464,0,1,1,0.7759925450803846,1.7759925450803846,1.2240074549196154,3.0,1,1.5259925450803846,0,4.0,3.0,1,2,7,0,7,0,0,5,5,8,,,,,,,466.2976774161216,466.2976774161216,467.2980682500638,467.8315991249401,468.0644015830476,468.0644015830476,468.0644015830476,469.29813337512314,469.29813337512314,469.29813337512314,469.29813337512314,470.3164675410371,200004,004,2023-03-31_11h13.38.434,DMS_et_12-36,2022.2.4,None,
70,UNPRED,12,0.7759925450803846,2,images/picture_3.png,images/picture_1.png,0,"[-11.733433509789466, -11.733433509789462]",-11.733433509789464,-11.733433509789462,images/picture_2.png,1,"[11.733433509789464, 11.733433509789462]",11.733433509789464,11.733433509789462,images/picture_3.png,2,"[-11.733433509789462, 11.733433509789464]",-11.733433509789462,11.733433509789464,0,1,1,0.7759925450803846,1.7759925450803846,1.2240074549196154,3.0,1,1.5259925450803846,0,4.0,3.0,1,2,7,0,7,0,0,6,6,7,,,,,,,470.3164675410371,470.3164675410371,471.33132200012915,471.8508280829992,472.06454712501727,472.06454712501727,472.06454712501727,473.29805729095824,473.29805729095824,473.29805729095824,473.29805729095824,474.3164916660171,200004,004,2023-03-31_11h13.38.434,DMS_et_12-36,2022.2.4,None,
64,UNPRED,12,0.7759925450803846,2,images/picture_3.png,images/picture_1.png,0,"[-11.733433509789462, 11.733433509789464]",-11.733433509789462,11.733433509789464,images/picture_2.png,1,"[-11.733433509789466, -11.733433509789462]",-11.733433509789464,-11.733433509789462,images/picture_3.png,2,"[11.733433509789462, -11.733433509789466]",11.733433509789462,-11.733433509789464,0,1,1,0.7759925450803846,1.7759925450803846,1.2240074549196154,3.0,1,1.5259925450803846,0,4.0,3.0,1,2,7,0,7,0,0,7,7,1,,,,,,,474.3164916660171,474.3164916660171,475.33141899993643,475.8505619999487,476.0646901659202,476.0646901659202,476.0646901659202,477.29796437500045,477.29796437500045,477.29796437500045,477.29796437500045,478.2978070829995,200004,004,2023-03-31_11h13.38.434,DMS_et_12-36,2022.2.4,None,
65,UNPRED,12,0.7759925450803846,0,images/picture_1.png,images/picture_1.png,0,"[-11.733433509789466, -11.733433509789462]",-11.733433509789464,-11.733433509789462,images/picture_2.png,1,"[11.733433509789462, -11.733433509789466]",11.733433509789462,-11.733433509789464,images/picture_3.png,2,"[11.733433509789464, 11.733433509789462]",11.733433509789464,11.733433509789462,0,1,1,0.7759925450803846,1.7759925450803846,1.2240074549196154,3.0,1,1.5259925450803846,0,4.0,3.0,1,2,7,0,7,0,0,8,8,2,,,,,,,478.2978070829995,478.2978070829995,479.29778716596775,479.83134891605005,480.06462812493555,480.06462812493555,480.06462812493555,481.29813125007786,481.29813125007786,481.29813125007786,481.29813125007786,482.38535950006917,200004,004,2023-03-31_11h13.38.434,DMS_et_12-36,2022.2.4,None,
,,,,,,,,,,,,,,,,,,,,,,,,,,,,,,,,,,,7,0,7,0,,,,,,,,,482.38535950006917,494.4198036659509,,,,,,,,,,,,,200004,004,2023-03-31_11h13.38.434,DMS_et_12-36,2022.2.4,None,
72,PRED,12,0.7759925450803846,1,images/picture_2.png,images/picture_1.png,0,"[11.733433509789462, -11.733433509789466]",11.733433509789462,-11.733433509789464,images/picture_2.png,1,"[-11.733433509789462, 11.733433509789464]",-11.733433509789462,11.733433509789464,images/picture_3.png,2,"[-11.733433509789466, -11.733433509789462]",-11.733433509789464,-11.733433509789462,0,1,1,0.7759925450803846,1.7759925450803846,1.2240074549196154,3.0,1,1.5259925450803846,0,4.0,3.0,1,2,8,0,8,0,0,0,0,0,,,,,,,494.4198036659509,494.4198036659509,495.4313686660025,495.95070737507194,496.1979964580387,496.1979964580387,496.1979964580387,497.4174277500715,497.43127466598526,497.43127466598526,497.43127466598526,498.43073191610165,200004,004,2023-03-31_11h13.38.434,DMS_et_12-36,2022.2.4,None,
77,PRED,12,0.7759925450803846,1,images/picture_2.png,images/picture_1.png,0,"[-11.733433509789462, 11.733433509789464]",-11.733433509789462,11.733433509789464,images/picture_2.png,1,"[-11.733433509789466, -11.733433509789462]",-11.733433509789464,-11.733433509789462,images/picture_3.png,2,"[11.733433509789464, 11.733433509789462]",11.733433509789464,11.733433509789462,0,1,1,0.7759925450803846,1.7759925450803846,1.2240074549196154,3.0,1,1.5259925450803846,0,4.0,3.0,1,2,8,0,8,0,0,1,1,5,,,,,,,498.43073191610165,498.43073191610165,499.4309627499897,499.96454812493175,500.19801016594283,500.19801016594283,500.19801016594283,501.4313090411015,501.4313090411015,501.4313090411015,501.4313090411015,502.4307772500906,200004,004,2023-03-31_11h13.38.434,DMS_et_12-36,2022.2.4,None,
76,PRED,12,0.7759925450803846,1,images/picture_2.png,images/picture_1.png,0,"[11.733433509789462, -11.733433509789466]",11.733433509789462,-11.733433509789464,images/picture_2.png,1,"[-11.733433509789466, -11.733433509789462]",-11.733433509789464,-11.733433509789462,images/picture_3.png,2,"[11.733433509789464, 11.733433509789462]",11.733433509789464,11.733433509789462,0,1,1,0.7759925450803846,1.7759925450803846,1.2240074549196154,3.0,1,1.5259925450803846,0,4.0,3.0,1,2,8,0,8,0,0,2,2,4,,,,,,,502.4307772500906,502.4307772500906,503.4312501659151,503.9647509159986,504.1979689579457,504.1979689579457,504.1979689579457,505.4313492910005,505.4313492910005,505.4313492910005,505.4313492910005,506.43080691597424,200004,004,2023-03-31_11h13.38.434,DMS_et_12-36,2022.2.4,None,
78,PRED,12,0.7759925450803846,1,images/picture_2.png,images/picture_1.png,0,"[-11.733433509789462, 11.733433509789464]",-11.733433509789462,11.733433509789464,images/picture_2.png,1,"[11.733433509789462, -11.733433509789466]",11.733433509789462,-11.733433509789464,images/picture_3.png,2,"[11.733433509789464, 11.733433509789462]",11.733433509789464,11.733433509789462,0,1,1,0.7759925450803846,1.7759925450803846,1.2240074549196154,3.0,1,1.5259925450803846,0,4.0,3.0,1,2,8,0,8,0,0,3,3,6,,,,,,,506.43080691597424,506.43080691597424,507.43125620810315,507.9645494159777,508.19790454092436,508.19790454092436,508.19790454092436,509.43114283308387,509.43114283308387,509.43114283308387,509.43114283308387,510.4308901249897,200004,004,2023-03-31_11h13.38.434,DMS_et_12-36,2022.2.4,None,
73,PRED,12,0.7759925450803846,1,images/picture_2.png,images/picture_1.png,0,"[11.733433509789462, -11.733433509789466]",11.733433509789462,-11.733433509789464,images/picture_2.png,1,"[11.733433509789464, 11.733433509789462]",11.733433509789464,11.733433509789462,images/picture_3.png,2,"[-11.733433509789462, 11.733433509789464]",-11.733433509789462,11.733433509789464,0,1,1,0.7759925450803846,1.7759925450803846,1.2240074549196154,3.0,1,1.5259925450803846,0,4.0,3.0,1,2,8,0,8,0,0,4,4,1,,,,,,,510.4308901249897,510.4308901249897,511.4313615830615,511.9648120000493,512.19786620792,512.19786620792,512.19786620792,513.4312618749682,513.4312618749682,513.4312618749682,513.4312618749682,514.4309007499833,200004,004,2023-03-31_11h13.38.434,DMS_et_12-36,2022.2.4,None,
80,PRED,12,0.7759925450803846,1,images/picture_2.png,images/picture_1.png,0,"[11.733433509789462, -11.733433509789466]",11.733433509789462,-11.733433509789464,images/picture_2.png,1,"[-11.733433509789466, -11.733433509789462]",-11.733433509789464,-11.733433509789462,images/picture_3.png,2,"[-11.733433509789462, 11.733433509789464]",-11.733433509789462,11.733433509789464,0,1,1,0.7759925450803846,1.7759925450803846,1.2240074549196154,3.0,1,1.5259925450803846,0,4.0,3.0,1,2,8,0,8,0,0,5,5,8,,,,,,,514.4309007499833,514.4309007499833,515.4312687499914,515.9647880829871,516.1979459160939,516.1979459160939,516.1979459160939,517.4314307500608,517.4314307500608,517.4314307500608,517.4314307500608,518.4309634580277,200004,004,2023-03-31_11h13.38.434,DMS_et_12-36,2022.2.4,None,
74,PRED,12,0.7759925450803846,1,images/picture_2.png,images/picture_1.png,0,"[11.733433509789464, 11.733433509789462]",11.733433509789464,11.733433509789462,images/picture_2.png,1,"[-11.733433509789466, -11.733433509789462]",-11.733433509789464,-11.733433509789462,images/picture_3.png,2,"[-11.733433509789462, 11.733433509789464]",-11.733433509789462,11.733433509789464,0,1,1,0.7759925450803846,1.7759925450803846,1.2240074549196154,3.0,1,1.5259925450803846,0,4.0,3.0,1,2,8,0,8,0,0,6,6,2,,,,,,,518.4309634580277,518.4309634580277,519.4310527499765,519.9643149999902,520.1977437909227,520.1977437909227,520.1977437909227,521.4312321660109,521.4312321660109,521.4312321660109,521.4312321660109,522.4308881659526,200004,004,2023-03-31_11h13.38.434,DMS_et_12-36,2022.2.4,None,
79,PRED,12,0.7759925450803846,1,images/picture_2.png,images/picture_1.png,0,"[-11.733433509789466, -11.733433509789462]",-11.733433509789464,-11.733433509789462,images/picture_2.png,1,"[11.733433509789464, 11.733433509789462]",11.733433509789464,11.733433509789462,images/picture_3.png,2,"[-11.733433509789462, 11.733433509789464]",-11.733433509789462,11.733433509789464,0,1,1,0.7759925450803846,1.7759925450803846,1.2240074549196154,3.0,1,1.5259925450803846,0,4.0,3.0,1,2,8,0,8,0,0,7,7,7,,,,,,,522.4308881659526,522.4308881659526,523.4312831249554,523.9645419579465,524.1979153749999,524.1979153749999,524.1979153749999,525.4312710829545,525.4312710829545,525.4312710829545,525.4312710829545,526.430732290959,200004,004,2023-03-31_11h13.38.434,DMS_et_12-36,2022.2.4,None,
75,PRED,12,0.7759925450803846,1,images/picture_2.png,images/picture_1.png,0,"[11.733433509789464, 11.733433509789462]",11.733433509789464,11.733433509789462,images/picture_2.png,1,"[11.733433509789462, -11.733433509789466]",11.733433509789462,-11.733433509789464,images/picture_3.png,2,"[-11.733433509789462, 11.733433509789464]",-11.733433509789462,11.733433509789464,0,1,1,0.7759925450803846,1.7759925450803846,1.2240074549196154,3.0,1,1.5259925450803846,0,4.0,3.0,1,2,8,0,8,0,0,8,8,3,,,,,,,526.430732290959,526.430732290959,527.4314884999767,527.9646562079433,528.1980135410558,528.1980135410558,528.1980135410558,529.4313286249526,529.4313286249526,529.4313286249526,529.4313286249526,530.5113481250592,200004,004,2023-03-31_11h13.38.434,DMS_et_12-36,2022.2.4,None,
,,,,,,,,,,,,,,,,,,,,,,,,,,,,,,,,,,,8,0,8,0,,,,,,,,,530.5113481250592,542.5436850830447,,,,,,,,,,,,,200004,004,2023-03-31_11h13.38.434,DMS_et_12-36,2022.2.4,None,
85,UNPRED,12,0.7759925450803846,2,images/picture_3.png,images/picture_1.png,0,"[11.733433509789464, 11.733433509789462]",11.733433509789464,11.733433509789462,images/picture_2.png,1,"[-11.733433509789466, -11.733433509789462]",-11.733433509789464,-11.733433509789462,images/picture_3.png,2,"[11.733433509789462, -11.733433509789466]",11.733433509789462,-11.733433509789464,0,1,1,0.7759925450803846,1.7759925450803846,1.2240074549196154,3.0,1,1.5259925450803846,0,4.0,3.0,1,2,9,0,9,0,0,0,0,4,,,,,,,542.5436850830447,542.5436850830447,543.550673250109,544.0841747499071,544.2982286249753,544.2982286249753,544.2982286249753,545.5313122500665,545.5313122500665,545.5313122500665,545.5313122500665,546.5314017499331,200004,004,2023-03-31_11h13.38.434,DMS_et_12-36,2022.2.4,None,
86,UNPRED,12,0.7759925450803846,0,images/picture_1.png,images/picture_1.png,0,"[11.733433509789464, 11.733433509789462]",11.733433509789464,11.733433509789462,images/picture_2.png,1,"[-11.733433509789466, -11.733433509789462]",-11.733433509789464,-11.733433509789462,images/picture_3.png,2,"[11.733433509789462, -11.733433509789466]",11.733433509789462,-11.733433509789464,0,1,1,0.7759925450803846,1.7759925450803846,1.2240074549196154,3.0,1,1.5259925450803846,0,4.0,3.0,1,2,9,0,9,0,0,1,1,5,,,,,,,546.5314017499331,546.5314017499331,547.5313255831134,548.0647290830966,548.2980962910224,548.2980962910224,548.2980962910224,549.5313227081206,549.5313227081206,549.5313227081206,549.5313227081206,550.5502502080053,200004,004,2023-03-31_11h13.38.434,DMS_et_12-36,2022.2.4,None,
87,UNPRED,12,0.7759925450803846,2,images/picture_3.png,images/picture_1.png,0,"[11.733433509789464, 11.733433509789462]",11.733433509789464,11.733433509789462,images/picture_2.png,1,"[-11.733433509789466, -11.733433509789462]",-11.733433509789464,-11.733433509789462,images/picture_3.png,2,"[-11.733433509789462, 11.733433509789464]",-11.733433509789462,11.733433509789464,0,1,1,0.7759925450803846,1.7759925450803846,1.2240074549196154,3.0,1,1.5259925450803846,0,4.0,3.0,1,2,9,0,9,0,0,2,2,6,,,,,,,550.5502502080053,550.5502502080053,551.5644392911345,552.0838061249815,552.298026165925,552.298026165925,552.298026165925,553.5313068330288,553.5313068330288,553.5313068330288,553.5313068330288,554.531764165964,200004,004,2023-03-31_11h13.38.434,DMS_et_12-36,2022.2.4,None,
81,UNPRED,12,0.7759925450803846,1,images/picture_2.png,images/picture_1.png,0,"[-11.733433509789462, 11.733433509789464]",-11.733433509789462,11.733433509789464,images/picture_2.png,1,"[11.733433509789462, -11.733433509789466]",11.733433509789462,-11.733433509789464,images/picture_3.png,2,"[-11.733433509789466, -11.733433509789462]",-11.733433509789464,-11.733433509789462,0,1,1,0.7759925450803846,1.7759925450803846,1.2240074549196154,3.0,1,1.5259925450803846,0,4.0,3.0,1,2,9,0,9,0,0,3,3,0,,,,,,,554.531764165964,554.531764165964,555.5314734580461,556.0647598749492,556.2981200830545,556.2981200830545,556.2981200830545,557.531353166094,557.531353166094,557.531353166094,557.531353166094,558.5500862910412,200004,004,2023-03-31_11h13.38.434,DMS_et_12-36,2022.2.4,None,
88,UNPRED,12,0.7759925450803846,2,images/picture_3.png,images/picture_1.png,0,"[11.733433509789462, -11.733433509789466]",11.733433509789462,-11.733433509789464,images/picture_2.png,1,"[-11.733433509789466, -11.733433509789462]",-11.733433509789464,-11.733433509789462,images/picture_3.png,2,"[-11.733433509789462, 11.733433509789464]",-11.733433509789462,11.733433509789464,0,1,1,0.7759925450803846,1.7759925450803846,1.2240074549196154,3.0,1,1.5259925450803846,0,4.0,3.0,1,2,9,0,9,0,0,4,4,7,,,,,,,558.5500862910412,558.5500862910412,559.5647264579311,560.0842005829327,560.2976862080395,560.2976862080395,560.2976862080395,561.5313042909838,561.5313042909838,561.5313042909838,561.5313042909838,562.53151183296,200004,004,2023-03-31_11h13.38.434,DMS_et_12-36,2022.2.4,None,
82,UNPRED,12,0.7759925450803846,1,images/picture_2.png,images/picture_1.png,0,"[11.733433509789462, -11.733433509789466]",11.733433509789462,-11.733433509789464,images/picture_2.png,1,"[-11.733433509789462, 11.733433509789464]",-11.733433509789462,11.733433509789464,images/picture_3.png,2,"[11.733433509789464, 11.733433509789462]",11.733433509789464,11.733433509789462,0,1,1,0.7759925450803846,1.7759925450803846,1.2240074549196154,3.0,1,1.5259925450803846,0,4.0,3.0,1,2,9,0,9,0,0,5,5,1,,,,,,,562.53151183296,562.53151183296,563.5312857499812,564.064754416002,564.2979582911357,564.2979582911357,564.2979582911357,565.5313043750357,565.5313043750357,565.5313043750357,565.5313043750357,566.5308427501004,200004,004,2023-03-31_11h13.38.434,DMS_et_12-36,2022.2.4,None,
83,UNPRED,12,0.7759925450803846,0,images/picture_1.png,images/picture_1.png,0,"[11.733433509789462, -11.733433509789466]",11.733433509789462,-11.733433509789464,images/picture_2.png,1,"[-11.733433509789462, 11.733433509789464]",-11.733433509789462,11.733433509789464,images/picture_3.png,2,"[-11.733433509789466, -11.733433509789462]",-11.733433509789464,-11.733433509789462,0,1,1,0.7759925450803846,1.7759925450803846,1.2240074549196154,3.0,1,1.5259925450803846,0,4.0,3.0,1,2,9,0,9,0,0,6,6,2,,,,,,,566.5308427501004,566.5308427501004,567.5312857499812,568.0647114580497,568.2981415409595,568.2981415409595,568.2981415409595,569.5313189160079,569.5313189160079,569.5313189160079,569.5313189160079,570.5310296660755,200004,004,2023-03-31_11h13.38.434,DMS_et_12-36,2022.2.4,None,
84,UNPRED,12,0.7759925450803846,0,images/picture_1.png,images/picture_1.png,0,"[11.733433509789464, 11.733433509789462]",11.733433509789464,11.733433509789462,images/picture_2.png,1,"[11.733433509789462, -11.733433509789466]",11.733433509789462,-11.733433509789464,images/picture_3.png,2,"[-11.733433509789462, 11.733433509789464]",-11.733433509789462,11.733433509789464,0,1,1,0.7759925450803846,1.7759925450803846,1.2240074549196154,3.0,1,1.5259925450803846,0,4.0,3.0,1,2,9,0,9,0,0,7,7,3,,,,,,,570.5310296660755,570.5310296660755,571.5310734999366,572.0647582910024,572.2980146249756,572.2980146249756,572.2980146249756,573.5312955831178,573.5312955831178,573.5312955831178,573.5312955831178,574.5499930409715,200004,004,2023-03-31_11h13.38.434,DMS_et_12-36,2022.2.4,None,
89,UNPRED,12,0.7759925450803846,2,images/picture_3.png,images/picture_1.png,0,"[-11.733433509789462, 11.733433509789464]",-11.733433509789462,11.733433509789464,images/picture_2.png,1,"[11.733433509789462, -11.733433509789466]",11.733433509789462,-11.733433509789464,images/picture_3.png,2,"[11.733433509789464, 11.733433509789462]",11.733433509789464,11.733433509789462,0,1,1,0.7759925450803846,1.7759925450803846,1.2240074549196154,3.0,1,1.5259925450803846,0,4.0,3.0,1,2,9,0,9,0,0,8,8,8,,,,,,,574.5499930409715,574.5499930409715,575.5647383329924,576.084435082972,576.2980308749247,576.2980308749247,576.2980308749247,577.5312357910443,577.5312357910443,577.5312357910443,577.5312357910443,578.6345406249166,200004,004,2023-03-31_11h13.38.434,DMS_et_12-36,2022.2.4,None,
,,,,,,,,,,,,,,,,,,,,,,,,,,,,,,,,,,,9,0,9,0,,,,,,,,,578.6345406249166,590.6548453329597,,,,,,,,,,,,,200004,004,2023-03-31_11h13.38.434,DMS_et_12-36,2022.2.4,None,
90,PRED,12,0.7759925450803846,1,images/picture_2.png,images/picture_1.png,0,"[-11.733433509789466, -11.733433509789462]",-11.733433509789464,-11.733433509789462,images/picture_2.png,1,"[11.733433509789462, -11.733433509789466]",11.733433509789462,-11.733433509789464,images/picture_3.png,2,"[-11.733433509789462, 11.733433509789464]",-11.733433509789462,11.733433509789464,0,1,1,0.7759925450803846,1.7759925450803846,1.2240074549196154,3.0,1,1.5259925450803846,0,4.0,3.0,1,2,10,0,10,0,0,0,0,0,,,,,,,590.6548453329597,590.6548453329597,591.6649362079334,592.1841311249882,592.4314414579421,592.4314414579421,592.4314414579421,593.6509298330639,593.6644082081039,593.6644082081039,593.6644082081039,594.6646363749169,200004,004,2023-03-31_11h13.38.434,DMS_et_12-36,2022.2.4,None,
93,PRED,12,0.7759925450803846,1,images/picture_2.png,images/picture_1.png,0,"[11.733433509789462, -11.733433509789466]",11.733433509789462,-11.733433509789464,images/picture_2.png,1,"[-11.733433509789466, -11.733433509789462]",-11.733433509789464,-11.733433509789462,images/picture_3.png,2,"[11.733433509789464, 11.733433509789462]",11.733433509789464,11.733433509789462,0,1,1,0.7759925450803846,1.7759925450803846,1.2240074549196154,3.0,1,1.5259925450803846,0,4.0,3.0,1,2,10,0,10,0,0,1,1,3,,,,,,,594.6646363749169,594.6646363749169,595.6645397499669,596.1981132079381,596.4313570410013,596.4313570410013,596.4313570410013,597.6646998750512,597.6646998750512,597.6646998750512,597.6646998750512,598.6640815830324,200004,004,2023-03-31_11h13.38.434,DMS_et_12-36,2022.2.4,None,
97,PRED,12,0.7759925450803846,1,images/picture_2.png,images/picture_1.png,0,"[11.733433509789464, 11.733433509789462]",11.733433509789464,11.733433509789462,images/picture_2.png,1,"[-11.733433509789466, -11.733433509789462]",-11.733433509789464,-11.733433509789462,images/picture_3.png,2,"[-11.733433509789462, 11.733433509789464]",-11.733433509789462,11.733433509789464,0,1,1,0.7759925450803846,1.7759925450803846,1.2240074549196154,3.0,1,1.5259925450803846,0,4.0,3.0,1,2,10,0,10,0,0,2,2,7,,,,,,,598.6640815830324,598.6640815830324,599.6648396251258,600.1979925830383,600.4313411659095,600.4313411659095,600.4313411659095,601.6643940829672,601.6643940829672,601.6643940829672,601.6643940829672,602.6834832499735,200004,004,2023-03-31_11h13.38.434,DMS_et_12-36,2022.2.4,None,
91,PRED,12,0.7759925450803846,1,images/picture_2.png,images/picture_1.png,0,"[11.733433509789462, -11.733433509789466]",11.733433509789462,-11.733433509789464,images/picture_2.png,1,"[-11.733433509789466, -11.733433509789462]",-11.733433509789464,-11.733433509789462,images/picture_3.png,2,"[-11.733433509789462, 11.733433509789464]",-11.733433509789462,11.733433509789464,0,1,1,0.7759925450803846,1.7759925450803846,1.2240074549196154,3.0,1,1.5259925450803846,0,4.0,3.0,1,2,10,0,10,0,0,3,3,1,,,,,,,602.6834832499735,602.6834832499735,603.6979915411212,604.21689349995,604.4312706249766,604.4312706249766,604.4312706249766,605.6644700409379,605.6644700409379,605.6644700409379,605.6644700409379,606.6641494580545,200004,004,2023-03-31_11h13.38.434,DMS_et_12-36,2022.2.4,None,
94,PRED,12,0.7759925450803846,1,images/picture_2.png,images/picture_1.png,0,"[-11.733433509789462, 11.733433509789464]",-11.733433509789462,11.733433509789464,images/picture_2.png,1,"[11.733433509789464, 11.733433509789462]",11.733433509789464,11.733433509789462,images/picture_3.png,2,"[-11.733433509789466, -11.733433509789462]",-11.733433509789464,-11.733433509789462,0,1,1,0.7759925450803846,1.7759925450803846,1.2240074549196154,3.0,1,1.5259925450803846,0,4.0,3.0,1,2,10,0,10,0,0,4,4,4,,,,,,,606.6641494580545,606.6641494580545,607.6647032909095,608.1980802910402,608.4313142080791,608.4313142080791,608.4313142080791,609.6648510829546,609.6648510829546,609.6648510829546,609.6648510829546,610.6640395829454,200004,004,2023-03-31_11h13.38.434,DMS_et_12-36,2022.2.4,None,
92,PRED,12,0.7759925450803846,1,images/picture_2.png,images/picture_1.png,0,"[11.733433509789464, 11.733433509789462]",11.733433509789464,11.733433509789462,images/picture_2.png,1,"[11.733433509789462, -11.733433509789466]",11.733433509789462,-11.733433509789464,images/picture_3.png,2,"[-11.733433509789466, -11.733433509789462]",-11.733433509789464,-11.733433509789462,0,1,1,0.7759925450803846,1.7759925450803846,1.2240074549196154,3.0,1,1.5259925450803846,0,4.0,3.0,1,2,10,0,10,0,0,5,5,2,,,,,,,610.6640395829454,610.6640395829454,611.6644214161206,612.1976383749861,612.4310199581087,612.4310199581087,612.4310199581087,613.6647159159184,613.6647159159184,613.6647159159184,613.6647159159184,614.6642370410264,200004,004,2023-03-31_11h13.38.434,DMS_et_12-36,2022.2.4,None,
96,PRED,12,0.7759925450803846,1,images/picture_2.png,images/picture_1.png,0,"[-11.733433509789466, -11.733433509789462]",-11.733433509789464,-11.733433509789462,images/picture_2.png,1,"[11.733433509789462, -11.733433509789466]",11.733433509789462,-11.733433509789464,images/picture_3.png,2,"[11.733433509789464, 11.733433509789462]",11.733433509789464,11.733433509789462,0,1,1,0.7759925450803846,1.7759925450803846,1.2240074549196154,3.0,1,1.5259925450803846,0,4.0,3.0,1,2,10,0,10,0,0,6,6,6,,,,,,,614.6642370410264,614.6642370410264,615.6645819160622,616.1977604581043,616.4312725830823,616.4312725830823,616.4312725830823,617.6647335831076,617.6647335831076,617.6647335831076,617.6647335831076,618.6644524580333,200004,004,2023-03-31_11h13.38.434,DMS_et_12-36,2022.2.4,None,
95,PRED,12,0.7759925450803846,1,images/picture_2.png,images/picture_1.png,0,"[-11.733433509789462, 11.733433509789464]",-11.733433509789462,11.733433509789464,images/picture_2.png,1,"[11.733433509789464, 11.733433509789462]",11.733433509789464,11.733433509789462,images/picture_3.png,2,"[-11.733433509789466, -11.733433509789462]",-11.733433509789464,-11.733433509789462,0,1,1,0.7759925450803846,1.7759925450803846,1.2240074549196154,3.0,1,1.5259925450803846,0,4.0,3.0,1,2,10,0,10,0,0,7,7,5,,,,,,,618.6644524580333,618.6644524580333,619.664700333029,620.1980804579798,620.4312672500964,620.4312672500964,620.4312672500964,621.6644112500362,621.6644112500362,621.6644112500362,621.6644112500362,622.6643414581195,200004,004,2023-03-31_11h13.38.434,DMS_et_12-36,2022.2.4,None,
98,PRED,12,0.7759925450803846,1,images/picture_2.png,images/picture_1.png,0,"[11.733433509789464, 11.733433509789462]",11.733433509789464,11.733433509789462,images/picture_2.png,1,"[-11.733433509789466, -11.733433509789462]",-11.733433509789464,-11.733433509789462,images/picture_3.png,2,"[11.733433509789462, -11.733433509789466]",11.733433509789462,-11.733433509789464,0,1,1,0.7759925450803846,1.7759925450803846,1.2240074549196154,3.0,1,1.5259925450803846,0,4.0,3.0,1,2,10,0,10,0,0,8,8,8,,,,,,,622.6643414581195,622.6643414581195,623.6646321660373,624.1980586659629,624.4314780000132,624.4314780000132,624.4314780000132,625.6647340001073,625.6647340001073,625.6647340001073,625.6647340001073,626.7781218751334,200004,004,2023-03-31_11h13.38.434,DMS_et_12-36,2022.2.4,None,
,,,,,,,,,,,,,,,,,,,,,,,,,,,,,,,,,,,10,0,10,0,,,,,,,,,626.7781218751334,638.8070315411314,,,,,,,,,,,,,200004,004,2023-03-31_11h13.38.434,DMS_et_12-36,2022.2.4,None,
106,UNPRED,12,0.7759925450803846,2,images/picture_3.png,images/picture_1.png,0,"[-11.733433509789462, 11.733433509789464]",-11.733433509789462,11.733433509789464,images/picture_2.png,1,"[-11.733433509789466, -11.733433509789462]",-11.733433509789464,-11.733433509789462,images/picture_3.png,2,"[11.733433509789464, 11.733433509789462]",11.733433509789464,11.733433509789462,0,1,1,0.7759925450803846,1.7759925450803846,1.2240074549196154,3.0,1,1.5259925450803846,0,4.0,3.0,1,2,11,0,11,0,0,0,0,7,,,,,,,638.8070315411314,638.8070315411314,639.8167266249657,640.3314673749264,640.5645540000405,640.5645540000405,640.5645540000405,641.798152500065,641.798152500065,641.798152500065,641.798152500065,642.8168065410573,200004,004,2023-03-31_11h13.38.434,DMS_et_12-36,2022.2.4,None,
104,UNPRED,12,0.7759925450803846,2,images/picture_3.png,images/picture_1.png,0,"[-11.733433509789466, -11.733433509789462]",-11.733433509789464,-11.733433509789462,images/picture_2.png,1,"[-11.733433509789462, 11.733433509789464]",-11.733433509789462,11.733433509789464,images/picture_3.png,2,"[11.733433509789464, 11.733433509789462]",11.733433509789464,11.733433509789462,0,1,1,0.7759925450803846,1.7759925450803846,1.2240074549196154,3.0,1,1.5259925450803846,0,4.0,3.0,1,2,11,0,11,0,0,1,1,5,,,,,,,642.8168065410573,642.8168065410573,643.8312548329122,644.3507061661221,644.5645582079887,644.5645582079887,644.5645582079887,645.797979624942,645.797979624942,645.797979624942,645.797979624942,646.7986169159412,200004,004,2023-03-31_11h13.38.434,DMS_et_12-36,2022.2.4,None,
105,UNPRED,12,0.7759925450803846,2,images/picture_3.png,images/picture_1.png,0,"[-11.733433509789462, 11.733433509789464]",-11.733433509789462,11.733433509789464,images/picture_2.png,1,"[-11.733433509789466, -11.733433509789462]",-11.733433509789464,-11.733433509789462,images/picture_3.png,2,"[11.733433509789462, -11.733433509789466]",11.733433509789462,-11.733433509789464,0,1,1,0.7759925450803846,1.7759925450803846,1.2240074549196154,3.0,1,1.5259925450803846,0,4.0,3.0,1,2,11,0,11,0,0,2,2,6,,,,,,,646.7986169159412,646.7986169159412,647.7981373749208,648.331271541072,648.5647877911106,648.5647877911106,648.5647877911106,649.7980065410957,649.7980065410957,649.7980065410957,649.7980065410957,650.8165540411137,200004,004,2023-03-31_11h13.38.434,DMS_et_12-36,2022.2.4,None,
100,UNPRED,12,0.7759925450803846,2,images/picture_3.png,images/picture_1.png,0,"[11.733433509789464, 11.733433509789462]",11.733433509789464,11.733433509789462,images/picture_2.png,1,"[11.733433509789462, -11.733433509789466]",11.733433509789462,-11.733433509789464,images/picture_3.png,2,"[-11.733433509789466, -11.733433509789462]",-11.733433509789464,-11.733433509789462,0,1,1,0.7759925450803846,1.7759925450803846,1.2240074549196154,3.0,1,1.5259925450803846,0,4.0,3.0,1,2,11,0,11,0,0,3,3,1,,,,,,,650.8165540411137,650.8165540411137,651.831255499972,652.3506226250902,652.5642917500809,652.5642917500809,652.5642917500809,653.7981600409839,653.7981600409839,653.7981600409839,653.7981600409839,654.8166268330533,200004,004,2023-03-31_11h13.38.434,DMS_et_12-36,2022.2.4,None,
99,UNPRED,12,0.7759925450803846,2,images/picture_3.png,images/picture_1.png,0,"[-11.733433509789462, 11.733433509789464]",-11.733433509789462,11.733433509789464,images/picture_2.png,1,"[11.733433509789462, -11.733433509789466]",11.733433509789462,-11.733433509789464,images/picture_3.png,2,"[-11.733433509789466, -11.733433509789462]",-11.733433509789464,-11.733433509789462,0,1,1,0.7759925450803846,1.7759925450803846,1.2240074549196154,3.0,1,1.5259925450803846,0,4.0,3.0,1,2,11,0,11,0,0,4,4,0,,,,,,,654.8166268330533,654.8166268330533,655.8312642499804,656.350494540995,656.5647220830433,656.5647220830433,656.5647220830433,657.7980140410364,657.7980140410364,657.7980140410364,657.7980140410364,658.8167489999905,200004,004,2023-03-31_11h13.38.434,DMS_et_12-36,2022.2.4,None,
102,UNPRED,12,0.7759925450803846,2,images/picture_3.png,images/picture_1.png,0,"[11.733433509789464, 11.733433509789462]",11.733433509789464,11.733433509789462,images/picture_2.png,1,"[-11.733433509789466, -11.733433509789462]",-11.733433509789464,-11.733433509789462,images/picture_3.png,2,"[11.733433509789462, -11.733433509789466]",11.733433509789462,-11.733433509789464,0,1,1,0.7759925450803846,1.7759925450803846,1.2240074549196154,3.0,1,1.5259925450803846,0,4.0,3.0,1,2,11,0,11,0,0,5,5,3,,,,,,,658.8167489999905,658.8167489999905,659.8313962079119,660.3508661249653,660.5645296250004,660.5645296250004,660.5645296250004,661.7980448331218,661.7980448331218,661.7980448331218,661.7980448331218,662.7977634579875,200004,004,2023-03-31_11h13.38.434,DMS_et_12-36,2022.2.4,None,
101,UNPRED,12,0.7759925450803846,1,images/picture_2.png,images/picture_1.png,0,"[11.733433509789462, -11.733433509789466]",11.733433509789462,-11.733433509789464,images/picture_2.png,1,"[-11.733433509789466, -11.733433509789462]",-11.733433509789464,-11.733433509789462,images/picture_3.png,2,"[-11.733433509789462, 11.733433509789464]",-11.733433509789462,11.733433509789464,0,1,1,0.7759925450803846,1.7759925450803846,1.2240074549196154,3.0,1,1.5259925450803846,0,4.0,3.0,1,2,11,0,11,0,0,6,6,2,,,,,,,662.7977634579875,662.7977634579875,663.7975594159216,664.3313945000991,664.5645132081117,664.5645132081117,664.5645132081117,665.7981996249873,665.7981996249873,665.7981996249873,665.7981996249873,666.8167263751384,200004,004,2023-03-31_11h13.38.434,DMS_et_12-36,2022.2.4,None,
103,UNPRED,12,0.7759925450803846,2,images/picture_3.png,images/picture_1.png,0,"[-11.733433509789466, -11.733433509789462]",-11.733433509789464,-11.733433509789462,images/picture_2.png,1,"[-11.733433509789462, 11.733433509789464]",-11.733433509789462,11.733433509789464,images/picture_3.png,2,"[11.733433509789464, 11.733433509789462]",11.733433509789464,11.733433509789462,0,1,1,0.7759925450803846,1.7759925450803846,1.2240074549196154,3.0,1,1.5259925450803846,0,4.0,3.0,1,2,11,0,11,0,0,7,7,4,,,,,,,666.8167263751384,666.8167263751384,667.8313933750615,668.3506265410688,668.5647602910176,668.5647602910176,668.5647602910176,669.7980105830356,669.7980105830356,669.7980105830356,669.7980105830356,670.7978943749331,200004,004,2023-03-31_11h13.38.434,DMS_et_12-36,2022.2.4,None,
107,UNPRED,12,0.7759925450803846,0,images/picture_1.png,images/picture_1.png,0,"[-11.733433509789466, -11.733433509789462]",-11.733433509789464,-11.733433509789462,images/picture_2.png,1,"[11.733433509789462, -11.733433509789466]",11.733433509789462,-11.733433509789464,images/picture_3.png,2,"[-11.733433509789462, 11.733433509789464]",-11.733433509789462,11.733433509789464,0,1,1,0.7759925450803846,1.7759925450803846,1.2240074549196154,3.0,1,1.5259925450803846,0,4.0,3.0,1,2,11,0,11,0,0,8,8,8,,,,,,,670.7978943749331,670.7978943749331,671.7981275829952,672.3313007911202,672.5647705830634,672.5647705830634,672.5647705830634,673.7977095409296,673.7977095409296,673.7977095409296,673.7977095409296,674.9637885829434,200004,004,2023-03-31_11h13.38.434,DMS_et_12-36,2022.2.4,None,
,,,,,,,,,,,,,,,,,,,,,,,,,,,,,,,,,,,11,0,11,0,,,,,,,,,674.9637885829434,687.0937287500128,,,,,,,,,,,,,200004,004,2023-03-31_11h13.38.434,DMS_et_12-36,2022.2.4,None,
,,,,,,,,,,,,,,,,,,,,,,,,,,,,,,,,,,,,,,,,,,,,,,,687.0937287500128,699.6253632081207,,,,,,,,,,,,,,,,,,,
