trial_count,blockType,blockNum,delay_time,stimImage_i,stimImage,responseImage1,responseImage1_i,responseImage1_pos,responseImage1_X,responseImage1_Y,responseImage2,responseImage2_i,responseImage2_pos,responseImage2_X,responseImage2_Y,responseImage3,responseImage3_i,responseImage3_pos,responseImage3_X,responseImage3_Y,cue_onset,cue_dur,delay_onset,delay_dur,resp_onset,resp_dur,rest_onset,rest_dur,circle_dur,circle_onset,total_dur,cross_onset,cross_dur,delay_resp_period,blocks.thisRepN,blocks.thisTrialN,blocks.thisN,blocks.thisIndex,trials.thisRepN,trials.thisTrialN,trials.thisN,trials.thisIndex,key_resp.started,text.started,key_resp.keys,key_resp.rt,text_2.started,text_2.stopped,sample.started,Delay.started,sample.stopped,Delay.stopped,Response_1.started,Response_2.started,Response_3.started,Response_1.stopped,Response_2.stopped,Response_3.stopped,polygon.started,polygon.stopped,participant,session,date,expName,psychopyVersion,frameRate,
,,,,,,,,,,,,,,,,,,,,,,,,,,,,,,,,,,,,,,,,,,,200.09995316599088,200.09995316599088,t,100.64260662499873,,,,,,,,,,,,,,,200003,301,2023-04-07_12h37.41.327,DMS_et_12-36,2022.2.4,None,
5,PRED,12,0.9379456433479738,1,images/picture_2.png,images/picture_1.png,0,"[11.733433509789464, 11.733433509789462]",11.733433509789464,11.733433509789462,images/picture_2.png,1,"[-11.733433509789462, 11.733433509789464]",-11.733433509789462,11.733433509789464,images/picture_3.png,2,"[11.733433509789462, -11.733433509789466]",11.733433509789462,-11.733433509789464,0,1,1,0.9379456433479738,1.9379456433479736,1.0620543566520262,3.0,1,1.6879456433479738,0,4.0,3.0,1,2,0,0,0,0,0,0,0,5,,,,,301.25382991599326,313.29043454099155,313.29043454099155,313.29043454099155,314.30018674999883,314.9810638749914,315.2143177079997,315.2143177079997,315.2143177079997,316.28104399998847,316.28104399998847,316.28104399998847,316.28104399998847,317.28042395800003,200003,301,2023-04-07_12h37.41.327,DMS_et_12-36,2022.2.4,None,
2,PRED,12,0.9379456433479738,1,images/picture_2.png,images/picture_1.png,0,"[-11.733433509789466, -11.733433509789462]",-11.733433509789464,-11.733433509789462,images/picture_2.png,1,"[11.733433509789462, -11.733433509789466]",11.733433509789462,-11.733433509789464,images/picture_3.png,2,"[11.733433509789464, 11.733433509789462]",11.733433509789464,11.733433509789462,0,1,1,0.9379456433479738,1.9379456433479736,1.0620543566520262,3.0,1,1.6879456433479738,0,4.0,3.0,1,2,0,0,0,0,0,1,1,2,,,,,,,317.28042395800003,317.28042395800003,318.28102308299276,318.98106458300026,319.2142920829938,319.2142920829938,319.2142920829938,320.28104849999363,320.28104849999363,320.28104849999363,320.28104849999363,321.2806233750016,200003,301,2023-04-07_12h37.41.327,DMS_et_12-36,2022.2.4,None,
4,PRED,12,0.9379456433479738,1,images/picture_2.png,images/picture_1.png,0,"[11.733433509789464, 11.733433509789462]",11.733433509789464,11.733433509789462,images/picture_2.png,1,"[-11.733433509789466, -11.733433509789462]",-11.733433509789464,-11.733433509789462,images/picture_3.png,2,"[11.733433509789462, -11.733433509789466]",11.733433509789462,-11.733433509789464,0,1,1,0.9379456433479738,1.9379456433479736,1.0620543566520262,3.0,1,1.6879456433479738,0,4.0,3.0,1,2,0,0,0,0,0,2,2,4,,,,,,,321.2806233750016,321.2806233750016,322.28104387500207,322.98103812499903,323.21429837499454,323.21429837499454,323.21429837499454,324.28119391600194,324.28119391600194,324.28119391600194,324.28119391600194,325.28096570799244,200003,301,2023-04-07_12h37.41.327,DMS_et_12-36,2022.2.4,None,
3,PRED,12,0.9379456433479738,1,images/picture_2.png,images/picture_1.png,0,"[11.733433509789462, -11.733433509789466]",11.733433509789462,-11.733433509789464,images/picture_2.png,1,"[-11.733433509789462, 11.733433509789464]",-11.733433509789462,11.733433509789464,images/picture_3.png,2,"[-11.733433509789466, -11.733433509789462]",-11.733433509789464,-11.733433509789462,0,1,1,0.9379456433479738,1.9379456433479736,1.0620543566520262,3.0,1,1.6879456433479738,0,4.0,3.0,1,2,0,0,0,0,0,3,3,3,,,,,,,325.28096570799244,325.28096570799244,326.28117812499113,326.98102633300005,327.21433375000197,327.21433375000197,327.21433375000197,328.2811362909997,328.2811362909997,328.2811362909997,328.2811362909997,329.2806333329936,200003,301,2023-04-07_12h37.41.327,DMS_et_12-36,2022.2.4,None,
6,PRED,12,0.9379456433479738,1,images/picture_2.png,images/picture_1.png,0,"[-11.733433509789462, 11.733433509789464]",-11.733433509789462,11.733433509789464,images/picture_2.png,1,"[-11.733433509789466, -11.733433509789462]",-11.733433509789464,-11.733433509789462,images/picture_3.png,2,"[11.733433509789462, -11.733433509789466]",11.733433509789462,-11.733433509789464,0,1,1,0.9379456433479738,1.9379456433479736,1.0620543566520262,3.0,1,1.6879456433479738,0,4.0,3.0,1,2,0,0,0,0,0,4,4,6,,,,,,,329.2806333329936,329.2806333329936,330.2810475409933,330.98111729099764,331.21407799998997,331.21407799998997,331.21407799998997,332.28111341600015,332.28111341600015,332.28111341600015,332.28111341600015,333.2807497079921,200003,301,2023-04-07_12h37.41.327,DMS_et_12-36,2022.2.4,None,
0,PRED,12,0.9379456433479738,1,images/picture_2.png,images/picture_1.png,0,"[11.733433509789462, -11.733433509789466]",11.733433509789462,-11.733433509789464,images/picture_2.png,1,"[-11.733433509789462, 11.733433509789464]",-11.733433509789462,11.733433509789464,images/picture_3.png,2,"[11.733433509789464, 11.733433509789462]",11.733433509789464,11.733433509789462,0,1,1,0.9379456433479738,1.9379456433479736,1.0620543566520262,3.0,1,1.6879456433479738,0,4.0,3.0,1,2,0,0,0,0,0,5,5,0,,,,,,,333.2807497079921,333.2807497079921,334.28108504100237,334.98106291599106,335.2143655409891,335.2143655409891,335.2143655409891,336.2811697500001,336.2811697500001,336.2811697500001,336.2811697500001,337.2805264159979,200003,301,2023-04-07_12h37.41.327,DMS_et_12-36,2022.2.4,None,
1,PRED,12,0.9379456433479738,1,images/picture_2.png,images/picture_1.png,0,"[-11.733433509789466, -11.733433509789462]",-11.733433509789464,-11.733433509789462,images/picture_2.png,1,"[-11.733433509789462, 11.733433509789464]",-11.733433509789462,11.733433509789464,images/picture_3.png,2,"[11.733433509789462, -11.733433509789466]",11.733433509789462,-11.733433509789464,0,1,1,0.9379456433479738,1.9379456433479736,1.0620543566520262,3.0,1,1.6879456433479738,0,4.0,3.0,1,2,0,0,0,0,0,6,6,1,,,,,,,337.2805264159979,337.2805264159979,338.2810846659995,338.9810419159912,339.21453699999256,339.21453699999256,339.21453699999256,340.28106904099695,340.28106904099695,340.28106904099695,340.28106904099695,341.2807672499912,200003,301,2023-04-07_12h37.41.327,DMS_et_12-36,2022.2.4,None,
8,PRED,12,0.9379456433479738,1,images/picture_2.png,images/picture_1.png,0,"[-11.733433509789462, 11.733433509789464]",-11.733433509789462,11.733433509789464,images/picture_2.png,1,"[-11.733433509789466, -11.733433509789462]",-11.733433509789464,-11.733433509789462,images/picture_3.png,2,"[11.733433509789462, -11.733433509789466]",11.733433509789462,-11.733433509789464,0,1,1,0.9379456433479738,1.9379456433479736,1.0620543566520262,3.0,1,1.6879456433479738,0,4.0,3.0,1,2,0,0,0,0,0,7,7,8,,,,,,,341.2807672499912,341.2807672499912,342.2805522909912,342.98125216599146,343.2145214579941,343.2145214579941,343.2145214579941,344.28110083298816,344.28110083298816,344.28110083298816,344.28110083298816,345.28098433298874,200003,301,2023-04-07_12h37.41.327,DMS_et_12-36,2022.2.4,None,
7,PRED,12,0.9379456433479738,1,images/picture_2.png,images/picture_1.png,0,"[-11.733433509789466, -11.733433509789462]",-11.733433509789464,-11.733433509789462,images/picture_2.png,1,"[11.733433509789462, -11.733433509789466]",11.733433509789462,-11.733433509789464,images/picture_3.png,2,"[11.733433509789464, 11.733433509789462]",11.733433509789464,11.733433509789462,0,1,1,0.9379456433479738,1.9379456433479736,1.0620543566520262,3.0,1,1.6879456433479738,0,4.0,3.0,1,2,0,0,0,0,0,8,8,7,,,,,,,345.28098433298874,345.28098433298874,346.2812265409884,346.98108499999216,347.2142302499997,347.2142302499997,347.2142302499997,348.281038000001,348.281038000001,348.281038000001,348.281038000001,349.30099574998894,200003,301,2023-04-07_12h37.41.327,DMS_et_12-36,2022.2.4,None,
,,,,,,,,,,,,,,,,,,,,,,,,,,,,,,,,,,,0,0,0,0,,,,,,,,,349.30099574998894,361.33384520799154,,,,,,,,,,,,,200003,301,2023-04-07_12h37.41.327,DMS_et_12-36,2022.2.4,None,
17,UNPRED,12,0.9379456433479738,1,images/picture_2.png,images/picture_1.png,0,"[-11.733433509789466, -11.733433509789462]",-11.733433509789464,-11.733433509789462,images/picture_2.png,1,"[11.733433509789462, -11.733433509789466]",11.733433509789462,-11.733433509789464,images/picture_3.png,2,"[-11.733433509789462, 11.733433509789464]",-11.733433509789462,11.733433509789464,0,1,1,0.9379456433479738,1.9379456433479736,1.0620543566520262,3.0,1,1.6879456433479738,0,4.0,3.0,1,2,1,0,1,0,0,0,0,8,,,,,,,361.33384520799154,361.33384520799154,362.3477429159975,363.03306283299753,363.26782512498903,363.26782512498903,363.26782512498903,364.3338353329891,364.3338353329891,364.3338353329891,364.3338353329891,365.3473189579963,200003,301,2023-04-07_12h37.41.327,DMS_et_12-36,2022.2.4,None,
12,UNPRED,12,0.9379456433479738,1,images/picture_2.png,images/picture_1.png,0,"[11.733433509789462, -11.733433509789466]",11.733433509789462,-11.733433509789464,images/picture_2.png,1,"[-11.733433509789466, -11.733433509789462]",-11.733433509789464,-11.733433509789462,images/picture_3.png,2,"[11.733433509789464, 11.733433509789462]",11.733433509789464,11.733433509789462,0,1,1,0.9379456433479738,1.9379456433479736,1.0620543566520262,3.0,1,1.6879456433479738,0,4.0,3.0,1,2,1,0,1,0,0,1,1,3,,,,,,,365.3473189579963,365.3473189579963,366.347863374991,367.0478268329898,367.2813143329986,367.2813143329986,367.2813143329986,368.34792975000164,368.34792975000164,368.34792975000164,368.34792975000164,369.36646112499875,200003,301,2023-04-07_12h37.41.327,DMS_et_12-36,2022.2.4,None,
11,UNPRED,12,0.9379456433479738,2,images/picture_3.png,images/picture_1.png,0,"[-11.733433509789462, 11.733433509789464]",-11.733433509789462,11.733433509789464,images/picture_2.png,1,"[-11.733433509789466, -11.733433509789462]",-11.733433509789464,-11.733433509789462,images/picture_3.png,2,"[11.733433509789462, -11.733433509789466]",11.733433509789462,-11.733433509789464,0,1,1,0.9379456433479738,1.9379456433479736,1.0620543566520262,3.0,1,1.6879456433479738,0,4.0,3.0,1,2,1,0,1,0,0,2,2,2,,,,,,,369.36646112499875,369.36646112499875,370.381284624993,371.0670355409966,371.28127891599433,371.28127891599433,371.28127891599433,372.34762454099837,372.34762454099837,372.34762454099837,372.34762454099837,373.36646720799035,200003,301,2023-04-07_12h37.41.327,DMS_et_12-36,2022.2.4,None,
9,UNPRED,12,0.9379456433479738,0,images/picture_1.png,images/picture_1.png,0,"[11.733433509789462, -11.733433509789466]",11.733433509789462,-11.733433509789464,images/picture_2.png,1,"[-11.733433509789462, 11.733433509789464]",-11.733433509789462,11.733433509789464,images/picture_3.png,2,"[-11.733433509789466, -11.733433509789462]",-11.733433509789464,-11.733433509789462,0,1,1,0.9379456433479738,1.9379456433479736,1.0620543566520262,3.0,1,1.6879456433479738,0,4.0,3.0,1,2,1,0,1,0,0,3,3,0,,,,,,,373.36646720799035,373.36646720799035,374.38129887499963,375.06700774999626,375.28128516599827,375.28128516599827,375.28128516599827,376.3480102499889,376.3480102499889,376.3480102499889,376.3480102499889,377.34786095799063,200003,301,2023-04-07_12h37.41.327,DMS_et_12-36,2022.2.4,None,
13,UNPRED,12,0.9379456433479738,1,images/picture_2.png,images/picture_1.png,0,"[11.733433509789462, -11.733433509789466]",11.733433509789462,-11.733433509789464,images/picture_2.png,1,"[11.733433509789464, 11.733433509789462]",11.733433509789464,11.733433509789462,images/picture_3.png,2,"[-11.733433509789462, 11.733433509789464]",-11.733433509789462,11.733433509789464,0,1,1,0.9379456433479738,1.9379456433479736,1.0620543566520262,3.0,1,1.6879456433479738,0,4.0,3.0,1,2,1,0,1,0,0,4,4,4,,,,,,,377.34786095799063,377.34786095799063,378.3478466660017,379.04801533299906,379.2813521249918,379.2813521249918,379.2813521249918,380.34807091599214,380.34807091599214,380.34807091599214,380.34807091599214,381.3665517909976,200003,301,2023-04-07_12h37.41.327,DMS_et_12-36,2022.2.4,None,
10,UNPRED,12,0.9379456433479738,2,images/picture_3.png,images/picture_1.png,0,"[-11.733433509789466, -11.733433509789462]",-11.733433509789464,-11.733433509789462,images/picture_2.png,1,"[-11.733433509789462, 11.733433509789464]",-11.733433509789462,11.733433509789464,images/picture_3.png,2,"[11.733433509789464, 11.733433509789462]",11.733433509789464,11.733433509789462,0,1,1,0.9379456433479738,1.9379456433479736,1.0620543566520262,3.0,1,1.6879456433479738,0,4.0,3.0,1,2,1,0,1,0,0,5,5,1,,,,,,,381.3665517909976,381.3665517909976,382.38109145799535,383.06646341599117,383.2810672909982,383.2810672909982,383.2810672909982,384.34798129099363,384.34798129099363,384.34798129099363,384.34798129099363,385.3474851659994,200003,301,2023-04-07_12h37.41.327,DMS_et_12-36,2022.2.4,None,
14,UNPRED,12,0.9379456433479738,0,images/picture_1.png,images/picture_1.png,0,"[-11.733433509789466, -11.733433509789462]",-11.733433509789464,-11.733433509789462,images/picture_2.png,1,"[11.733433509789464, 11.733433509789462]",11.733433509789464,11.733433509789462,images/picture_3.png,2,"[11.733433509789462, -11.733433509789466]",11.733433509789462,-11.733433509789464,0,1,1,0.9379456433479738,1.9379456433479736,1.0620543566520262,3.0,1,1.6879456433479738,0,4.0,3.0,1,2,1,0,1,0,0,6,6,5,,,,,,,385.3474851659994,385.3474851659994,386.3480469579954,387.0480435829959,387.28134266599955,387.28134266599955,387.28134266599955,388.3481194999913,388.3481194999913,388.3481194999913,388.3481194999913,389.34775612498925,200003,301,2023-04-07_12h37.41.327,DMS_et_12-36,2022.2.4,None,
16,UNPRED,12,0.9379456433479738,0,images/picture_1.png,images/picture_1.png,0,"[-11.733433509789462, 11.733433509789464]",-11.733433509789462,11.733433509789464,images/picture_2.png,1,"[11.733433509789462, -11.733433509789466]",11.733433509789462,-11.733433509789464,images/picture_3.png,2,"[-11.733433509789466, -11.733433509789462]",-11.733433509789464,-11.733433509789462,0,1,1,0.9379456433479738,1.9379456433479736,1.0620543566520262,3.0,1,1.6879456433479738,0,4.0,3.0,1,2,1,0,1,0,0,7,7,7,,,,,,,389.34775612498925,389.34775612498925,390.34806391599705,391.047889458001,391.28135333298997,391.28135333298997,391.28135333298997,392.348025165993,392.348025165993,392.348025165993,392.348025165993,393.3476832909946,200003,301,2023-04-07_12h37.41.327,DMS_et_12-36,2022.2.4,None,
15,UNPRED,12,0.9379456433479738,1,images/picture_2.png,images/picture_1.png,0,"[11.733433509789464, 11.733433509789462]",11.733433509789464,11.733433509789462,images/picture_2.png,1,"[-11.733433509789466, -11.733433509789462]",-11.733433509789464,-11.733433509789462,images/picture_3.png,2,"[11.733433509789462, -11.733433509789466]",11.733433509789462,-11.733433509789464,0,1,1,0.9379456433479738,1.9379456433479736,1.0620543566520262,3.0,1,1.6879456433479738,0,4.0,3.0,1,2,1,0,1,0,0,8,8,6,,,,,,,393.3476832909946,393.3476832909946,394.34807849999925,395.04803799999354,395.2813017909939,395.2813017909939,395.2813017909939,396.3480956659914,396.3480956659914,396.3480956659914,396.3480956659914,397.38124179099395,200003,301,2023-04-07_12h37.41.327,DMS_et_12-36,2022.2.4,None,
,,,,,,,,,,,,,,,,,,,,,,,,,,,,,,,,,,,1,0,1,0,,,,,,,,,397.38124179099395,409.40033095800027,,,,,,,,,,,,,200003,301,2023-04-07_12h37.41.327,DMS_et_12-36,2022.2.4,None,
26,PRED,12,0.9379456433479738,0,images/picture_1.png,images/picture_1.png,0,"[11.733433509789462, -11.733433509789466]",11.733433509789462,-11.733433509789464,images/picture_2.png,1,"[-11.733433509789466, -11.733433509789462]",-11.733433509789464,-11.733433509789462,images/picture_3.png,2,"[11.733433509789464, 11.733433509789462]",11.733433509789464,11.733433509789462,0,1,1,0.9379456433479738,1.9379456433479736,1.0620543566520262,3.0,1,1.6879456433479738,0,4.0,3.0,1,2,2,0,2,0,0,0,0,8,,,,,,,409.40033095800027,409.40033095800027,410.41489895799896,411.10054683299677,411.33409954099625,411.33409954099625,411.33409954099625,412.4005555409967,412.4005555409967,412.4005555409967,412.4005555409967,413.4144029159943,200003,301,2023-04-07_12h37.41.327,DMS_et_12-36,2022.2.4,None,
19,PRED,12,0.9379456433479738,0,images/picture_1.png,images/picture_1.png,0,"[11.733433509789464, 11.733433509789462]",11.733433509789464,11.733433509789462,images/picture_2.png,1,"[-11.733433509789466, -11.733433509789462]",-11.733433509789464,-11.733433509789462,images/picture_3.png,2,"[-11.733433509789462, 11.733433509789464]",-11.733433509789462,11.733433509789464,0,1,1,0.9379456433479738,1.9379456433479736,1.0620543566520262,3.0,1,1.6879456433479738,0,4.0,3.0,1,2,2,0,2,0,0,1,1,1,,,,,,,413.4144029159943,413.4144029159943,414.41480183300155,415.1149011249945,415.3480367079901,415.3480367079901,415.3480367079901,416.4149386249919,416.4149386249919,416.4149386249919,416.4149386249919,417.4145069160004,200003,301,2023-04-07_12h37.41.327,DMS_et_12-36,2022.2.4,None,
23,PRED,12,0.9379456433479738,0,images/picture_1.png,images/picture_1.png,0,"[11.733433509789462, -11.733433509789466]",11.733433509789462,-11.733433509789464,images/picture_2.png,1,"[11.733433509789464, 11.733433509789462]",11.733433509789464,11.733433509789462,images/picture_3.png,2,"[-11.733433509789462, 11.733433509789464]",-11.733433509789462,11.733433509789464,0,1,1,0.9379456433479738,1.9379456433479736,1.0620543566520262,3.0,1,1.6879456433479738,0,4.0,3.0,1,2,2,0,2,0,0,2,2,5,,,,,,,417.4145069160004,417.4145069160004,418.41483562499343,419.1148271659913,419.3482826249965,419.3482826249965,419.3482826249965,420.414827332992,420.414827332992,420.414827332992,420.414827332992,421.41424141600146,200003,301,2023-04-07_12h37.41.327,DMS_et_12-36,2022.2.4,None,
21,PRED,12,0.9379456433479738,0,images/picture_1.png,images/picture_1.png,0,"[-11.733433509789466, -11.733433509789462]",-11.733433509789464,-11.733433509789462,images/picture_2.png,1,"[-11.733433509789462, 11.733433509789464]",-11.733433509789462,11.733433509789464,images/picture_3.png,2,"[11.733433509789464, 11.733433509789462]",11.733433509789464,11.733433509789462,0,1,1,0.9379456433479738,1.9379456433479736,1.0620543566520262,3.0,1,1.6879456433479738,0,4.0,3.0,1,2,2,0,2,0,0,3,3,3,,,,,,,421.41424141600146,421.41424141600146,422.4148433329974,423.1147939579969,423.34780733298976,423.34780733298976,423.34780733298976,424.4146809579979,424.4146809579979,424.4146809579979,424.4146809579979,425.41442679100146,200003,301,2023-04-07_12h37.41.327,DMS_et_12-36,2022.2.4,None,
24,PRED,12,0.9379456433479738,0,images/picture_1.png,images/picture_1.png,0,"[11.733433509789462, -11.733433509789466]",11.733433509789462,-11.733433509789464,images/picture_2.png,1,"[-11.733433509789462, 11.733433509789464]",-11.733433509789462,11.733433509789464,images/picture_3.png,2,"[-11.733433509789466, -11.733433509789462]",-11.733433509789464,-11.733433509789462,0,1,1,0.9379456433479738,1.9379456433479736,1.0620543566520262,3.0,1,1.6879456433479738,0,4.0,3.0,1,2,2,0,2,0,0,4,4,6,,,,,,,425.41442679100146,425.41442679100146,426.4148388749891,427.11487804100034,427.34812574999523,427.34812574999523,427.34812574999523,428.41496837500017,428.41496837500017,428.41496837500017,428.41496837500017,429.41450724999595,200003,301,2023-04-07_12h37.41.327,DMS_et_12-36,2022.2.4,None,
20,PRED,12,0.9379456433479738,0,images/picture_1.png,images/picture_1.png,0,"[-11.733433509789462, 11.733433509789464]",-11.733433509789462,11.733433509789464,images/picture_2.png,1,"[-11.733433509789466, -11.733433509789462]",-11.733433509789464,-11.733433509789462,images/picture_3.png,2,"[11.733433509789462, -11.733433509789466]",11.733433509789462,-11.733433509789464,0,1,1,0.9379456433479738,1.9379456433479736,1.0620543566520262,3.0,1,1.6879456433479738,0,4.0,3.0,1,2,2,0,2,0,0,5,5,2,,,,,,,429.41450724999595,429.41450724999595,430.4148450829962,431.11485324999376,431.34827408299316,431.34827408299316,431.34827408299316,432.4148583329952,432.4148583329952,432.4148583329952,432.4148583329952,433.4143503749947,200003,301,2023-04-07_12h37.41.327,DMS_et_12-36,2022.2.4,None,
22,PRED,12,0.9379456433479738,0,images/picture_1.png,images/picture_1.png,0,"[11.733433509789462, -11.733433509789466]",11.733433509789462,-11.733433509789464,images/picture_2.png,1,"[-11.733433509789462, 11.733433509789464]",-11.733433509789462,11.733433509789464,images/picture_3.png,2,"[11.733433509789464, 11.733433509789462]",11.733433509789464,11.733433509789462,0,1,1,0.9379456433479738,1.9379456433479736,1.0620543566520262,3.0,1,1.6879456433479738,0,4.0,3.0,1,2,2,0,2,0,0,6,6,4,,,,,,,433.4143503749947,433.4143503749947,434.4147705409996,435.115062375,435.34829166599957,435.34829166599957,435.34829166599957,436.41501079099544,436.41501079099544,436.41501079099544,436.41501079099544,437.41429416599567,200003,301,2023-04-07_12h37.41.327,DMS_et_12-36,2022.2.4,None,
25,PRED,12,0.9379456433479738,0,images/picture_1.png,images/picture_1.png,0,"[11.733433509789462, -11.733433509789466]",11.733433509789462,-11.733433509789464,images/picture_2.png,1,"[11.733433509789464, 11.733433509789462]",11.733433509789464,11.733433509789462,images/picture_3.png,2,"[-11.733433509789462, 11.733433509789464]",-11.733433509789462,11.733433509789464,0,1,1,0.9379456433479738,1.9379456433479736,1.0620543566520262,3.0,1,1.6879456433479738,0,4.0,3.0,1,2,2,0,2,0,0,7,7,7,,,,,,,437.41429416599567,437.41429416599567,438.41524533300253,439.1150281250011,439.34830795798916,439.34830795798916,439.34830795798916,440.4148287499993,440.4148287499993,440.4148287499993,440.4148287499993,441.4143483329972,200003,301,2023-04-07_12h37.41.327,DMS_et_12-36,2022.2.4,None,
18,PRED,12,0.9379456433479738,0,images/picture_1.png,images/picture_1.png,0,"[-11.733433509789462, 11.733433509789464]",-11.733433509789462,11.733433509789464,images/picture_2.png,1,"[11.733433509789464, 11.733433509789462]",11.733433509789464,11.733433509789462,images/picture_3.png,2,"[-11.733433509789466, -11.733433509789462]",-11.733433509789464,-11.733433509789462,0,1,1,0.9379456433479738,1.9379456433479736,1.0620543566520262,3.0,1,1.6879456433479738,0,4.0,3.0,1,2,2,0,2,0,0,8,8,0,,,,,,,441.4143483329972,441.4143483329972,442.4150377079932,443.115057832998,443.3482920410024,443.3482920410024,443.3482920410024,444.4145378749963,444.4145378749963,444.4145378749963,444.4145378749963,445.4559626659902,200003,301,2023-04-07_12h37.41.327,DMS_et_12-36,2022.2.4,None,
,,,,,,,,,,,,,,,,,,,,,,,,,,,,,,,,,,,2,0,2,0,,,,,,,,,445.4559626659902,457.48999429099786,,,,,,,,,,,,,200003,301,2023-04-07_12h37.41.327,DMS_et_12-36,2022.2.4,None,
30,UNPRED,12,0.9379456433479738,2,images/picture_3.png,images/picture_1.png,0,"[-11.733433509789462, 11.733433509789464]",-11.733433509789462,11.733433509789464,images/picture_2.png,1,"[11.733433509789462, -11.733433509789466]",11.733433509789462,-11.733433509789464,images/picture_3.png,2,"[11.733433509789464, 11.733433509789462]",11.733433509789464,11.733433509789462,0,1,1,0.9379456433479738,1.9379456433479736,1.0620543566520262,3.0,1,1.6879456433479738,0,4.0,3.0,1,2,3,0,3,0,0,0,0,3,,,,,,,457.48999429099786,457.48999429099786,458.5008945409936,459.1816069159977,459.4150786659884,459.4150786659884,459.4150786659884,460.4818047909939,460.4818047909939,460.4818047909939,460.4818047909939,461.4818743329961,200003,301,2023-04-07_12h37.41.327,DMS_et_12-36,2022.2.4,None,
34,UNPRED,12,0.9379456433479738,0,images/picture_1.png,images/picture_1.png,0,"[-11.733433509789466, -11.733433509789462]",-11.733433509789464,-11.733433509789462,images/picture_2.png,1,"[-11.733433509789462, 11.733433509789464]",-11.733433509789462,11.733433509789464,images/picture_3.png,2,"[11.733433509789464, 11.733433509789462]",11.733433509789464,11.733433509789462,0,1,1,0.9379456433479738,1.9379456433479736,1.0620543566520262,3.0,1,1.6879456433479738,0,4.0,3.0,1,2,3,0,3,0,0,1,1,7,,,,,,,461.4818743329961,461.4818743329961,462.48174004099565,463.181787249996,463.41503699999885,463.41503699999885,463.41503699999885,464.48144045799563,464.48144045799563,464.48144045799563,464.48144045799563,465.48157245799666,200003,301,2023-04-07_12h37.41.327,DMS_et_12-36,2022.2.4,None,
35,UNPRED,12,0.9379456433479738,0,images/picture_1.png,images/picture_1.png,0,"[-11.733433509789466, -11.733433509789462]",-11.733433509789464,-11.733433509789462,images/picture_2.png,1,"[11.733433509789464, 11.733433509789462]",11.733433509789464,11.733433509789462,images/picture_3.png,2,"[11.733433509789462, -11.733433509789466]",11.733433509789462,-11.733433509789464,0,1,1,0.9379456433479738,1.9379456433479736,1.0620543566520262,3.0,1,1.6879456433479738,0,4.0,3.0,1,2,3,0,3,0,0,2,2,8,,,,,,,465.48157245799666,465.48157245799666,466.4817667499883,467.18217316600203,467.41504324998823,467.41504324998823,467.41504324998823,468.4818147079932,468.4818147079932,468.4818147079932,468.4818147079932,469.50041149999015,200003,301,2023-04-07_12h37.41.327,DMS_et_12-36,2022.2.4,None,
33,UNPRED,12,0.9379456433479738,2,images/picture_3.png,images/picture_1.png,0,"[11.733433509789462, -11.733433509789466]",11.733433509789462,-11.733433509789464,images/picture_2.png,1,"[-11.733433509789466, -11.733433509789462]",-11.733433509789464,-11.733433509789462,images/picture_3.png,2,"[11.733433509789464, 11.733433509789462]",11.733433509789464,11.733433509789462,0,1,1,0.9379456433479738,1.9379456433479736,1.0620543566520262,3.0,1,1.6879456433479738,0,4.0,3.0,1,2,3,0,3,0,0,3,3,6,,,,,,,469.50041149999015,469.50041149999015,470.514794540999,471.20063766599924,471.41481041599764,471.41481041599764,471.41481041599764,472.4815176659904,472.4815176659904,472.4815176659904,472.4815176659904,473.4809795829933,200003,301,2023-04-07_12h37.41.327,DMS_et_12-36,2022.2.4,None,
28,UNPRED,12,0.9379456433479738,0,images/picture_1.png,images/picture_1.png,0,"[-11.733433509789462, 11.733433509789464]",-11.733433509789462,11.733433509789464,images/picture_2.png,1,"[11.733433509789464, 11.733433509789462]",11.733433509789464,11.733433509789462,images/picture_3.png,2,"[11.733433509789462, -11.733433509789466]",11.733433509789462,-11.733433509789464,0,1,1,0.9379456433479738,1.9379456433479736,1.0620543566520262,3.0,1,1.6879456433479738,0,4.0,3.0,1,2,3,0,3,0,0,4,4,1,,,,,,,473.4809795829933,473.4809795829933,474.4815607079945,475.18126741598826,475.41448879099335,475.41448879099335,475.41448879099335,476.4815462909901,476.4815462909901,476.4815462909901,476.4815462909901,477.4811719159916,200003,301,2023-04-07_12h37.41.327,DMS_et_12-36,2022.2.4,None,
29,UNPRED,12,0.9379456433479738,0,images/picture_1.png,images/picture_1.png,0,"[11.733433509789464, 11.733433509789462]",11.733433509789464,11.733433509789462,images/picture_2.png,1,"[11.733433509789462, -11.733433509789466]",11.733433509789462,-11.733433509789464,images/picture_3.png,2,"[-11.733433509789462, 11.733433509789464]",-11.733433509789462,11.733433509789464,0,1,1,0.9379456433479738,1.9379456433479736,1.0620543566520262,3.0,1,1.6879456433479738,0,4.0,3.0,1,2,3,0,3,0,0,5,5,2,,,,,,,477.4811719159916,477.4811719159916,478.4815249999956,479.18159933299467,479.4147735000006,479.4147735000006,479.4147735000006,480.48150633300247,480.48150633300247,480.48150633300247,480.48150633300247,481.4807364159933,200003,301,2023-04-07_12h37.41.327,DMS_et_12-36,2022.2.4,None,
32,UNPRED,12,0.9379456433479738,1,images/picture_2.png,images/picture_1.png,0,"[-11.733433509789466, -11.733433509789462]",-11.733433509789464,-11.733433509789462,images/picture_2.png,1,"[11.733433509789464, 11.733433509789462]",11.733433509789464,11.733433509789462,images/picture_3.png,2,"[11.733433509789462, -11.733433509789466]",11.733433509789462,-11.733433509789464,0,1,1,0.9379456433479738,1.9379456433479736,1.0620543566520262,3.0,1,1.6879456433479738,0,4.0,3.0,1,2,3,0,3,0,0,6,6,5,,,,,,,481.4807364159933,481.4807364159933,482.48154154099757,483.1815150829934,483.414851249996,483.414851249996,483.414851249996,484.48151983298885,484.48151983298885,484.48151983298885,484.48151983298885,485.50037075,200003,301,2023-04-07_12h37.41.327,DMS_et_12-36,2022.2.4,None,
31,UNPRED,12,0.9379456433479738,2,images/picture_3.png,images/picture_1.png,0,"[-11.733433509789462, 11.733433509789464]",-11.733433509789462,11.733433509789464,images/picture_2.png,1,"[-11.733433509789466, -11.733433509789462]",-11.733433509789464,-11.733433509789462,images/picture_3.png,2,"[11.733433509789462, -11.733433509789466]",11.733433509789462,-11.733433509789464,0,1,1,0.9379456433479738,1.9379456433479736,1.0620543566520262,3.0,1,1.6879456433479738,0,4.0,3.0,1,2,3,0,3,0,0,7,7,4,,,,,,,485.50037075,485.50037075,486.51487025000097,487.2007101659983,487.41482416600047,487.41482416600047,487.41482416600047,488.4815325829986,488.4815325829986,488.4815325829986,488.4815325829986,489.4804963749921,200003,301,2023-04-07_12h37.41.327,DMS_et_12-36,2022.2.4,None,
27,UNPRED,12,0.9379456433479738,0,images/picture_1.png,images/picture_1.png,0,"[-11.733433509789466, -11.733433509789462]",-11.733433509789464,-11.733433509789462,images/picture_2.png,1,"[11.733433509789462, -11.733433509789466]",11.733433509789462,-11.733433509789464,images/picture_3.png,2,"[-11.733433509789462, 11.733433509789464]",-11.733433509789462,11.733433509789464,0,1,1,0.9379456433479738,1.9379456433479736,1.0620543566520262,3.0,1,1.6879456433479738,0,4.0,3.0,1,2,3,0,3,0,0,8,8,0,,,,,,,489.4804963749921,489.4804963749921,490.48149554099655,491.1815053749888,491.4148374159995,491.4148374159995,491.4148374159995,492.48154766600055,492.48154766600055,492.48154766600055,492.48154766600055,493.5312534580007,200003,301,2023-04-07_12h37.41.327,DMS_et_12-36,2022.2.4,None,
,,,,,,,,,,,,,,,,,,,,,,,,,,,,,,,,,,,3,0,3,0,,,,,,,,,493.5312534580007,505.54357662500115,,,,,,,,,,,,,200003,301,2023-04-07_12h37.41.327,DMS_et_12-36,2022.2.4,None,
42,PRED,12,0.9379456433479738,2,images/picture_3.png,images/picture_1.png,0,"[-11.733433509789466, -11.733433509789462]",-11.733433509789464,-11.733433509789462,images/picture_2.png,1,"[11.733433509789464, 11.733433509789462]",11.733433509789464,11.733433509789462,images/picture_3.png,2,"[-11.733433509789462, 11.733433509789464]",-11.733433509789462,11.733433509789464,0,1,1,0.9379456433479738,1.9379456433479736,1.0620543566520262,3.0,1,1.6879456433479738,0,4.0,3.0,1,2,4,0,4,0,0,0,0,6,,,,,,,505.54357662500115,505.54357662500115,506.5480947079923,507.2347286659933,507.46782587499183,507.46782587499183,507.46782587499183,508.53508191599394,508.53508191599394,508.53508191599394,508.53508191599394,509.5669595829968,200003,301,2023-04-07_12h37.41.327,DMS_et_12-36,2022.2.4,None,
43,PRED,12,0.9379456433479738,2,images/picture_3.png,images/picture_1.png,0,"[-11.733433509789462, 11.733433509789464]",-11.733433509789462,11.733433509789464,images/picture_2.png,1,"[11.733433509789462, -11.733433509789466]",11.733433509789462,-11.733433509789464,images/picture_3.png,2,"[-11.733433509789466, -11.733433509789462]",-11.733433509789464,-11.733433509789462,0,1,1,0.9379456433479738,1.9379456433479736,1.0620543566520262,3.0,1,1.6879456433479738,0,4.0,3.0,1,2,4,0,4,0,0,1,1,7,,,,,,,509.5669595829968,509.5669595829968,510.5816042499937,511.26742558299156,511.4815654159902,511.4815654159902,511.4815654159902,512.5483002499968,512.5483002499968,512.5483002499968,512.5483002499968,513.5676107909967,200003,301,2023-04-07_12h37.41.327,DMS_et_12-36,2022.2.4,None,
41,PRED,12,0.9379456433479738,2,images/picture_3.png,images/picture_1.png,0,"[11.733433509789464, 11.733433509789462]",11.733433509789464,11.733433509789462,images/picture_2.png,1,"[11.733433509789462, -11.733433509789466]",11.733433509789462,-11.733433509789464,images/picture_3.png,2,"[-11.733433509789466, -11.733433509789462]",-11.733433509789464,-11.733433509789462,0,1,1,0.9379456433479738,1.9379456433479736,1.0620543566520262,3.0,1,1.6879456433479738,0,4.0,3.0,1,2,4,0,4,0,0,2,2,5,,,,,,,513.5676107909967,513.5676107909967,514.5815034999978,515.2676039159996,515.4815966250026,515.4815966250026,515.4815966250026,516.5480090829951,516.5480090829951,516.5480090829951,516.5480090829951,517.5674224999966,200003,301,2023-04-07_12h37.41.327,DMS_et_12-36,2022.2.4,None,
37,PRED,12,0.9379456433479738,2,images/picture_3.png,images/picture_1.png,0,"[11.733433509789462, -11.733433509789466]",11.733433509789462,-11.733433509789464,images/picture_2.png,1,"[-11.733433509789462, 11.733433509789464]",-11.733433509789462,11.733433509789464,images/picture_3.png,2,"[11.733433509789464, 11.733433509789462]",11.733433509789464,11.733433509789462,0,1,1,0.9379456433479738,1.9379456433479736,1.0620543566520262,3.0,1,1.6879456433479738,0,4.0,3.0,1,2,4,0,4,0,0,3,3,1,,,,,,,517.5674224999966,517.5674224999966,518.5815750409965,519.2673044580006,519.4815919159882,519.4815919159882,519.4815919159882,520.548247957995,520.548247957995,520.548247957995,520.548247957995,521.5678613329947,200003,301,2023-04-07_12h37.41.327,DMS_et_12-36,2022.2.4,None,
44,PRED,12,0.9379456433479738,2,images/picture_3.png,images/picture_1.png,0,"[11.733433509789462, -11.733433509789466]",11.733433509789462,-11.733433509789464,images/picture_2.png,1,"[-11.733433509789466, -11.733433509789462]",-11.733433509789464,-11.733433509789462,images/picture_3.png,2,"[-11.733433509789462, 11.733433509789464]",-11.733433509789462,11.733433509789464,0,1,1,0.9379456433479738,1.9379456433479736,1.0620543566520262,3.0,1,1.6879456433479738,0,4.0,3.0,1,2,4,0,4,0,0,4,4,8,,,,,,,521.5678613329947,521.5678613329947,522.5816284999892,523.2675985829992,523.4815606249904,523.4815606249904,523.4815606249904,524.5483587909985,524.5483587909985,524.5483587909985,524.5483587909985,525.5674583329965,200003,301,2023-04-07_12h37.41.327,DMS_et_12-36,2022.2.4,None,
39,PRED,12,0.9379456433479738,2,images/picture_3.png,images/picture_1.png,0,"[11.733433509789464, 11.733433509789462]",11.733433509789464,11.733433509789462,images/picture_2.png,1,"[-11.733433509789466, -11.733433509789462]",-11.733433509789464,-11.733433509789462,images/picture_3.png,2,"[-11.733433509789462, 11.733433509789464]",-11.733433509789462,11.733433509789464,0,1,1,0.9379456433479738,1.9379456433479736,1.0620543566520262,3.0,1,1.6879456433479738,0,4.0,3.0,1,2,4,0,4,0,0,5,5,3,,,,,,,525.5674583329965,525.5674583329965,526.5812878750003,527.2669854999986,527.4815660000022,527.4815660000022,527.4815660000022,528.5482358750014,528.5482358750014,528.5482358750014,528.5482358750014,529.5679402909882,200003,301,2023-04-07_12h37.41.327,DMS_et_12-36,2022.2.4,None,
40,PRED,12,0.9379456433479738,2,images/picture_3.png,images/picture_1.png,0,"[-11.733433509789462, 11.733433509789464]",-11.733433509789462,11.733433509789464,images/picture_2.png,1,"[-11.733433509789466, -11.733433509789462]",-11.733433509789464,-11.733433509789462,images/picture_3.png,2,"[11.733433509789462, -11.733433509789466]",11.733433509789462,-11.733433509789464,0,1,1,0.9379456433479738,1.9379456433479736,1.0620543566520262,3.0,1,1.6879456433479738,0,4.0,3.0,1,2,4,0,4,0,0,6,6,4,,,,,,,529.5679402909882,529.5679402909882,530.5815909999947,531.2675514159928,531.4816337079974,531.4816337079974,531.4816337079974,532.548334416002,532.548334416002,532.548334416002,532.548334416002,533.5671971249976,200003,301,2023-04-07_12h37.41.327,DMS_et_12-36,2022.2.4,None,
36,PRED,12,0.9379456433479738,2,images/picture_3.png,images/picture_1.png,0,"[-11.733433509789462, 11.733433509789464]",-11.733433509789462,11.733433509789464,images/picture_2.png,1,"[11.733433509789462, -11.733433509789466]",11.733433509789462,-11.733433509789464,images/picture_3.png,2,"[-11.733433509789466, -11.733433509789462]",-11.733433509789464,-11.733433509789462,0,1,1,0.9379456433479738,1.9379456433479736,1.0620543566520262,3.0,1,1.6879456433479738,0,4.0,3.0,1,2,4,0,4,0,0,7,7,0,,,,,,,533.5671971249976,533.5671971249976,534.5817427909933,535.2676114579954,535.4815753329895,535.4815753329895,535.4815753329895,536.5478614579915,536.5478614579915,536.5478614579915,536.5478614579915,537.5671822079894,200003,301,2023-04-07_12h37.41.327,DMS_et_12-36,2022.2.4,None,
38,PRED,12,0.9379456433479738,2,images/picture_3.png,images/picture_1.png,0,"[-11.733433509789462, 11.733433509789464]",-11.733433509789462,11.733433509789464,images/picture_2.png,1,"[11.733433509789464, 11.733433509789462]",11.733433509789464,11.733433509789462,images/picture_3.png,2,"[-11.733433509789466, -11.733433509789462]",-11.733433509789464,-11.733433509789462,0,1,1,0.9379456433479738,1.9379456433479736,1.0620543566520262,3.0,1,1.6879456433479738,0,4.0,3.0,1,2,4,0,4,0,0,8,8,2,,,,,,,537.5671822079894,537.5671822079894,538.5817499999976,539.2675209159934,539.4815625829942,539.4815625829942,539.4815625829942,540.5485708749911,540.5485708749911,540.5485708749911,540.5485708749911,541.6619362079946,200003,301,2023-04-07_12h37.41.327,DMS_et_12-36,2022.2.4,None,
,,,,,,,,,,,,,,,,,,,,,,,,,,,,,,,,,,,4,0,4,0,,,,,,,,,541.6619362079946,553.6843585000024,,,,,,,,,,,,,200003,301,2023-04-07_12h37.41.327,DMS_et_12-36,2022.2.4,None,
53,UNPRED,12,0.9379456433479738,1,images/picture_2.png,images/picture_1.png,0,"[11.733433509789464, 11.733433509789462]",11.733433509789464,11.733433509789462,images/picture_2.png,1,"[-11.733433509789462, 11.733433509789464]",-11.733433509789462,11.733433509789464,images/picture_3.png,2,"[-11.733433509789466, -11.733433509789462]",-11.733433509789464,-11.733433509789462,0,1,1,0.9379456433479738,1.9379456433479736,1.0620543566520262,3.0,1,1.6879456433479738,0,4.0,3.0,1,2,5,0,5,0,0,0,0,8,,,,,,,553.6843585000024,553.6843585000024,554.6815721250023,555.3815434579883,555.6150248749909,555.6150248749909,555.6150248749909,556.6813865409931,556.6813865409931,556.6813865409931,556.6813865409931,557.6814048749948,200003,301,2023-04-07_12h37.41.327,DMS_et_12-36,2022.2.4,None,
51,UNPRED,12,0.9379456433479738,1,images/picture_2.png,images/picture_1.png,0,"[11.733433509789464, 11.733433509789462]",11.733433509789464,11.733433509789462,images/picture_2.png,1,"[-11.733433509789462, 11.733433509789464]",-11.733433509789462,11.733433509789464,images/picture_3.png,2,"[-11.733433509789466, -11.733433509789462]",-11.733433509789464,-11.733433509789462,0,1,1,0.9379456433479738,1.9379456433479736,1.0620543566520262,3.0,1,1.6879456433479738,0,4.0,3.0,1,2,5,0,5,0,0,1,1,6,,,,,,,557.6814048749948,557.6814048749948,558.6817602910014,559.3817413329962,559.6150336249993,559.6150336249993,559.6150336249993,560.6816136659909,560.6816136659909,560.6816136659909,560.6816136659909,561.681342040989,200003,301,2023-04-07_12h37.41.327,DMS_et_12-36,2022.2.4,None,
48,UNPRED,12,0.9379456433479738,0,images/picture_1.png,images/picture_1.png,0,"[11.733433509789462, -11.733433509789466]",11.733433509789462,-11.733433509789464,images/picture_2.png,1,"[11.733433509789464, 11.733433509789462]",11.733433509789464,11.733433509789462,images/picture_3.png,2,"[-11.733433509789466, -11.733433509789462]",-11.733433509789464,-11.733433509789462,0,1,1,0.9379456433479738,1.9379456433479736,1.0620543566520262,3.0,1,1.6879456433479738,0,4.0,3.0,1,2,5,0,5,0,0,2,2,3,,,,,,,561.681342040989,561.681342040989,562.6818039579957,563.3817681660003,563.615066665996,563.615066665996,563.615066665996,564.6818692910019,564.6818692910019,564.6818692910019,564.6818692910019,565.7007403329917,200003,301,2023-04-07_12h37.41.327,DMS_et_12-36,2022.2.4,None,
50,UNPRED,12,0.9379456433479738,2,images/picture_3.png,images/picture_1.png,0,"[11.733433509789464, 11.733433509789462]",11.733433509789464,11.733433509789462,images/picture_2.png,1,"[-11.733433509789462, 11.733433509789464]",-11.733433509789462,11.733433509789464,images/picture_3.png,2,"[-11.733433509789466, -11.733433509789462]",-11.733433509789464,-11.733433509789462,0,1,1,0.9379456433479738,1.9379456433479736,1.0620543566520262,3.0,1,1.6879456433479738,0,4.0,3.0,1,2,5,0,5,0,0,3,3,5,,,,,,,565.7007403329917,565.7007403329917,566.7150682079955,567.4006400409999,567.6147255409887,567.6147255409887,567.6147255409887,568.6817577499896,568.6817577499896,568.6817577499896,568.6817577499896,569.6820905829954,200003,301,2023-04-07_12h37.41.327,DMS_et_12-36,2022.2.4,None,
49,UNPRED,12,0.9379456433479738,1,images/picture_2.png,images/picture_1.png,0,"[-11.733433509789466, -11.733433509789462]",-11.733433509789464,-11.733433509789462,images/picture_2.png,1,"[11.733433509789464, 11.733433509789462]",11.733433509789464,11.733433509789462,images/picture_3.png,2,"[-11.733433509789462, 11.733433509789464]",-11.733433509789462,11.733433509789464,0,1,1,0.9379456433479738,1.9379456433479736,1.0620543566520262,3.0,1,1.6879456433479738,0,4.0,3.0,1,2,5,0,5,0,0,4,4,4,,,,,,,569.6820905829954,569.6820905829954,570.6818159999966,571.3817737079953,571.6150530829909,571.6150530829909,571.6150530829909,572.6817673749902,572.6817673749902,572.6817673749902,572.6817673749902,573.6812444579991,200003,301,2023-04-07_12h37.41.327,DMS_et_12-36,2022.2.4,None,
52,UNPRED,12,0.9379456433479738,1,images/picture_2.png,images/picture_1.png,0,"[11.733433509789464, 11.733433509789462]",11.733433509789464,11.733433509789462,images/picture_2.png,1,"[-11.733433509789466, -11.733433509789462]",-11.733433509789464,-11.733433509789462,images/picture_3.png,2,"[-11.733433509789462, 11.733433509789464]",-11.733433509789462,11.733433509789464,0,1,1,0.9379456433479738,1.9379456433479736,1.0620543566520262,3.0,1,1.6879456433479738,0,4.0,3.0,1,2,5,0,5,0,0,5,5,7,,,,,,,573.6812444579991,573.6812444579991,574.6817778330005,575.3818410410022,575.6150724999898,575.6150724999898,575.6150724999898,576.6818112079927,576.6818112079927,576.6818112079927,576.6818112079927,577.7006151249952,200003,301,2023-04-07_12h37.41.327,DMS_et_12-36,2022.2.4,None,
46,UNPRED,12,0.9379456433479738,2,images/picture_3.png,images/picture_1.png,0,"[11.733433509789464, 11.733433509789462]",11.733433509789464,11.733433509789462,images/picture_2.png,1,"[-11.733433509789466, -11.733433509789462]",-11.733433509789464,-11.733433509789462,images/picture_3.png,2,"[-11.733433509789462, 11.733433509789464]",-11.733433509789462,11.733433509789464,0,1,1,0.9379456433479738,1.9379456433479736,1.0620543566520262,3.0,1,1.6879456433479738,0,4.0,3.0,1,2,5,0,5,0,0,6,6,1,,,,,,,577.7006151249952,577.7006151249952,578.7150800829986,579.4008652499906,579.6150489579886,579.6150489579886,579.6150489579886,580.6817417909915,580.6817417909915,580.6817417909915,580.6817417909915,581.6810722079972,200003,301,2023-04-07_12h37.41.327,DMS_et_12-36,2022.2.4,None,
47,UNPRED,12,0.9379456433479738,1,images/picture_2.png,images/picture_1.png,0,"[11.733433509789464, 11.733433509789462]",11.733433509789464,11.733433509789462,images/picture_2.png,1,"[11.733433509789462, -11.733433509789466]",11.733433509789462,-11.733433509789464,images/picture_3.png,2,"[-11.733433509789466, -11.733433509789462]",-11.733433509789464,-11.733433509789462,0,1,1,0.9379456433479738,1.9379456433479736,1.0620543566520262,3.0,1,1.6879456433479738,0,4.0,3.0,1,2,5,0,5,0,0,7,7,2,,,,,,,581.6810722079972,581.6810722079972,582.6817925829964,583.3815059999906,583.6150339579908,583.6150339579908,583.6150339579908,584.6818473750027,584.6818473750027,584.6818473750027,584.6818473750027,585.6812455829931,200003,301,2023-04-07_12h37.41.327,DMS_et_12-36,2022.2.4,None,
45,UNPRED,12,0.9379456433479738,1,images/picture_2.png,images/picture_1.png,0,"[11.733433509789462, -11.733433509789466]",11.733433509789462,-11.733433509789464,images/picture_2.png,1,"[-11.733433509789466, -11.733433509789462]",-11.733433509789464,-11.733433509789462,images/picture_3.png,2,"[11.733433509789464, 11.733433509789462]",11.733433509789464,11.733433509789462,0,1,1,0.9379456433479738,1.9379456433479736,1.0620543566520262,3.0,1,1.6879456433479738,0,4.0,3.0,1,2,5,0,5,0,0,8,8,0,,,,,,,585.6812455829931,585.6812455829931,586.6817681659886,587.381677915997,587.6149020409939,587.6149020409939,587.6149020409939,588.6818348749948,588.6818348749948,588.6818348749948,588.6818348749948,589.753271374997,200003,301,2023-04-07_12h37.41.327,DMS_et_12-36,2022.2.4,None,
,,,,,,,,,,,,,,,,,,,,,,,,,,,,,,,,,,,5,0,5,0,,,,,,,,,589.753271374997,601.7836744160013,,,,,,,,,,,,,200003,301,2023-04-07_12h37.41.327,DMS_et_12-36,2022.2.4,None,
56,PRED,12,0.9379456433479738,1,images/picture_2.png,images/picture_1.png,0,"[11.733433509789462, -11.733433509789466]",11.733433509789462,-11.733433509789464,images/picture_2.png,1,"[-11.733433509789462, 11.733433509789464]",-11.733433509789462,11.733433509789464,images/picture_3.png,2,"[11.733433509789464, 11.733433509789462]",11.733433509789464,11.733433509789462,0,1,1,0.9379456433479738,1.9379456433479736,1.0620543566520262,3.0,1,1.6879456433479738,0,4.0,3.0,1,2,6,0,6,0,0,0,0,2,,,,,,,601.7836744160013,601.7836744160013,602.781773374998,603.4819102909969,603.7151485829963,603.7151485829963,603.7151485829963,604.7818324159889,604.7818324159889,604.7818324159889,604.7818324159889,605.7814591249917,200003,301,2023-04-07_12h37.41.327,DMS_et_12-36,2022.2.4,None,
57,PRED,12,0.9379456433479738,1,images/picture_2.png,images/picture_1.png,0,"[11.733433509789462, -11.733433509789466]",11.733433509789462,-11.733433509789464,images/picture_2.png,1,"[-11.733433509789466, -11.733433509789462]",-11.733433509789464,-11.733433509789462,images/picture_3.png,2,"[11.733433509789464, 11.733433509789462]",11.733433509789464,11.733433509789462,0,1,1,0.9379456433479738,1.9379456433479736,1.0620543566520262,3.0,1,1.6879456433479738,0,4.0,3.0,1,2,6,0,6,0,0,1,1,3,,,,,,,605.7814591249917,605.7814591249917,606.7816299159895,607.4818667499931,607.7153097499977,607.7153097499977,607.7153097499977,608.7817072079924,608.7817072079924,608.7817072079924,608.7817072079924,609.7815138750011,200003,301,2023-04-07_12h37.41.327,DMS_et_12-36,2022.2.4,None,
58,PRED,12,0.9379456433479738,1,images/picture_2.png,images/picture_1.png,0,"[11.733433509789462, -11.733433509789466]",11.733433509789462,-11.733433509789464,images/picture_2.png,1,"[-11.733433509789462, 11.733433509789464]",-11.733433509789462,11.733433509789464,images/picture_3.png,2,"[-11.733433509789466, -11.733433509789462]",-11.733433509789464,-11.733433509789462,0,1,1,0.9379456433479738,1.9379456433479736,1.0620543566520262,3.0,1,1.6879456433479738,0,4.0,3.0,1,2,6,0,6,0,0,2,2,4,,,,,,,609.7815138750011,609.7815138750011,610.7819320409908,611.4818744160002,611.7152830830019,611.7152830830019,611.7152830830019,612.7816079579934,612.7816079579934,612.7816079579934,612.7816079579934,613.7816186659911,200003,301,2023-04-07_12h37.41.327,DMS_et_12-36,2022.2.4,None,
55,PRED,12,0.9379456433479738,1,images/picture_2.png,images/picture_1.png,0,"[-11.733433509789466, -11.733433509789462]",-11.733433509789464,-11.733433509789462,images/picture_2.png,1,"[-11.733433509789462, 11.733433509789464]",-11.733433509789462,11.733433509789464,images/picture_3.png,2,"[11.733433509789462, -11.733433509789466]",11.733433509789462,-11.733433509789464,0,1,1,0.9379456433479738,1.9379456433479736,1.0620543566520262,3.0,1,1.6879456433479738,0,4.0,3.0,1,2,6,0,6,0,0,3,3,1,,,,,,,613.7816186659911,613.7816186659911,614.7818040409911,615.4818388749991,615.7151357909897,615.7151357909897,615.7151357909897,616.7818289999996,616.7818289999996,616.7818289999996,616.7818289999996,617.7813144579995,200003,301,2023-04-07_12h37.41.327,DMS_et_12-36,2022.2.4,None,
61,PRED,12,0.9379456433479738,1,images/picture_2.png,images/picture_1.png,0,"[11.733433509789464, 11.733433509789462]",11.733433509789464,11.733433509789462,images/picture_2.png,1,"[-11.733433509789466, -11.733433509789462]",-11.733433509789464,-11.733433509789462,images/picture_3.png,2,"[-11.733433509789462, 11.733433509789464]",-11.733433509789462,11.733433509789464,0,1,1,0.9379456433479738,1.9379456433479736,1.0620543566520262,3.0,1,1.6879456433479738,0,4.0,3.0,1,2,6,0,6,0,0,4,4,7,,,,,,,617.7813144579995,617.7813144579995,618.7816067910026,619.4819029579958,619.7153647079977,619.7153647079977,619.7153647079977,620.7819618749927,620.7819618749927,620.7819618749927,620.7819618749927,621.7815537080023,200003,301,2023-04-07_12h37.41.327,DMS_et_12-36,2022.2.4,None,
60,PRED,12,0.9379456433479738,1,images/picture_2.png,images/picture_1.png,0,"[11.733433509789464, 11.733433509789462]",11.733433509789464,11.733433509789462,images/picture_2.png,1,"[-11.733433509789462, 11.733433509789464]",-11.733433509789462,11.733433509789464,images/picture_3.png,2,"[11.733433509789462, -11.733433509789466]",11.733433509789462,-11.733433509789464,0,1,1,0.9379456433479738,1.9379456433479736,1.0620543566520262,3.0,1,1.6879456433479738,0,4.0,3.0,1,2,6,0,6,0,0,5,5,6,,,,,,,621.7815537080023,621.7815537080023,622.7818114999973,623.481839,623.7151055409922,623.7151055409922,623.7151055409922,624.7816097079922,624.7816097079922,624.7816097079922,624.7816097079922,625.781022790994,200003,301,2023-04-07_12h37.41.327,DMS_et_12-36,2022.2.4,None,
62,PRED,12,0.9379456433479738,1,images/picture_2.png,images/picture_1.png,0,"[-11.733433509789466, -11.733433509789462]",-11.733433509789464,-11.733433509789462,images/picture_2.png,1,"[11.733433509789464, 11.733433509789462]",11.733433509789464,11.733433509789462,images/picture_3.png,2,"[11.733433509789462, -11.733433509789466]",11.733433509789462,-11.733433509789464,0,1,1,0.9379456433479738,1.9379456433479736,1.0620543566520262,3.0,1,1.6879456433479738,0,4.0,3.0,1,2,6,0,6,0,0,6,6,8,,,,,,,625.781022790994,625.781022790994,626.7817896659981,627.4818397909985,627.7151422079914,627.7151422079914,627.7151422079914,628.7816552500008,628.7816552500008,628.7816552500008,628.7816552500008,629.7811666659982,200003,301,2023-04-07_12h37.41.327,DMS_et_12-36,2022.2.4,None,
59,PRED,12,0.9379456433479738,1,images/picture_2.png,images/picture_1.png,0,"[-11.733433509789466, -11.733433509789462]",-11.733433509789464,-11.733433509789462,images/picture_2.png,1,"[11.733433509789464, 11.733433509789462]",11.733433509789464,11.733433509789462,images/picture_3.png,2,"[11.733433509789462, -11.733433509789466]",11.733433509789462,-11.733433509789464,0,1,1,0.9379456433479738,1.9379456433479736,1.0620543566520262,3.0,1,1.6879456433479738,0,4.0,3.0,1,2,6,0,6,0,0,7,7,5,,,,,,,629.7811666659982,629.7811666659982,630.781612915991,631.4820069580019,631.7153160000016,631.7153160000016,631.7153160000016,632.7819705409929,632.7819705409929,632.7819705409929,632.7819705409929,633.7817375000013,200003,301,2023-04-07_12h37.41.327,DMS_et_12-36,2022.2.4,None,
54,PRED,12,0.9379456433479738,1,images/picture_2.png,images/picture_1.png,0,"[11.733433509789462, -11.733433509789466]",11.733433509789462,-11.733433509789464,images/picture_2.png,1,"[-11.733433509789462, 11.733433509789464]",-11.733433509789462,11.733433509789464,images/picture_3.png,2,"[11.733433509789464, 11.733433509789462]",11.733433509789464,11.733433509789462,0,1,1,0.9379456433479738,1.9379456433479736,1.0620543566520262,3.0,1,1.6879456433479738,0,4.0,3.0,1,2,6,0,6,0,0,8,8,0,,,,,,,633.7817375000013,633.7817375000013,634.7819873749977,635.4818452079926,635.7152947499999,635.7152947499999,635.7152947499999,636.781853374996,636.781853374996,636.781853374996,636.781853374996,637.8601579999959,200003,301,2023-04-07_12h37.41.327,DMS_et_12-36,2022.2.4,None,
,,,,,,,,,,,,,,,,,,,,,,,,,,,,,,,,,,,6,0,6,0,,,,,,,,,637.8601579999959,649.8791107500001,,,,,,,,,,,,,200003,301,2023-04-07_12h37.41.327,DMS_et_12-36,2022.2.4,None,
66,UNPRED,12,0.9379456433479738,2,images/picture_3.png,images/picture_1.png,0,"[11.733433509789464, 11.733433509789462]",11.733433509789464,11.733433509789462,images/picture_2.png,1,"[11.733433509789462, -11.733433509789466]",11.733433509789462,-11.733433509789464,images/picture_3.png,2,"[-11.733433509789462, 11.733433509789464]",-11.733433509789462,11.733433509789464,0,1,1,0.9379456433479738,1.9379456433479736,1.0620543566520262,3.0,1,1.6879456433479738,0,4.0,3.0,1,2,7,0,7,0,0,0,0,3,,,,,,,649.8791107500001,649.8791107500001,650.8819441660016,651.5819419999898,651.8155999159935,651.8155999159935,651.8155999159935,652.8820206249948,652.8820206249948,652.8820206249948,652.8679424159927,653.9010296659981,200003,301,2023-04-07_12h37.41.327,DMS_et_12-36,2022.2.4,None,
71,UNPRED,12,0.9379456433479738,1,images/picture_2.png,images/picture_1.png,0,"[11.733433509789464, 11.733433509789462]",11.733433509789464,11.733433509789462,images/picture_2.png,1,"[-11.733433509789466, -11.733433509789462]",-11.733433509789464,-11.733433509789462,images/picture_3.png,2,"[11.733433509789462, -11.733433509789466]",11.733433509789462,-11.733433509789464,0,1,1,0.9379456433479738,1.9379456433479736,1.0620543566520262,3.0,1,1.6879456433479738,0,4.0,3.0,1,2,7,0,7,0,0,1,1,8,,,,,,,653.9010296659981,653.9010296659981,654.9153031659953,655.6009497499908,655.8152160829923,655.8152160829923,655.8152160829923,656.8820226659882,656.8820226659882,656.8820226659882,656.8820226659882,657.9005611659959,200003,301,2023-04-07_12h37.41.327,DMS_et_12-36,2022.2.4,None,
64,UNPRED,12,0.9379456433479738,2,images/picture_3.png,images/picture_1.png,0,"[11.733433509789462, -11.733433509789466]",11.733433509789462,-11.733433509789464,images/picture_2.png,1,"[-11.733433509789462, 11.733433509789464]",-11.733433509789462,11.733433509789464,images/picture_3.png,2,"[-11.733433509789466, -11.733433509789462]",-11.733433509789464,-11.733433509789462,0,1,1,0.9379456433479738,1.9379456433479736,1.0620543566520262,3.0,1,1.6879456433479738,0,4.0,3.0,1,2,7,0,7,0,0,2,2,1,,,,,,,657.9005611659959,657.9005611659959,658.9152761250007,659.60045566599,659.8148865409894,659.8148865409894,659.8148865409894,660.8819763749925,660.8819763749925,660.8819763749925,660.8819763749925,661.8817176659941,200003,301,2023-04-07_12h37.41.327,DMS_et_12-36,2022.2.4,None,
70,UNPRED,12,0.9379456433479738,0,images/picture_1.png,images/picture_1.png,0,"[11.733433509789464, 11.733433509789462]",11.733433509789464,11.733433509789462,images/picture_2.png,1,"[-11.733433509789462, 11.733433509789464]",-11.733433509789462,11.733433509789464,images/picture_3.png,2,"[-11.733433509789466, -11.733433509789462]",-11.733433509789464,-11.733433509789462,0,1,1,0.9379456433479738,1.9379456433479736,1.0620543566520262,3.0,1,1.6879456433479738,0,4.0,3.0,1,2,7,0,7,0,0,3,3,7,,,,,,,661.8817176659941,661.8817176659941,662.8820265409886,663.581922915997,663.8153477079904,663.8153477079904,663.8153477079904,664.8818559579959,664.8818559579959,664.8818559579959,664.8818559579959,665.8814825409936,200003,301,2023-04-07_12h37.41.327,DMS_et_12-36,2022.2.4,None,
69,UNPRED,12,0.9379456433479738,0,images/picture_1.png,images/picture_1.png,0,"[-11.733433509789462, 11.733433509789464]",-11.733433509789462,11.733433509789464,images/picture_2.png,1,"[11.733433509789462, -11.733433509789466]",11.733433509789462,-11.733433509789464,images/picture_3.png,2,"[11.733433509789464, 11.733433509789462]",11.733433509789464,11.733433509789462,0,1,1,0.9379456433479738,1.9379456433479736,1.0620543566520262,3.0,1,1.6879456433479738,0,4.0,3.0,1,2,7,0,7,0,0,4,4,6,,,,,,,665.8814825409936,665.8814825409936,666.8818538329942,667.5820250830002,667.8153142079973,667.8153142079973,667.8153142079973,668.8820557500003,668.8820557500003,668.8820557500003,668.8820557500003,669.8818090829882,200003,301,2023-04-07_12h37.41.327,DMS_et_12-36,2022.2.4,None,
63,UNPRED,12,0.9379456433479738,1,images/picture_2.png,images/picture_1.png,0,"[-11.733433509789462, 11.733433509789464]",-11.733433509789462,11.733433509789464,images/picture_2.png,1,"[-11.733433509789466, -11.733433509789462]",-11.733433509789464,-11.733433509789462,images/picture_3.png,2,"[11.733433509789462, -11.733433509789466]",11.733433509789462,-11.733433509789464,0,1,1,0.9379456433479738,1.9379456433479736,1.0620543566520262,3.0,1,1.6879456433479738,0,4.0,3.0,1,2,7,0,7,0,0,5,5,0,,,,,,,669.8818090829882,669.8818090829882,670.8820445409947,671.5820196249988,671.8152909579949,671.8152909579949,671.8152909579949,672.8818508330005,672.8818508330005,672.8818508330005,672.8818508330005,673.8815425829962,200003,301,2023-04-07_12h37.41.327,DMS_et_12-36,2022.2.4,None,
67,UNPRED,12,0.9379456433479738,1,images/picture_2.png,images/picture_1.png,0,"[11.733433509789464, 11.733433509789462]",11.733433509789464,11.733433509789462,images/picture_2.png,1,"[11.733433509789462, -11.733433509789466]",11.733433509789462,-11.733433509789464,images/picture_3.png,2,"[-11.733433509789462, 11.733433509789464]",-11.733433509789462,11.733433509789464,0,1,1,0.9379456433479738,1.9379456433479736,1.0620543566520262,3.0,1,1.6879456433479738,0,4.0,3.0,1,2,7,0,7,0,0,6,6,4,,,,,,,673.8815425829962,673.8815425829962,674.8822545829898,675.5820144159952,675.8156404159963,675.8156404159963,675.8156404159963,676.8820310409938,676.8820310409938,676.8820310409938,676.8820310409938,677.8819043330004,200003,301,2023-04-07_12h37.41.327,DMS_et_12-36,2022.2.4,None,
65,UNPRED,12,0.9379456433479738,0,images/picture_1.png,images/picture_1.png,0,"[-11.733433509789466, -11.733433509789462]",-11.733433509789464,-11.733433509789462,images/picture_2.png,1,"[11.733433509789462, -11.733433509789466]",11.733433509789462,-11.733433509789464,images/picture_3.png,2,"[-11.733433509789462, 11.733433509789464]",-11.733433509789462,11.733433509789464,0,1,1,0.9379456433479738,1.9379456433479736,1.0620543566520262,3.0,1,1.6879456433479738,0,4.0,3.0,1,2,7,0,7,0,0,7,7,2,,,,,,,677.8819043330004,677.8819043330004,678.8820120829914,679.5820634580014,679.8151989999897,679.8151989999897,679.8151989999897,680.8816747079982,680.8816747079982,680.8816747079982,680.8816747079982,681.8816731249972,200003,301,2023-04-07_12h37.41.327,DMS_et_12-36,2022.2.4,None,
68,UNPRED,12,0.9379456433479738,0,images/picture_1.png,images/picture_1.png,0,"[11.733433509789462, -11.733433509789466]",11.733433509789462,-11.733433509789464,images/picture_2.png,1,"[-11.733433509789466, -11.733433509789462]",-11.733433509789464,-11.733433509789462,images/picture_3.png,2,"[11.733433509789464, 11.733433509789462]",11.733433509789464,11.733433509789462,0,1,1,0.9379456433479738,1.9379456433479736,1.0620543566520262,3.0,1,1.6879456433479738,0,4.0,3.0,1,2,7,0,7,0,0,8,8,5,,,,,,,681.8816731249972,681.8816731249972,682.8820397910022,683.5820459999959,683.8152770829911,683.8152770829911,683.8152770829911,684.8818732910004,684.8818732910004,684.8818732910004,684.8818732910004,685.9740889160021,200003,301,2023-04-07_12h37.41.327,DMS_et_12-36,2022.2.4,None,
,,,,,,,,,,,,,,,,,,,,,,,,,,,,,,,,,,,7,0,7,0,,,,,,,,,685.9740889160021,698.0157749159989,,,,,,,,,,,,,200003,301,2023-04-07_12h37.41.327,DMS_et_12-36,2022.2.4,None,
72,PRED,12,0.9379456433479738,2,images/picture_3.png,images/picture_1.png,0,"[-11.733433509789466, -11.733433509789462]",-11.733433509789464,-11.733433509789462,images/picture_2.png,1,"[11.733433509789462, -11.733433509789466]",11.733433509789462,-11.733433509789464,images/picture_3.png,2,"[-11.733433509789462, 11.733433509789464]",-11.733433509789462,11.733433509789464,0,1,1,0.9379456433479738,1.9379456433479736,1.0620543566520262,3.0,1,1.6879456433479738,0,4.0,3.0,1,2,8,0,8,0,0,0,0,0,,,,,,,698.0157749159989,698.0157749159989,699.015476207991,699.7153396249923,699.9489355409896,699.9489355409896,699.9489355409896,701.0151373749977,701.0151373749977,701.0151373749977,701.0006462079909,702.0347170829918,200003,301,2023-04-07_12h37.41.327,DMS_et_12-36,2022.2.4,None,
77,PRED,12,0.9379456433479738,2,images/picture_3.png,images/picture_1.png,0,"[11.733433509789462, -11.733433509789466]",11.733433509789462,-11.733433509789464,images/picture_2.png,1,"[11.733433509789464, 11.733433509789462]",11.733433509789464,11.733433509789462,images/picture_3.png,2,"[-11.733433509789466, -11.733433509789462]",-11.733433509789464,-11.733433509789462,0,1,1,0.9379456433479738,1.9379456433479736,1.0620543566520262,3.0,1,1.6879456433479738,0,4.0,3.0,1,2,8,0,8,0,0,1,1,5,,,,,,,702.0347170829918,702.0347170829918,703.048790374989,703.734648749989,703.9487774579902,703.9487774579902,703.9487774579902,705.0154097909981,705.0154097909981,705.0154097909981,705.0154097909981,706.0346784579888,200003,301,2023-04-07_12h37.41.327,DMS_et_12-36,2022.2.4,None,
79,PRED,12,0.9379456433479738,2,images/picture_3.png,images/picture_1.png,0,"[-11.733433509789466, -11.733433509789462]",-11.733433509789464,-11.733433509789462,images/picture_2.png,1,"[11.733433509789464, 11.733433509789462]",11.733433509789464,11.733433509789462,images/picture_3.png,2,"[-11.733433509789462, 11.733433509789464]",-11.733433509789462,11.733433509789464,0,1,1,0.9379456433479738,1.9379456433479736,1.0620543566520262,3.0,1,1.6879456433479738,0,4.0,3.0,1,2,8,0,8,0,0,2,2,7,,,,,,,706.0346784579888,706.0346784579888,707.0488037909963,707.7347422500025,707.9485659159982,707.9485659159982,707.9485659159982,709.0153260410007,709.0153260410007,709.0153260410007,709.0153260410007,710.0347880409972,200003,301,2023-04-07_12h37.41.327,DMS_et_12-36,2022.2.4,None,
73,PRED,12,0.9379456433479738,2,images/picture_3.png,images/picture_1.png,0,"[-11.733433509789462, 11.733433509789464]",-11.733433509789462,11.733433509789464,images/picture_2.png,1,"[-11.733433509789466, -11.733433509789462]",-11.733433509789464,-11.733433509789462,images/picture_3.png,2,"[11.733433509789464, 11.733433509789462]",11.733433509789464,11.733433509789462,0,1,1,0.9379456433479738,1.9379456433479736,1.0620543566520262,3.0,1,1.6879456433479738,0,4.0,3.0,1,2,8,0,8,0,0,3,3,1,,,,,,,710.0347880409972,710.0347880409972,711.0484575409937,711.734847707994,711.9488049159991,711.9488049159991,711.9488049159991,713.0151067080005,713.0151067080005,713.0151067080005,713.0151067080005,714.0347144999978,200003,301,2023-04-07_12h37.41.327,DMS_et_12-36,2022.2.4,None,
75,PRED,12,0.9379456433479738,2,images/picture_3.png,images/picture_1.png,0,"[11.733433509789462, -11.733433509789466]",11.733433509789462,-11.733433509789464,images/picture_2.png,1,"[-11.733433509789462, 11.733433509789464]",-11.733433509789462,11.733433509789464,images/picture_3.png,2,"[11.733433509789464, 11.733433509789462]",11.733433509789464,11.733433509789462,0,1,1,0.9379456433479738,1.9379456433479736,1.0620543566520262,3.0,1,1.6879456433479738,0,4.0,3.0,1,2,8,0,8,0,0,4,4,3,,,,,,,714.0347144999978,714.0347144999978,715.0486433749902,715.7346054999944,715.9487758329924,715.9487758329924,715.9487758329924,717.0153279579972,717.0153279579972,717.0153279579972,717.0153279579972,718.0341702079895,200003,301,2023-04-07_12h37.41.327,DMS_et_12-36,2022.2.4,None,
80,PRED,12,0.9379456433479738,2,images/picture_3.png,images/picture_1.png,0,"[11.733433509789462, -11.733433509789466]",11.733433509789462,-11.733433509789464,images/picture_2.png,1,"[-11.733433509789466, -11.733433509789462]",-11.733433509789464,-11.733433509789462,images/picture_3.png,2,"[-11.733433509789462, 11.733433509789464]",-11.733433509789462,11.733433509789464,0,1,1,0.9379456433479738,1.9379456433479736,1.0620543566520262,3.0,1,1.6879456433479738,0,4.0,3.0,1,2,8,0,8,0,0,5,5,8,,,,,,,718.0341702079895,718.0341702079895,719.0488787079958,719.7349074160011,719.9488052079978,719.9488052079978,719.9488052079978,721.01516825,721.01516825,721.01516825,721.01516825,722.0341275829996,200003,301,2023-04-07_12h37.41.327,DMS_et_12-36,2022.2.4,None,
74,PRED,12,0.9379456433479738,2,images/picture_3.png,images/picture_1.png,0,"[-11.733433509789462, 11.733433509789464]",-11.733433509789462,11.733433509789464,images/picture_2.png,1,"[11.733433509789462, -11.733433509789466]",11.733433509789462,-11.733433509789464,images/picture_3.png,2,"[-11.733433509789466, -11.733433509789462]",-11.733433509789464,-11.733433509789462,0,1,1,0.9379456433479738,1.9379456433479736,1.0620543566520262,3.0,1,1.6879456433479738,0,4.0,3.0,1,2,8,0,8,0,0,6,6,2,,,,,,,722.0341275829996,722.0341275829996,723.048795249997,723.7347239579976,723.9489249999897,723.9489249999897,723.9489249999897,725.0155400410003,725.0155400410003,725.0155400410003,725.0155400410003,726.0340704580012,200003,301,2023-04-07_12h37.41.327,DMS_et_12-36,2022.2.4,None,
78,PRED,12,0.9379456433479738,2,images/picture_3.png,images/picture_1.png,0,"[-11.733433509789466, -11.733433509789462]",-11.733433509789464,-11.733433509789462,images/picture_2.png,1,"[-11.733433509789462, 11.733433509789464]",-11.733433509789462,11.733433509789464,images/picture_3.png,2,"[11.733433509789464, 11.733433509789462]",11.733433509789464,11.733433509789462,0,1,1,0.9379456433479738,1.9379456433479736,1.0620543566520262,3.0,1,1.6879456433479738,0,4.0,3.0,1,2,8,0,8,0,0,7,7,6,,,,,,,726.0340704580012,726.0340704580012,727.048825040998,727.7350896249991,727.9487958329992,727.9487958329992,727.9487958329992,729.0155856249912,729.0155856249912,729.0155856249912,729.0155856249912,730.0343682499952,200003,301,2023-04-07_12h37.41.327,DMS_et_12-36,2022.2.4,None,
76,PRED,12,0.9379456433479738,2,images/picture_3.png,images/picture_1.png,0,"[11.733433509789462, -11.733433509789466]",11.733433509789462,-11.733433509789464,images/picture_2.png,1,"[11.733433509789464, 11.733433509789462]",11.733433509789464,11.733433509789462,images/picture_3.png,2,"[-11.733433509789462, 11.733433509789464]",-11.733433509789462,11.733433509789464,0,1,1,0.9379456433479738,1.9379456433479736,1.0620543566520262,3.0,1,1.6879456433479738,0,4.0,3.0,1,2,8,0,8,0,0,8,8,4,,,,,,,730.0343682499952,730.0343682499952,731.0484574159927,731.7341188749997,731.9486792909884,731.9486792909884,731.9486792909884,733.0156395410013,733.0156395410013,733.0156395410013,733.0156395410013,734.1168154579937,200003,301,2023-04-07_12h37.41.327,DMS_et_12-36,2022.2.4,None,
,,,,,,,,,,,,,,,,,,,,,,,,,,,,,,,,,,,8,0,8,0,,,,,,,,,734.1168154579937,746.1487282909948,,,,,,,,,,,,,200003,301,2023-04-07_12h37.41.327,DMS_et_12-36,2022.2.4,None,
82,UNPRED,12,0.9379456433479738,2,images/picture_3.png,images/picture_1.png,0,"[11.733433509789464, 11.733433509789462]",11.733433509789464,11.733433509789462,images/picture_2.png,1,"[-11.733433509789462, 11.733433509789464]",-11.733433509789462,11.733433509789464,images/picture_3.png,2,"[11.733433509789462, -11.733433509789466]",11.733433509789462,-11.733433509789464,0,1,1,0.9379456433479738,1.9379456433479736,1.0620543566520262,3.0,1,1.6879456433479738,0,4.0,3.0,1,2,9,0,9,0,0,0,0,1,,,,,,,746.1487282909948,746.1487282909948,747.1488405830023,747.848812665994,748.0822994579939,748.0822994579939,748.0822994579939,749.1490083749959,749.1490083749959,749.1490083749959,749.134757790991,750.1485392079921,200003,301,2023-04-07_12h37.41.327,DMS_et_12-36,2022.2.4,None,
88,UNPRED,12,0.9379456433479738,0,images/picture_1.png,images/picture_1.png,0,"[11.733433509789464, 11.733433509789462]",11.733433509789464,11.733433509789462,images/picture_2.png,1,"[11.733433509789462, -11.733433509789466]",11.733433509789462,-11.733433509789464,images/picture_3.png,2,"[-11.733433509789466, -11.733433509789462]",-11.733433509789464,-11.733433509789462,0,1,1,0.9379456433479738,1.9379456433479736,1.0620543566520262,3.0,1,1.6879456433479738,0,4.0,3.0,1,2,9,0,9,0,0,1,1,7,,,,,,,750.1485392079921,750.1485392079921,751.1490041249926,751.8486470829957,752.0818334159994,752.0818334159994,752.0818334159994,753.1488164999901,753.1488164999901,753.1488164999901,753.1488164999901,754.1685474580008,200003,301,2023-04-07_12h37.41.327,DMS_et_12-36,2022.2.4,None,
86,UNPRED,12,0.9379456433479738,2,images/picture_3.png,images/picture_1.png,0,"[-11.733433509789462, 11.733433509789464]",-11.733433509789462,11.733433509789464,images/picture_2.png,1,"[11.733433509789462, -11.733433509789466]",11.733433509789462,-11.733433509789464,images/picture_3.png,2,"[11.733433509789464, 11.733433509789462]",11.733433509789464,11.733433509789462,0,1,1,0.9379456433479738,1.9379456433479736,1.0620543566520262,3.0,1,1.6879456433479738,0,4.0,3.0,1,2,9,0,9,0,0,2,2,5,,,,,,,754.1685474580008,754.1685474580008,755.1822767080012,755.8682708330016,756.0823052499909,756.0823052499909,756.0823052499909,757.1487922079978,757.1487922079978,757.1487922079978,757.1487922079978,758.1487954579934,200003,301,2023-04-07_12h37.41.327,DMS_et_12-36,2022.2.4,None,
87,UNPRED,12,0.9379456433479738,0,images/picture_1.png,images/picture_1.png,0,"[11.733433509789464, 11.733433509789462]",11.733433509789464,11.733433509789462,images/picture_2.png,1,"[-11.733433509789466, -11.733433509789462]",-11.733433509789464,-11.733433509789462,images/picture_3.png,2,"[11.733433509789462, -11.733433509789466]",11.733433509789462,-11.733433509789464,0,1,1,0.9379456433479738,1.9379456433479736,1.0620543566520262,3.0,1,1.6879456433479738,0,4.0,3.0,1,2,9,0,9,0,0,3,3,6,,,,,,,758.1487954579934,758.1487954579934,759.1487935409968,759.8488637499977,760.0823272499983,760.0823272499983,760.0823272499983,761.1488284579973,761.1488284579973,761.1488284579973,761.1488284579973,762.1485465409933,200003,301,2023-04-07_12h37.41.327,DMS_et_12-36,2022.2.4,None,
84,UNPRED,12,0.9379456433479738,1,images/picture_2.png,images/picture_1.png,0,"[11.733433509789464, 11.733433509789462]",11.733433509789464,11.733433509789462,images/picture_2.png,1,"[-11.733433509789466, -11.733433509789462]",-11.733433509789464,-11.733433509789462,images/picture_3.png,2,"[11.733433509789462, -11.733433509789466]",11.733433509789462,-11.733433509789464,0,1,1,0.9379456433479738,1.9379456433479736,1.0620543566520262,3.0,1,1.6879456433479738,0,4.0,3.0,1,2,9,0,9,0,0,4,4,3,,,,,,,762.1485465409933,762.1485465409933,763.148791915999,763.8486810829927,764.0823095410015,764.0823095410015,764.0823095410015,765.1488164999901,765.1488164999901,765.1488164999901,765.1488164999901,766.1681512499927,200003,301,2023-04-07_12h37.41.327,DMS_et_12-36,2022.2.4,None,
83,UNPRED,12,0.9379456433479738,2,images/picture_3.png,images/picture_1.png,0,"[-11.733433509789462, 11.733433509789464]",-11.733433509789462,11.733433509789464,images/picture_2.png,1,"[-11.733433509789466, -11.733433509789462]",-11.733433509789464,-11.733433509789462,images/picture_3.png,2,"[11.733433509789462, -11.733433509789466]",11.733433509789462,-11.733433509789464,0,1,1,0.9379456433479738,1.9379456433479736,1.0620543566520262,3.0,1,1.6879456433479738,0,4.0,3.0,1,2,9,0,9,0,0,5,5,2,,,,,,,766.1681512499927,766.1681512499927,767.182276624997,767.8680742500001,768.0822687499895,768.0822687499895,768.0822687499895,769.1490374580026,769.1490374580026,769.1490374580026,769.1490374580026,770.1484545830026,200003,301,2023-04-07_12h37.41.327,DMS_et_12-36,2022.2.4,None,
85,UNPRED,12,0.9379456433479738,0,images/picture_1.png,images/picture_1.png,0,"[-11.733433509789466, -11.733433509789462]",-11.733433509789464,-11.733433509789462,images/picture_2.png,1,"[11.733433509789464, 11.733433509789462]",11.733433509789464,11.733433509789462,images/picture_3.png,2,"[-11.733433509789462, 11.733433509789464]",-11.733433509789462,11.733433509789464,0,1,1,0.9379456433479738,1.9379456433479736,1.0620543566520262,3.0,1,1.6879456433479738,0,4.0,3.0,1,2,9,0,9,0,0,6,6,4,,,,,,,770.1484545830026,770.1484545830026,771.1490034579911,771.8489874579973,772.0820184999902,772.0820184999902,772.0820184999902,773.1488436249929,773.1488436249929,773.1488436249929,773.1488436249929,774.148400207996,200003,301,2023-04-07_12h37.41.327,DMS_et_12-36,2022.2.4,None,
81,UNPRED,12,0.9379456433479738,1,images/picture_2.png,images/picture_1.png,0,"[11.733433509789462, -11.733433509789466]",11.733433509789462,-11.733433509789464,images/picture_2.png,1,"[11.733433509789464, 11.733433509789462]",11.733433509789464,11.733433509789462,images/picture_3.png,2,"[-11.733433509789462, 11.733433509789464]",-11.733433509789462,11.733433509789464,0,1,1,0.9379456433479738,1.9379456433479736,1.0620543566520262,3.0,1,1.6879456433479738,0,4.0,3.0,1,2,9,0,9,0,0,7,7,0,,,,,,,774.148400207996,774.148400207996,775.1490266249893,775.8488416659966,776.0822750829975,776.0822750829975,776.0822750829975,777.1489983749925,777.1489983749925,777.1489983749925,777.1489983749925,778.1677617909882,200003,301,2023-04-07_12h37.41.327,DMS_et_12-36,2022.2.4,None,
89,UNPRED,12,0.9379456433479738,2,images/picture_3.png,images/picture_1.png,0,"[-11.733433509789462, 11.733433509789464]",-11.733433509789462,11.733433509789464,images/picture_2.png,1,"[11.733433509789462, -11.733433509789466]",11.733433509789462,-11.733433509789464,images/picture_3.png,2,"[-11.733433509789466, -11.733433509789462]",-11.733433509789464,-11.733433509789462,0,1,1,0.9379456433479738,1.9379456433479736,1.0620543566520262,3.0,1,1.6879456433479738,0,4.0,3.0,1,2,9,0,9,0,0,8,8,8,,,,,,,778.1677617909882,778.1677617909882,779.1820759580005,779.8681625000027,780.0822792079998,780.0822792079998,780.0822792079998,781.14902579099,781.14902579099,781.14902579099,781.14902579099,782.2531930409896,200003,301,2023-04-07_12h37.41.327,DMS_et_12-36,2022.2.4,None,
,,,,,,,,,,,,,,,,,,,,,,,,,,,,,,,,,,,9,0,9,0,,,,,,,,,782.2531930409896,794.2993026249897,,,,,,,,,,,,,200003,301,2023-04-07_12h37.41.327,DMS_et_12-36,2022.2.4,None,
96,PRED,12,0.9379456433479738,2,images/picture_3.png,images/picture_1.png,0,"[11.733433509789462, -11.733433509789466]",11.733433509789462,-11.733433509789464,images/picture_2.png,1,"[11.733433509789464, 11.733433509789462]",11.733433509789464,11.733433509789462,images/picture_3.png,2,"[-11.733433509789466, -11.733433509789462]",-11.733433509789464,-11.733433509789462,0,1,1,0.9379456433479738,1.9379456433479736,1.0620543566520262,3.0,1,1.6879456433479738,0,4.0,3.0,1,2,10,0,10,0,0,0,0,6,,,,,,,794.2993026249897,794.2993026249897,795.3008953329991,796.0017220409936,796.2355445409921,796.2355445409921,796.2355445409921,797.3016911659943,797.3016911659943,797.3016911659943,797.2822974159935,798.3011002499989,200003,301,2023-04-07_12h37.41.327,DMS_et_12-36,2022.2.4,None,
93,PRED,12,0.9379456433479738,2,images/picture_3.png,images/picture_1.png,0,"[-11.733433509789462, 11.733433509789464]",-11.733433509789462,11.733433509789464,images/picture_2.png,1,"[11.733433509789462, -11.733433509789466]",11.733433509789462,-11.733433509789464,images/picture_3.png,2,"[-11.733433509789466, -11.733433509789462]",-11.733433509789464,-11.733433509789462,0,1,1,0.9379456433479738,1.9379456433479736,1.0620543566520262,3.0,1,1.6879456433479738,0,4.0,3.0,1,2,10,0,10,0,0,1,1,3,,,,,,,798.3011002499989,798.3011002499989,799.3155760410009,800.0017184999888,800.2155279159924,800.2155279159924,800.2155279159924,801.282304332999,801.282304332999,801.282304332999,801.282304332999,802.3010043329996,200003,301,2023-04-07_12h37.41.327,DMS_et_12-36,2022.2.4,None,
97,PRED,12,0.9379456433479738,2,images/picture_3.png,images/picture_1.png,0,"[-11.733433509789462, 11.733433509789464]",-11.733433509789462,11.733433509789464,images/picture_2.png,1,"[11.733433509789464, 11.733433509789462]",11.733433509789464,11.733433509789462,images/picture_3.png,2,"[11.733433509789462, -11.733433509789466]",11.733433509789462,-11.733433509789464,0,1,1,0.9379456433479738,1.9379456433479736,1.0620543566520262,3.0,1,1.6879456433479738,0,4.0,3.0,1,2,10,0,10,0,0,2,2,7,,,,,,,802.3010043329996,802.3010043329996,803.3155656250019,804.0018310000014,804.2155582499981,804.2155582499981,804.2155582499981,805.2823656249966,805.2823656249966,805.2823656249966,805.2823656249966,806.3015678749944,200003,301,2023-04-07_12h37.41.327,DMS_et_12-36,2022.2.4,None,
90,PRED,12,0.9379456433479738,2,images/picture_3.png,images/picture_1.png,0,"[-11.733433509789466, -11.733433509789462]",-11.733433509789464,-11.733433509789462,images/picture_2.png,1,"[11.733433509789464, 11.733433509789462]",11.733433509789464,11.733433509789462,images/picture_3.png,2,"[-11.733433509789462, 11.733433509789464]",-11.733433509789462,11.733433509789464,0,1,1,0.9379456433479738,1.9379456433479736,1.0620543566520262,3.0,1,1.6879456433479738,0,4.0,3.0,1,2,10,0,10,0,0,3,3,0,,,,,,,806.3015678749944,806.3015678749944,807.3156015409913,808.0016641249968,808.2155828749965,808.2155828749965,808.2155828749965,809.2823130829929,809.2823130829929,809.2823130829929,809.2823130829929,810.3015807499905,200003,301,2023-04-07_12h37.41.327,DMS_et_12-36,2022.2.4,None,
98,PRED,12,0.9379456433479738,2,images/picture_3.png,images/picture_1.png,0,"[11.733433509789462, -11.733433509789466]",11.733433509789462,-11.733433509789464,images/picture_2.png,1,"[-11.733433509789462, 11.733433509789464]",-11.733433509789462,11.733433509789464,images/picture_3.png,2,"[11.733433509789464, 11.733433509789462]",11.733433509789464,11.733433509789462,0,1,1,0.9379456433479738,1.9379456433479736,1.0620543566520262,3.0,1,1.6879456433479738,0,4.0,3.0,1,2,10,0,10,0,0,4,4,8,,,,,,,810.3015807499905,810.3015807499905,811.3155578329897,812.0016034579894,812.215758374994,812.215758374994,812.215758374994,813.2820321659965,813.2820321659965,813.2820321659965,813.2820321659965,814.3017432909983,200003,301,2023-04-07_12h37.41.327,DMS_et_12-36,2022.2.4,None,
95,PRED,12,0.9379456433479738,2,images/picture_3.png,images/picture_1.png,0,"[11.733433509789462, -11.733433509789466]",11.733433509789462,-11.733433509789464,images/picture_2.png,1,"[-11.733433509789466, -11.733433509789462]",-11.733433509789464,-11.733433509789462,images/picture_3.png,2,"[-11.733433509789462, 11.733433509789464]",-11.733433509789462,11.733433509789464,0,1,1,0.9379456433479738,1.9379456433479736,1.0620543566520262,3.0,1,1.6879456433479738,0,4.0,3.0,1,2,10,0,10,0,0,5,5,5,,,,,,,814.3017432909983,814.3017432909983,815.3158039159898,816.00175687499,816.2156553749955,816.2156553749955,816.2156553749955,817.2822962499922,817.2822962499922,817.2822962499922,817.2822962499922,818.301031415991,200003,301,2023-04-07_12h37.41.327,DMS_et_12-36,2022.2.4,None,
91,PRED,12,0.9379456433479738,2,images/picture_3.png,images/picture_1.png,0,"[-11.733433509789466, -11.733433509789462]",-11.733433509789464,-11.733433509789462,images/picture_2.png,1,"[11.733433509789462, -11.733433509789466]",11.733433509789462,-11.733433509789464,images/picture_3.png,2,"[11.733433509789464, 11.733433509789462]",11.733433509789464,11.733433509789462,0,1,1,0.9379456433479738,1.9379456433479736,1.0620543566520262,3.0,1,1.6879456433479738,0,4.0,3.0,1,2,10,0,10,0,0,6,6,1,,,,,,,818.301031415991,818.301031415991,819.3156474159914,820.0018609580002,820.2156963750022,820.2156963750022,820.2156963750022,821.2823051659943,821.2823051659943,821.2823051659943,821.2823051659943,822.3011967079947,200003,301,2023-04-07_12h37.41.327,DMS_et_12-36,2022.2.4,None,
94,PRED,12,0.9379456433479738,2,images/picture_3.png,images/picture_1.png,0,"[11.733433509789464, 11.733433509789462]",11.733433509789464,11.733433509789462,images/picture_2.png,1,"[-11.733433509789462, 11.733433509789464]",-11.733433509789462,11.733433509789464,images/picture_3.png,2,"[-11.733433509789466, -11.733433509789462]",-11.733433509789464,-11.733433509789462,0,1,1,0.9379456433479738,1.9379456433479736,1.0620543566520262,3.0,1,1.6879456433479738,0,4.0,3.0,1,2,10,0,10,0,0,7,7,4,,,,,,,822.3011967079947,822.3011967079947,823.3153990409919,824.0010732079973,824.2154024159972,824.2154024159972,824.2154024159972,825.2824669159891,825.2824669159891,825.2824669159891,825.2824669159891,826.3017781249946,200003,301,2023-04-07_12h37.41.327,DMS_et_12-36,2022.2.4,None,
92,PRED,12,0.9379456433479738,2,images/picture_3.png,images/picture_1.png,0,"[-11.733433509789466, -11.733433509789462]",-11.733433509789464,-11.733433509789462,images/picture_2.png,1,"[11.733433509789462, -11.733433509789466]",11.733433509789462,-11.733433509789464,images/picture_3.png,2,"[11.733433509789464, 11.733433509789462]",11.733433509789464,11.733433509789462,0,1,1,0.9379456433479738,1.9379456433479736,1.0620543566520262,3.0,1,1.6879456433479738,0,4.0,3.0,1,2,10,0,10,0,0,8,8,2,,,,,,,826.3017781249946,826.3017781249946,827.3155846250011,828.0016438329912,828.2156318749912,828.2156318749912,828.2156318749912,829.2822960409976,829.2822960409976,829.2822960409976,829.2822960409976,830.4017160410003,200003,301,2023-04-07_12h37.41.327,DMS_et_12-36,2022.2.4,None,
,,,,,,,,,,,,,,,,,,,,,,,,,,,,,,,,,,,10,0,10,0,,,,,,,,,830.4017160410003,842.4423039999965,,,,,,,,,,,,,200003,301,2023-04-07_12h37.41.327,DMS_et_12-36,2022.2.4,None,
100,UNPRED,12,0.9379456433479738,0,images/picture_1.png,images/picture_1.png,0,"[11.733433509789462, -11.733433509789466]",11.733433509789462,-11.733433509789464,images/picture_2.png,1,"[-11.733433509789462, 11.733433509789464]",-11.733433509789462,11.733433509789464,images/picture_3.png,2,"[11.733433509789464, 11.733433509789462]",11.733433509789464,11.733433509789462,0,1,1,0.9379456433479738,1.9379456433479736,1.0620543566520262,3.0,1,1.6879456433479738,0,4.0,3.0,1,2,11,0,11,0,0,0,0,1,,,,,,,842.4423039999965,842.4423039999965,843.4490499999956,844.1345614579914,844.3822019159998,844.3822019159998,844.3822019159998,845.4491124999913,845.4491124999913,845.4491124999913,845.4350504159956,846.4487387909903,200003,301,2023-04-07_12h37.41.327,DMS_et_12-36,2022.2.4,None,
104,UNPRED,12,0.9379456433479738,0,images/picture_1.png,images/picture_1.png,0,"[-11.733433509789462, 11.733433509789464]",-11.733433509789462,11.733433509789464,images/picture_2.png,1,"[11.733433509789464, 11.733433509789462]",11.733433509789464,11.733433509789462,images/picture_3.png,2,"[11.733433509789462, -11.733433509789466]",11.733433509789462,-11.733433509789464,0,1,1,0.9379456433479738,1.9379456433479736,1.0620543566520262,3.0,1,1.6879456433479738,0,4.0,3.0,1,2,11,0,11,0,0,1,1,5,,,,,,,846.4487387909903,846.4487387909903,847.4490498749947,848.1490510000003,848.3823295829934,848.3823295829934,848.3823295829934,849.4491100409941,849.4491100409941,849.4491100409941,849.4491100409941,850.4486089159909,200003,301,2023-04-07_12h37.41.327,DMS_et_12-36,2022.2.4,None,
106,UNPRED,12,0.9379456433479738,0,images/picture_1.png,images/picture_1.png,0,"[11.733433509789462, -11.733433509789466]",11.733433509789462,-11.733433509789464,images/picture_2.png,1,"[11.733433509789464, 11.733433509789462]",11.733433509789464,11.733433509789462,images/picture_3.png,2,"[-11.733433509789462, 11.733433509789464]",-11.733433509789462,11.733433509789464,0,1,1,0.9379456433479738,1.9379456433479736,1.0620543566520262,3.0,1,1.6879456433479738,0,4.0,3.0,1,2,11,0,11,0,0,2,2,7,,,,,,,850.4486089159909,850.4486089159909,851.4491564999917,852.1490626250015,852.3825241659943,852.3825241659943,852.3825241659943,853.4491716249904,853.4491716249904,853.4491716249904,853.4491716249904,854.4487849579891,200003,301,2023-04-07_12h37.41.327,DMS_et_12-36,2022.2.4,None,
101,UNPRED,12,0.9379456433479738,0,images/picture_1.png,images/picture_1.png,0,"[11.733433509789462, -11.733433509789466]",11.733433509789462,-11.733433509789464,images/picture_2.png,1,"[-11.733433509789462, 11.733433509789464]",-11.733433509789462,11.733433509789464,images/picture_3.png,2,"[-11.733433509789466, -11.733433509789462]",-11.733433509789464,-11.733433509789462,0,1,1,0.9379456433479738,1.9379456433479736,1.0620543566520262,3.0,1,1.6879456433479738,0,4.0,3.0,1,2,11,0,11,0,0,3,3,2,,,,,,,854.4487849579891,854.4487849579891,855.4490381659998,856.1492569580005,856.3823487909976,856.3823487909976,856.3823487909976,857.449261916001,857.449261916001,857.449261916001,857.449261916001,858.4680383329978,200003,301,2023-04-07_12h37.41.327,DMS_et_12-36,2022.2.4,None,
107,UNPRED,12,0.9379456433479738,2,images/picture_3.png,images/picture_1.png,0,"[11.733433509789462, -11.733433509789466]",11.733433509789462,-11.733433509789464,images/picture_2.png,1,"[-11.733433509789462, 11.733433509789464]",-11.733433509789462,11.733433509789464,images/picture_3.png,2,"[-11.733433509789466, -11.733433509789462]",-11.733433509789464,-11.733433509789462,0,1,1,0.9379456433479738,1.9379456433479736,1.0620543566520262,3.0,1,1.6879456433479738,0,4.0,3.0,1,2,11,0,11,0,0,4,4,8,,,,,,,858.4680383329978,858.4680383329978,859.4825022909936,860.1681670830003,860.3821204999986,860.3821204999986,860.3821204999986,861.448773540993,861.448773540993,861.448773540993,861.448773540993,862.4673536249902,200003,301,2023-04-07_12h37.41.327,DMS_et_12-36,2022.2.4,None,
102,UNPRED,12,0.9379456433479738,2,images/picture_3.png,images/picture_1.png,0,"[-11.733433509789462, 11.733433509789464]",-11.733433509789462,11.733433509789464,images/picture_2.png,1,"[11.733433509789464, 11.733433509789462]",11.733433509789464,11.733433509789462,images/picture_3.png,2,"[-11.733433509789466, -11.733433509789462]",-11.733433509789464,-11.733433509789462,0,1,1,0.9379456433479738,1.9379456433479736,1.0620543566520262,3.0,1,1.6879456433479738,0,4.0,3.0,1,2,11,0,11,0,0,5,5,3,,,,,,,862.4673536249902,862.4673536249902,863.482073207997,864.1681675,864.3818784159957,864.3818784159957,864.3818784159957,865.4487101659906,865.4487101659906,865.4487101659906,865.4487101659906,866.4678100829915,200003,301,2023-04-07_12h37.41.327,DMS_et_12-36,2022.2.4,None,
99,UNPRED,12,0.9379456433479738,2,images/picture_3.png,images/picture_1.png,0,"[11.733433509789464, 11.733433509789462]",11.733433509789464,11.733433509789462,images/picture_2.png,1,"[-11.733433509789462, 11.733433509789464]",-11.733433509789462,11.733433509789464,images/picture_3.png,2,"[11.733433509789462, -11.733433509789466]",11.733433509789462,-11.733433509789464,0,1,1,0.9379456433479738,1.9379456433479736,1.0620543566520262,3.0,1,1.6879456433479738,0,4.0,3.0,1,2,11,0,11,0,0,6,6,0,,,,,,,866.4678100829915,866.4678100829915,867.482250999994,868.168468207994,868.3820999159943,868.3820999159943,868.3820999159943,869.4488321659883,869.4488321659883,869.4488321659883,869.4488321659883,870.4483635409997,200003,301,2023-04-07_12h37.41.327,DMS_et_12-36,2022.2.4,None,
105,UNPRED,12,0.9379456433479738,0,images/picture_1.png,images/picture_1.png,0,"[11.733433509789464, 11.733433509789462]",11.733433509789464,11.733433509789462,images/picture_2.png,1,"[-11.733433509789462, 11.733433509789464]",-11.733433509789462,11.733433509789464,images/picture_3.png,2,"[11.733433509789462, -11.733433509789466]",11.733433509789462,-11.733433509789464,0,1,1,0.9379456433479738,1.9379456433479736,1.0620543566520262,3.0,1,1.6879456433479738,0,4.0,3.0,1,2,11,0,11,0,0,7,7,6,,,,,,,870.4483635409997,870.4483635409997,871.4490426659904,872.1487952909956,872.3822579159896,872.3822579159896,872.3822579159896,873.4490038749937,873.4490038749937,873.4490038749937,873.4490038749937,874.4477463749936,200003,301,2023-04-07_12h37.41.327,DMS_et_12-36,2022.2.4,None,
103,UNPRED,12,0.9379456433479738,1,images/picture_2.png,images/picture_1.png,0,"[-11.733433509789466, -11.733433509789462]",-11.733433509789464,-11.733433509789462,images/picture_2.png,1,"[11.733433509789462, -11.733433509789466]",11.733433509789462,-11.733433509789464,images/picture_3.png,2,"[11.733433509789464, 11.733433509789462]",11.733433509789464,11.733433509789462,0,1,1,0.9379456433479738,1.9379456433479736,1.0620543566520262,3.0,1,1.6879456433479738,0,4.0,3.0,1,2,11,0,11,0,0,8,8,4,,,,,,,874.4477463749936,874.4477463749936,875.4485089579975,876.1488811250019,876.3820917499979,876.3820917499979,876.3820917499979,877.4490306660009,877.4490306660009,877.4490306660009,877.4490306660009,878.6194595409906,200003,301,2023-04-07_12h37.41.327,DMS_et_12-36,2022.2.4,None,
,,,,,,,,,,,,,,,,,,,,,,,,,,,,,,,,,,,11,0,11,0,,,,,,,,,878.6194595409906,890.7583040409954,,,,,,,,,,,,,200003,301,2023-04-07_12h37.41.327,DMS_et_12-36,2022.2.4,None,
,,,,,,,,,,,,,,,,,,,,,,,,,,,,,,,,,,,,,,,,,,,,,,,890.7583040409954,903.2818036249955,,,,,,,,,,,,,,,,,,,
