trial_count,blockType,blockNum,delay_time,stimImage_i,stimImage,responseImage1,responseImage1_i,responseImage1_pos,responseImage1_X,responseImage1_Y,responseImage2,responseImage2_i,responseImage2_pos,responseImage2_X,responseImage2_Y,responseImage3,responseImage3_i,responseImage3_pos,responseImage3_X,responseImage3_Y,cue_onset,cue_dur,delay_onset,delay_dur,resp_onset,resp_dur,rest_onset,rest_dur,circle_dur,circle_onset,total_dur,cross_onset,cross_dur,delay_resp_period,blocks.thisRepN,blocks.thisTrialN,blocks.thisN,blocks.thisIndex,trials.thisRepN,trials.thisTrialN,trials.thisN,trials.thisIndex,key_resp.started,text.started,key_resp.keys,key_resp.rt,text_2.started,text_2.stopped,sample.started,Delay.started,sample.stopped,Delay.stopped,Response_1.started,Response_2.started,Response_3.started,Response_1.stopped,Response_2.stopped,Response_3.stopped,polygon.started,polygon.stopped,participant,session,date,expName,psychopyVersion,frameRate,
,,,,,,,,,,,,,,,,,,,,,,,,,,,,,,,,,,,,,,,,,,,73.55045729099947,73.55045729099947,t,76.48201808299928,,,,,,,,,,,,,,,200003,303,2023-04-07_13h05.45.000,DMS_et_12-36,2022.2.4,None,
8,PRED,12,0.9917366567814844,0,images/picture_1.png,images/picture_1.png,0,"[11.733433509789464, 11.733433509789462]",11.733433509789464,11.733433509789462,images/picture_2.png,1,"[-11.733433509789466, -11.733433509789462]",-11.733433509789464,-11.733433509789462,images/picture_3.png,2,"[-11.733433509789462, 11.733433509789464]",-11.733433509789462,11.733433509789464,0,1,1,0.9917366567814844,1.9917366567814845,1.0082633432185155,3.0,1,1.7417366567814845,0,4.0,3.0,1,2,0,0,0,0,0,0,0,8,,,,,150.5495221250021,162.57902870800172,162.57902870800172,162.57902870800172,163.58945012500044,164.32280204100243,164.55613379100396,164.55613379100396,164.55613379100396,165.5747428330069,165.5747428330069,165.5747428330069,165.5747428330069,166.58889791599358,200003,303,2023-04-07_13h05.45.000,DMS_et_12-36,2022.2.4,None,
7,PRED,12,0.9917366567814844,0,images/picture_1.png,images/picture_1.png,0,"[-11.733433509789462, 11.733433509789464]",-11.733433509789462,11.733433509789464,images/picture_2.png,1,"[11.733433509789464, 11.733433509789462]",11.733433509789464,11.733433509789462,images/picture_3.png,2,"[-11.733433509789466, -11.733433509789462]",-11.733433509789464,-11.733433509789462,0,1,1,0.9917366567814844,1.9917366567814845,1.0082633432185155,3.0,1,1.7417366567814845,0,4.0,3.0,1,2,0,0,0,0,0,1,1,7,,,,,,,166.58889791599358,166.58889791599358,167.58950899999763,168.34221504100424,168.5755987080047,168.5755987080047,168.5755987080047,169.58957954100333,169.58957954100333,169.58957954100333,169.58957954100333,170.58892229100456,200003,303,2023-04-07_13h05.45.000,DMS_et_12-36,2022.2.4,None,
1,PRED,12,0.9917366567814844,0,images/picture_1.png,images/picture_1.png,0,"[11.733433509789462, -11.733433509789466]",11.733433509789462,-11.733433509789464,images/picture_2.png,1,"[-11.733433509789462, 11.733433509789464]",-11.733433509789462,11.733433509789464,images/picture_3.png,2,"[11.733433509789464, 11.733433509789462]",11.733433509789464,11.733433509789462,0,1,1,0.9917366567814844,1.9917366567814845,1.0082633432185155,3.0,1,1.7417366567814845,0,4.0,3.0,1,2,0,0,0,0,0,2,2,1,,,,,,,170.58892229100456,170.58892229100456,171.58950874999573,172.34207904100185,172.57544862499344,172.57544862499344,172.57544862499344,173.58945237500302,173.58945237500302,173.58945237500302,173.58945237500302,174.58896837499924,200003,303,2023-04-07_13h05.45.000,DMS_et_12-36,2022.2.4,None,
2,PRED,12,0.9917366567814844,0,images/picture_1.png,images/picture_1.png,0,"[11.733433509789462, -11.733433509789466]",11.733433509789462,-11.733433509789464,images/picture_2.png,1,"[11.733433509789464, 11.733433509789462]",11.733433509789464,11.733433509789462,images/picture_3.png,2,"[-11.733433509789462, 11.733433509789464]",-11.733433509789462,11.733433509789464,0,1,1,0.9917366567814844,1.9917366567814845,1.0082633432185155,3.0,1,1.7417366567814845,0,4.0,3.0,1,2,0,0,0,0,0,3,3,2,,,,,,,174.58896837499924,174.58896837499924,175.5892399160075,176.34129970800132,176.57477474999905,176.57477474999905,176.57477474999905,177.5894015829981,177.5894015829981,177.5894015829981,177.5894015829981,178.5889430410025,200003,303,2023-04-07_13h05.45.000,DMS_et_12-36,2022.2.4,None,
3,PRED,12,0.9917366567814844,0,images/picture_1.png,images/picture_1.png,0,"[11.733433509789462, -11.733433509789466]",11.733433509789462,-11.733433509789464,images/picture_2.png,1,"[-11.733433509789466, -11.733433509789462]",-11.733433509789464,-11.733433509789462,images/picture_3.png,2,"[-11.733433509789462, 11.733433509789464]",-11.733433509789462,11.733433509789464,0,1,1,0.9917366567814844,1.9917366567814845,1.0082633432185155,3.0,1,1.7417366567814845,0,4.0,3.0,1,2,0,0,0,0,0,4,4,3,,,,,,,178.5889430410025,178.5889430410025,179.58946970800753,180.34261970799707,180.57534266599396,180.57534266599396,180.57534266599396,181.5894777909998,181.5894777909998,181.5894777909998,181.5894777909998,182.58901900000637,200003,303,2023-04-07_13h05.45.000,DMS_et_12-36,2022.2.4,None,
4,PRED,12,0.9917366567814844,0,images/picture_1.png,images/picture_1.png,0,"[-11.733433509789462, 11.733433509789464]",-11.733433509789462,11.733433509789464,images/picture_2.png,1,"[11.733433509789462, -11.733433509789466]",11.733433509789462,-11.733433509789464,images/picture_3.png,2,"[-11.733433509789466, -11.733433509789462]",-11.733433509789464,-11.733433509789462,0,1,1,0.9917366567814844,1.9917366567814845,1.0082633432185155,3.0,1,1.7417366567814845,0,4.0,3.0,1,2,0,0,0,0,0,5,5,4,,,,,,,182.58901900000637,182.58901900000637,183.5894040830026,184.34190341600333,184.5754210830055,184.5754210830055,184.5754210830055,185.5894471250067,185.5894471250067,185.5894471250067,185.5894471250067,186.58918537500722,200003,303,2023-04-07_13h05.45.000,DMS_et_12-36,2022.2.4,None,
5,PRED,12,0.9917366567814844,0,images/picture_1.png,images/picture_1.png,0,"[-11.733433509789462, 11.733433509789464]",-11.733433509789462,11.733433509789464,images/picture_2.png,1,"[-11.733433509789466, -11.733433509789462]",-11.733433509789464,-11.733433509789462,images/picture_3.png,2,"[11.733433509789462, -11.733433509789466]",11.733433509789462,-11.733433509789464,0,1,1,0.9917366567814844,1.9917366567814845,1.0082633432185155,3.0,1,1.7417366567814845,0,4.0,3.0,1,2,0,0,0,0,0,6,6,5,,,,,,,186.58918537500722,186.58918537500722,187.58944525000697,188.34219487500377,188.57516866599326,188.57516866599326,188.57516866599326,189.58944241600693,189.58944241600693,189.58944241600693,189.58944241600693,190.58888120799384,200003,303,2023-04-07_13h05.45.000,DMS_et_12-36,2022.2.4,None,
6,PRED,12,0.9917366567814844,0,images/picture_1.png,images/picture_1.png,0,"[-11.733433509789466, -11.733433509789462]",-11.733433509789464,-11.733433509789462,images/picture_2.png,1,"[-11.733433509789462, 11.733433509789464]",-11.733433509789462,11.733433509789464,images/picture_3.png,2,"[11.733433509789464, 11.733433509789462]",11.733433509789464,11.733433509789462,0,1,1,0.9917366567814844,1.9917366567814845,1.0082633432185155,3.0,1,1.7417366567814845,0,4.0,3.0,1,2,0,0,0,0,0,7,7,6,,,,,,,190.58888120799384,190.58888120799384,191.58947083300154,192.34149679100665,192.57459308300167,192.57459308300167,192.57459308300167,193.58962691600027,193.58962691600027,193.58962691600027,193.58962691600027,194.58893012499902,200003,303,2023-04-07_13h05.45.000,DMS_et_12-36,2022.2.4,None,
0,PRED,12,0.9917366567814844,0,images/picture_1.png,images/picture_1.png,0,"[11.733433509789464, 11.733433509789462]",11.733433509789464,11.733433509789462,images/picture_2.png,1,"[-11.733433509789466, -11.733433509789462]",-11.733433509789464,-11.733433509789462,images/picture_3.png,2,"[11.733433509789462, -11.733433509789466]",11.733433509789462,-11.733433509789464,0,1,1,0.9917366567814844,1.9917366567814845,1.0082633432185155,3.0,1,1.7417366567814845,0,4.0,3.0,1,2,0,0,0,0,0,8,8,0,,,,,,,194.58893012499902,194.58893012499902,195.58948970799975,196.34117241599597,196.57453162499587,196.57453162499587,196.57453162499587,197.5895171250013,197.5895171250013,197.5895171250013,197.5895171250013,198.60791716599488,200003,303,2023-04-07_13h05.45.000,DMS_et_12-36,2022.2.4,None,
,,,,,,,,,,,,,,,,,,,,,,,,,,,,,,,,,,,0,0,0,0,,,,,,,,,198.60791716599488,210.66554354100663,,,,,,,,,,,,,200003,303,2023-04-07_13h05.45.000,DMS_et_12-36,2022.2.4,None,
14,UNPRED,12,0.9917366567814844,2,images/picture_3.png,images/picture_1.png,0,"[-11.733433509789466, -11.733433509789462]",-11.733433509789464,-11.733433509789462,images/picture_2.png,1,"[-11.733433509789462, 11.733433509789464]",-11.733433509789462,11.733433509789464,images/picture_3.png,2,"[11.733433509789464, 11.733433509789462]",11.733433509789464,11.733433509789462,0,1,1,0.9917366567814844,1.9917366567814845,1.0082633432185155,3.0,1,1.7417366567814845,0,4.0,3.0,1,2,1,0,1,0,0,0,0,5,,,,,,,210.66554354100663,210.66554354100663,211.6760975829966,212.42294187500374,212.64232808300585,212.64232808300585,212.64232808300585,213.65622620799695,213.65622620799695,213.65622620799695,213.64270579100412,214.65580516599584,200003,303,2023-04-07_13h05.45.000,DMS_et_12-36,2022.2.4,None,
16,UNPRED,12,0.9917366567814844,0,images/picture_1.png,images/picture_1.png,0,"[11.733433509789464, 11.733433509789462]",11.733433509789464,11.733433509789462,images/picture_2.png,1,"[-11.733433509789466, -11.733433509789462]",-11.733433509789464,-11.733433509789462,images/picture_3.png,2,"[11.733433509789462, -11.733433509789466]",11.733433509789462,-11.733433509789464,0,1,1,0.9917366567814844,1.9917366567814845,1.0082633432185155,3.0,1,1.7417366567814845,0,4.0,3.0,1,2,1,0,1,0,0,1,1,7,,,,,,,214.65580516599584,214.65580516599584,215.6562019999983,216.40899275000265,216.6416694159998,216.6416694159998,216.6416694159998,217.6573020000069,217.6573020000069,217.6573020000069,217.6573020000069,218.656509249995,200003,303,2023-04-07_13h05.45.000,DMS_et_12-36,2022.2.4,None,
17,UNPRED,12,0.9917366567814844,1,images/picture_2.png,images/picture_1.png,0,"[11.733433509789462, -11.733433509789466]",11.733433509789462,-11.733433509789464,images/picture_2.png,1,"[-11.733433509789462, 11.733433509789464]",-11.733433509789462,11.733433509789464,images/picture_3.png,2,"[-11.733433509789466, -11.733433509789462]",-11.733433509789464,-11.733433509789462,0,1,1,0.9917366567814844,1.9917366567814845,1.0082633432185155,3.0,1,1.7417366567814845,0,4.0,3.0,1,2,1,0,1,0,0,2,2,8,,,,,,,218.656509249995,218.656509249995,219.65623325000342,220.40902504099358,220.64231933299743,220.64231933299743,220.64231933299743,221.65622204099782,221.65622204099782,221.65622204099782,221.65622204099782,222.67448808299378,200003,303,2023-04-07_13h05.45.000,DMS_et_12-36,2022.2.4,None,
15,UNPRED,12,0.9917366567814844,2,images/picture_3.png,images/picture_1.png,0,"[11.733433509789464, 11.733433509789462]",11.733433509789464,11.733433509789462,images/picture_2.png,1,"[-11.733433509789466, -11.733433509789462]",-11.733433509789464,-11.733433509789462,images/picture_3.png,2,"[-11.733433509789462, 11.733433509789464]",-11.733433509789462,11.733433509789464,0,1,1,0.9917366567814844,1.9917366567814845,1.0082633432185155,3.0,1,1.7417366567814845,0,4.0,3.0,1,2,1,0,1,0,0,3,3,6,,,,,,,222.67448808299378,222.67448808299378,223.69025545800105,224.42289175000042,224.64197174999572,224.64197174999572,224.64197174999572,225.65601470800175,225.65601470800175,225.65601470800175,225.65601470800175,226.65680024999892,200003,303,2023-04-07_13h05.45.000,DMS_et_12-36,2022.2.4,None,
9,UNPRED,12,0.9917366567814844,0,images/picture_1.png,images/picture_1.png,0,"[-11.733433509789462, 11.733433509789464]",-11.733433509789462,11.733433509789464,images/picture_2.png,1,"[-11.733433509789466, -11.733433509789462]",-11.733433509789464,-11.733433509789462,images/picture_3.png,2,"[11.733433509789464, 11.733433509789462]",11.733433509789464,11.733433509789462,0,1,1,0.9917366567814844,1.9917366567814845,1.0082633432185155,3.0,1,1.7417366567814845,0,4.0,3.0,1,2,1,0,1,0,0,4,4,0,,,,,,,226.65680024999892,226.65680024999892,227.65611062500102,228.4081863330066,228.64218658300524,228.64218658300524,228.64218658300524,229.65618104100577,229.65618104100577,229.65618104100577,229.65618104100577,230.6556210830022,200003,303,2023-04-07_13h05.45.000,DMS_et_12-36,2022.2.4,None,
13,UNPRED,12,0.9917366567814844,0,images/picture_1.png,images/picture_1.png,0,"[11.733433509789464, 11.733433509789462]",11.733433509789464,11.733433509789462,images/picture_2.png,1,"[11.733433509789462, -11.733433509789466]",11.733433509789462,-11.733433509789464,images/picture_3.png,2,"[-11.733433509789466, -11.733433509789462]",-11.733433509789464,-11.733433509789462,0,1,1,0.9917366567814844,1.9917366567814845,1.0082633432185155,3.0,1,1.7417366567814845,0,4.0,3.0,1,2,1,0,1,0,0,5,5,4,,,,,,,230.6556210830022,230.6556210830022,231.6561478329968,232.4087508329976,232.64164175000042,232.64164175000042,232.64164175000042,233.65642675000709,233.65642675000709,233.65642675000709,233.65642675000709,234.65686662499502,200003,303,2023-04-07_13h05.45.000,DMS_et_12-36,2022.2.4,None,
11,UNPRED,12,0.9917366567814844,0,images/picture_1.png,images/picture_1.png,0,"[-11.733433509789466, -11.733433509789462]",-11.733433509789464,-11.733433509789462,images/picture_2.png,1,"[-11.733433509789462, 11.733433509789464]",-11.733433509789462,11.733433509789464,images/picture_3.png,2,"[11.733433509789462, -11.733433509789466]",11.733433509789462,-11.733433509789464,0,1,1,0.9917366567814844,1.9917366567814845,1.0082633432185155,3.0,1,1.7417366567814845,0,4.0,3.0,1,2,1,0,1,0,0,6,6,2,,,,,,,234.65686662499502,234.65686662499502,235.65646545799973,236.40870504100167,236.64260870800354,236.64260870800354,236.64260870800354,237.65591825000593,237.65591825000593,237.65591825000593,237.65591825000593,238.6563495409937,200003,303,2023-04-07_13h05.45.000,DMS_et_12-36,2022.2.4,None,
12,UNPRED,12,0.9917366567814844,0,images/picture_1.png,images/picture_1.png,0,"[-11.733433509789466, -11.733433509789462]",-11.733433509789464,-11.733433509789462,images/picture_2.png,1,"[11.733433509789464, 11.733433509789462]",11.733433509789464,11.733433509789462,images/picture_3.png,2,"[11.733433509789462, -11.733433509789466]",11.733433509789462,-11.733433509789464,0,1,1,0.9917366567814844,1.9917366567814845,1.0082633432185155,3.0,1,1.7417366567814845,0,4.0,3.0,1,2,1,0,1,0,0,7,7,3,,,,,,,238.6563495409937,238.6563495409937,239.65620920799847,240.40894475000096,240.64235958299832,240.64235958299832,240.64235958299832,241.65623370799585,241.65623370799585,241.65623370799585,241.65623370799585,242.65588720800588,200003,303,2023-04-07_13h05.45.000,DMS_et_12-36,2022.2.4,None,
10,UNPRED,12,0.9917366567814844,1,images/picture_2.png,images/picture_1.png,0,"[-11.733433509789466, -11.733433509789462]",-11.733433509789464,-11.733433509789462,images/picture_2.png,1,"[11.733433509789464, 11.733433509789462]",11.733433509789464,11.733433509789462,images/picture_3.png,2,"[11.733433509789462, -11.733433509789466]",11.733433509789462,-11.733433509789464,0,1,1,0.9917366567814844,1.9917366567814845,1.0082633432185155,3.0,1,1.7417366567814845,0,4.0,3.0,1,2,1,0,1,0,0,8,8,1,,,,,,,242.65588720800588,242.65588720800588,243.65621195800486,244.40882570800022,244.64198916600435,244.64198916600435,244.64198916600435,245.65620554100315,245.65620554100315,245.65620554100315,245.65620554100315,246.6881880830042,200003,303,2023-04-07_13h05.45.000,DMS_et_12-36,2022.2.4,None,
,,,,,,,,,,,,,,,,,,,,,,,,,,,,,,,,,,,1,0,1,0,,,,,,,,,246.6881880830042,258.7079104160075,,,,,,,,,,,,,200003,303,2023-04-07_13h05.45.000,DMS_et_12-36,2022.2.4,None,
22,PRED,12,0.9917366567814844,1,images/picture_2.png,images/picture_1.png,0,"[-11.733433509789462, 11.733433509789464]",-11.733433509789462,11.733433509789464,images/picture_2.png,1,"[11.733433509789462, -11.733433509789466]",11.733433509789462,-11.733433509789464,images/picture_3.png,2,"[11.733433509789464, 11.733433509789462]",11.733433509789464,11.733433509789462,0,1,1,0.9917366567814844,1.9917366567814845,1.0082633432185155,3.0,1,1.7417366567814845,0,4.0,3.0,1,2,2,0,2,0,0,0,0,4,,,,,,,258.7079104160075,258.7079104160075,259.72292241599644,260.4563817909948,260.6894885000074,260.6894885000074,260.6894885000074,261.709042040995,261.709042040995,261.709042040995,261.6896473749948,262.6889957079984,200003,303,2023-04-07_13h05.45.000,DMS_et_12-36,2022.2.4,None,
19,PRED,12,0.9917366567814844,1,images/picture_2.png,images/picture_1.png,0,"[-11.733433509789466, -11.733433509789462]",-11.733433509789464,-11.733433509789462,images/picture_2.png,1,"[-11.733433509789462, 11.733433509789464]",-11.733433509789462,11.733433509789464,images/picture_3.png,2,"[11.733433509789464, 11.733433509789462]",11.733433509789464,11.733433509789462,0,1,1,0.9917366567814844,1.9917366567814845,1.0082633432185155,3.0,1,1.7417366567814845,0,4.0,3.0,1,2,2,0,2,0,0,1,1,1,,,,,,,262.6889957079984,262.6889957079984,263.68948345800163,264.4426699159958,264.6753041250049,264.6753041250049,264.6753041250049,265.6897330409993,265.6897330409993,265.6897330409993,265.6897330409993,266.68908687500516,200003,303,2023-04-07_13h05.45.000,DMS_et_12-36,2022.2.4,None,
24,PRED,12,0.9917366567814844,1,images/picture_2.png,images/picture_1.png,0,"[-11.733433509789466, -11.733433509789462]",-11.733433509789464,-11.733433509789462,images/picture_2.png,1,"[11.733433509789462, -11.733433509789466]",11.733433509789462,-11.733433509789464,images/picture_3.png,2,"[11.733433509789464, 11.733433509789462]",11.733433509789464,11.733433509789462,0,1,1,0.9917366567814844,1.9917366567814845,1.0082633432185155,3.0,1,1.7417366567814845,0,4.0,3.0,1,2,2,0,2,0,0,2,2,6,,,,,,,266.68908687500516,266.68908687500516,267.6896881660068,268.44136491599784,268.67492479100474,268.67492479100474,268.67492479100474,269.68964812500053,269.68964812500053,269.68964812500053,269.68964812500053,270.68893941599526,200003,303,2023-04-07_13h05.45.000,DMS_et_12-36,2022.2.4,None,
18,PRED,12,0.9917366567814844,1,images/picture_2.png,images/picture_1.png,0,"[11.733433509789462, -11.733433509789466]",11.733433509789462,-11.733433509789464,images/picture_2.png,1,"[11.733433509789464, 11.733433509789462]",11.733433509789464,11.733433509789462,images/picture_3.png,2,"[-11.733433509789466, -11.733433509789462]",-11.733433509789464,-11.733433509789462,0,1,1,0.9917366567814844,1.9917366567814845,1.0082633432185155,3.0,1,1.7417366567814845,0,4.0,3.0,1,2,2,0,2,0,0,3,3,0,,,,,,,270.68893941599526,270.68893941599526,271.6894661249971,272.44220587500604,272.67558579100296,272.67558579100296,272.67558579100296,273.6896255000029,273.6896255000029,273.6896255000029,273.6896255000029,274.68908545799786,200003,303,2023-04-07_13h05.45.000,DMS_et_12-36,2022.2.4,None,
25,PRED,12,0.9917366567814844,1,images/picture_2.png,images/picture_1.png,0,"[11.733433509789464, 11.733433509789462]",11.733433509789464,11.733433509789462,images/picture_2.png,1,"[-11.733433509789462, 11.733433509789464]",-11.733433509789462,11.733433509789464,images/picture_3.png,2,"[-11.733433509789466, -11.733433509789462]",-11.733433509789464,-11.733433509789462,0,1,1,0.9917366567814844,1.9917366567814845,1.0082633432185155,3.0,1,1.7417366567814845,0,4.0,3.0,1,2,2,0,2,0,0,4,4,7,,,,,,,274.68908545799786,274.68908545799786,275.68966158300464,276.4422849160037,276.67580387499765,276.67580387499765,276.67580387499765,277.68943233300524,277.68943233300524,277.68943233300524,277.68943233300524,278.689242708002,200003,303,2023-04-07_13h05.45.000,DMS_et_12-36,2022.2.4,None,
23,PRED,12,0.9917366567814844,1,images/picture_2.png,images/picture_1.png,0,"[11.733433509789462, -11.733433509789466]",11.733433509789462,-11.733433509789464,images/picture_2.png,1,"[-11.733433509789462, 11.733433509789464]",-11.733433509789462,11.733433509789464,images/picture_3.png,2,"[-11.733433509789466, -11.733433509789462]",-11.733433509789464,-11.733433509789462,0,1,1,0.9917366567814844,1.9917366567814845,1.0082633432185155,3.0,1,1.7417366567814845,0,4.0,3.0,1,2,2,0,2,0,0,5,5,5,,,,,,,278.689242708002,278.689242708002,279.68965704100265,280.44201883299684,280.67605383299815,280.67605383299815,280.67605383299815,281.6897672500054,281.6897672500054,281.6897672500054,281.6897672500054,282.6890327500005,200003,303,2023-04-07_13h05.45.000,DMS_et_12-36,2022.2.4,None,
21,PRED,12,0.9917366567814844,1,images/picture_2.png,images/picture_1.png,0,"[-11.733433509789462, 11.733433509789464]",-11.733433509789462,11.733433509789464,images/picture_2.png,1,"[-11.733433509789466, -11.733433509789462]",-11.733433509789464,-11.733433509789462,images/picture_3.png,2,"[11.733433509789464, 11.733433509789462]",11.733433509789464,11.733433509789462,0,1,1,0.9917366567814844,1.9917366567814845,1.0082633432185155,3.0,1,1.7417366567814845,0,4.0,3.0,1,2,2,0,2,0,0,6,6,3,,,,,,,282.6890327500005,282.6890327500005,283.68961316600326,284.4422921660007,284.67533425000147,284.67533425000147,284.67533425000147,285.68963399999484,285.68963399999484,285.68963399999484,285.68963399999484,286.689197832995,200003,303,2023-04-07_13h05.45.000,DMS_et_12-36,2022.2.4,None,
26,PRED,12,0.9917366567814844,1,images/picture_2.png,images/picture_1.png,0,"[11.733433509789464, 11.733433509789462]",11.733433509789464,11.733433509789462,images/picture_2.png,1,"[11.733433509789462, -11.733433509789466]",11.733433509789462,-11.733433509789464,images/picture_3.png,2,"[-11.733433509789462, 11.733433509789464]",-11.733433509789462,11.733433509789464,0,1,1,0.9917366567814844,1.9917366567814845,1.0082633432185155,3.0,1,1.7417366567814845,0,4.0,3.0,1,2,2,0,2,0,0,7,7,8,,,,,,,286.689197832995,286.689197832995,287.68967704099487,288.4420900410041,288.6746326660068,288.6746326660068,288.6746326660068,289.68929858300544,289.68929858300544,289.68929858300544,289.68929858300544,290.6893327500002,200003,303,2023-04-07_13h05.45.000,DMS_et_12-36,2022.2.4,None,
20,PRED,12,0.9917366567814844,1,images/picture_2.png,images/picture_1.png,0,"[11.733433509789462, -11.733433509789466]",11.733433509789462,-11.733433509789464,images/picture_2.png,1,"[-11.733433509789466, -11.733433509789462]",-11.733433509789464,-11.733433509789462,images/picture_3.png,2,"[11.733433509789464, 11.733433509789462]",11.733433509789464,11.733433509789462,0,1,1,0.9917366567814844,1.9917366567814845,1.0082633432185155,3.0,1,1.7417366567814845,0,4.0,3.0,1,2,2,0,2,0,0,8,8,2,,,,,,,290.6893327500002,290.6893327500002,291.6894516659959,292.4420234999998,292.67562716599787,292.67562716599787,292.67562716599787,293.68970141600585,293.68970141600585,293.68970141600585,293.68970141600585,294.7313028750068,200003,303,2023-04-07_13h05.45.000,DMS_et_12-36,2022.2.4,None,
,,,,,,,,,,,,,,,,,,,,,,,,,,,,,,,,,,,2,0,2,0,,,,,,,,,294.7313028750068,306.76988508300565,,,,,,,,,,,,,200003,303,2023-04-07_13h05.45.000,DMS_et_12-36,2022.2.4,None,
29,UNPRED,12,0.9917366567814844,2,images/picture_3.png,images/picture_1.png,0,"[11.733433509789462, -11.733433509789466]",11.733433509789462,-11.733433509789464,images/picture_2.png,1,"[-11.733433509789466, -11.733433509789462]",-11.733433509789464,-11.733433509789462,images/picture_3.png,2,"[11.733433509789464, 11.733433509789462]",11.733433509789464,11.733433509789462,0,1,1,0.9917366567814844,1.9917366567814845,1.0082633432185155,3.0,1,1.7417366567814845,0,4.0,3.0,1,2,3,0,3,0,0,0,0,2,,,,,,,306.76988508300565,306.76988508300565,307.7758111659932,308.52300270799606,308.74167699999816,308.74167699999816,308.74167699999816,309.7560486660077,309.7560486660077,309.7560486660077,309.7560486660077,310.7747628329962,200003,303,2023-04-07_13h05.45.000,DMS_et_12-36,2022.2.4,None,
34,UNPRED,12,0.9917366567814844,2,images/picture_3.png,images/picture_1.png,0,"[11.733433509789462, -11.733433509789466]",11.733433509789462,-11.733433509789464,images/picture_2.png,1,"[-11.733433509789462, 11.733433509789464]",-11.733433509789462,11.733433509789464,images/picture_3.png,2,"[11.733433509789464, 11.733433509789462]",11.733433509789464,11.733433509789462,0,1,1,0.9917366567814844,1.9917366567814845,1.0082633432185155,3.0,1,1.7417366567814845,0,4.0,3.0,1,2,3,0,3,0,0,1,1,7,,,,,,,310.7747628329962,310.7747628329962,311.78967195800215,312.52296629099874,312.7422327499953,312.7422327499953,312.7422327499953,313.7561369580071,313.7561369580071,313.7561369580071,313.7561369580071,314.77488766600436,200003,303,2023-04-07_13h05.45.000,DMS_et_12-36,2022.2.4,None,
30,UNPRED,12,0.9917366567814844,2,images/picture_3.png,images/picture_1.png,0,"[11.733433509789464, 11.733433509789462]",11.733433509789464,11.733433509789462,images/picture_2.png,1,"[11.733433509789462, -11.733433509789466]",11.733433509789462,-11.733433509789464,images/picture_3.png,2,"[-11.733433509789466, -11.733433509789462]",-11.733433509789464,-11.733433509789462,0,1,1,0.9917366567814844,1.9917366567814845,1.0082633432185155,3.0,1,1.7417366567814845,0,4.0,3.0,1,2,3,0,3,0,0,2,2,3,,,,,,,314.77488766600436,314.77488766600436,315.7896633329947,316.523050415999,316.7420580830076,316.7420580830076,316.7420580830076,317.7563761659985,317.7563761659985,317.7563761659985,317.7563761659985,318.77496404100384,200003,303,2023-04-07_13h05.45.000,DMS_et_12-36,2022.2.4,None,
35,UNPRED,12,0.9917366567814844,2,images/picture_3.png,images/picture_1.png,0,"[-11.733433509789466, -11.733433509789462]",-11.733433509789464,-11.733433509789462,images/picture_2.png,1,"[-11.733433509789462, 11.733433509789464]",-11.733433509789462,11.733433509789464,images/picture_3.png,2,"[11.733433509789464, 11.733433509789462]",11.733433509789464,11.733433509789462,0,1,1,0.9917366567814844,1.9917366567814845,1.0082633432185155,3.0,1,1.7417366567814845,0,4.0,3.0,1,2,3,0,3,0,0,3,3,8,,,,,,,318.77496404100384,318.77496404100384,319.7893131250021,320.52275141600694,320.7416402910021,320.7416402910021,320.7416402910021,321.7563668329967,321.7563668329967,321.7563668329967,321.7563668329967,322.77503666600387,200003,303,2023-04-07_13h05.45.000,DMS_et_12-36,2022.2.4,None,
31,UNPRED,12,0.9917366567814844,2,images/picture_3.png,images/picture_1.png,0,"[11.733433509789462, -11.733433509789466]",11.733433509789462,-11.733433509789464,images/picture_2.png,1,"[11.733433509789464, 11.733433509789462]",11.733433509789464,11.733433509789462,images/picture_3.png,2,"[-11.733433509789466, -11.733433509789462]",-11.733433509789464,-11.733433509789462,0,1,1,0.9917366567814844,1.9917366567814845,1.0082633432185155,3.0,1,1.7417366567814845,0,4.0,3.0,1,2,3,0,3,0,0,4,4,4,,,,,,,322.77503666600387,322.77503666600387,323.7896845829964,324.5229645000072,324.7418697910034,324.7418697910034,324.7418697910034,325.75619066599756,325.75619066599756,325.75619066599756,325.75619066599756,326.7749064160016,200003,303,2023-04-07_13h05.45.000,DMS_et_12-36,2022.2.4,None,
32,UNPRED,12,0.9917366567814844,2,images/picture_3.png,images/picture_1.png,0,"[11.733433509789462, -11.733433509789466]",11.733433509789462,-11.733433509789464,images/picture_2.png,1,"[11.733433509789464, 11.733433509789462]",11.733433509789464,11.733433509789462,images/picture_3.png,2,"[-11.733433509789462, 11.733433509789464]",-11.733433509789462,11.733433509789464,0,1,1,0.9917366567814844,1.9917366567814845,1.0082633432185155,3.0,1,1.7417366567814845,0,4.0,3.0,1,2,3,0,3,0,0,5,5,5,,,,,,,326.7749064160016,326.7749064160016,327.78964854100195,328.5229787499993,328.74228633299936,328.74228633299936,328.74228633299936,329.7559810410021,329.7559810410021,329.7559810410021,329.7559810410021,330.7560272499977,200003,303,2023-04-07_13h05.45.000,DMS_et_12-36,2022.2.4,None,
28,UNPRED,12,0.9917366567814844,1,images/picture_2.png,images/picture_1.png,0,"[-11.733433509789466, -11.733433509789462]",-11.733433509789464,-11.733433509789462,images/picture_2.png,1,"[11.733433509789464, 11.733433509789462]",11.733433509789464,11.733433509789462,images/picture_3.png,2,"[-11.733433509789462, 11.733433509789464]",-11.733433509789462,11.733433509789464,0,1,1,0.9917366567814844,1.9917366567814845,1.0082633432185155,3.0,1,1.7417366567814845,0,4.0,3.0,1,2,3,0,3,0,0,6,6,1,,,,,,,330.7560272499977,330.7560272499977,331.7563598330016,332.5089831249934,332.7424405829952,332.7424405829952,332.7424405829952,333.7562087080005,333.7562087080005,333.7562087080005,333.7562087080005,334.7557682500046,200003,303,2023-04-07_13h05.45.000,DMS_et_12-36,2022.2.4,None,
33,UNPRED,12,0.9917366567814844,0,images/picture_1.png,images/picture_1.png,0,"[-11.733433509789466, -11.733433509789462]",-11.733433509789464,-11.733433509789462,images/picture_2.png,1,"[-11.733433509789462, 11.733433509789464]",-11.733433509789462,11.733433509789464,images/picture_3.png,2,"[11.733433509789464, 11.733433509789462]",11.733433509789464,11.733433509789462,0,1,1,0.9917366567814844,1.9917366567814845,1.0082633432185155,3.0,1,1.7417366567814845,0,4.0,3.0,1,2,3,0,3,0,0,7,7,6,,,,,,,334.7557682500046,334.7557682500046,335.7564873749943,336.50905649999913,336.7421025000076,336.7421025000076,336.7421025000076,337.7564109160012,337.7564109160012,337.7564109160012,337.7564109160012,338.7556045829988,200003,303,2023-04-07_13h05.45.000,DMS_et_12-36,2022.2.4,None,
27,UNPRED,12,0.9917366567814844,1,images/picture_2.png,images/picture_1.png,0,"[11.733433509789464, 11.733433509789462]",11.733433509789464,11.733433509789462,images/picture_2.png,1,"[-11.733433509789462, 11.733433509789464]",-11.733433509789462,11.733433509789464,images/picture_3.png,2,"[11.733433509789462, -11.733433509789466]",11.733433509789462,-11.733433509789464,0,1,1,0.9917366567814844,1.9917366567814845,1.0082633432185155,3.0,1,1.7417366567814845,0,4.0,3.0,1,2,3,0,3,0,0,8,8,0,,,,,,,338.7556045829988,338.7556045829988,339.75631833300577,340.508322958005,340.7417118750018,340.7417118750018,340.7417118750018,341.75639691599645,341.75639691599645,341.75639691599645,341.75639691599645,342.8085817079991,200003,303,2023-04-07_13h05.45.000,DMS_et_12-36,2022.2.4,None,
,,,,,,,,,,,,,,,,,,,,,,,,,,,,,,,,,,,3,0,3,0,,,,,,,,,342.8085817079991,354.8445593750075,,,,,,,,,,,,,200003,303,2023-04-07_13h05.45.000,DMS_et_12-36,2022.2.4,None,
38,PRED,12,0.9917366567814844,0,images/picture_1.png,images/picture_1.png,0,"[-11.733433509789466, -11.733433509789462]",-11.733433509789464,-11.733433509789462,images/picture_2.png,1,"[11.733433509789462, -11.733433509789466]",11.733433509789462,-11.733433509789464,images/picture_3.png,2,"[-11.733433509789462, 11.733433509789464]",-11.733433509789462,11.733433509789464,0,1,1,0.9917366567814844,1.9917366567814845,1.0082633432185155,3.0,1,1.7417366567814845,0,4.0,3.0,1,2,4,0,4,0,0,0,0,2,,,,,,,354.8445593750075,354.8445593750075,355.8564760409936,356.5896581249981,356.842382332994,356.842382332994,356.842382332994,357.8564269159979,357.8564269159979,357.8564269159979,357.84231329099566,358.8558522910025,200003,303,2023-04-07_13h05.45.000,DMS_et_12-36,2022.2.4,None,
40,PRED,12,0.9917366567814844,0,images/picture_1.png,images/picture_1.png,0,"[11.733433509789464, 11.733433509789462]",11.733433509789464,11.733433509789462,images/picture_2.png,1,"[-11.733433509789462, 11.733433509789464]",-11.733433509789462,11.733433509789464,images/picture_3.png,2,"[11.733433509789462, -11.733433509789466]",11.733433509789462,-11.733433509789464,0,1,1,0.9917366567814844,1.9917366567814845,1.0082633432185155,3.0,1,1.7417366567814845,0,4.0,3.0,1,2,4,0,4,0,0,1,1,4,,,,,,,358.8558522910025,358.8558522910025,359.8564818750019,360.6083138749964,360.84144854100305,360.84144854100305,360.84144854100305,361.85620504099643,361.85620504099643,361.85620504099643,361.85620504099643,362.85603516599804,200003,303,2023-04-07_13h05.45.000,DMS_et_12-36,2022.2.4,None,
36,PRED,12,0.9917366567814844,0,images/picture_1.png,images/picture_1.png,0,"[11.733433509789462, -11.733433509789466]",11.733433509789462,-11.733433509789464,images/picture_2.png,1,"[-11.733433509789462, 11.733433509789464]",-11.733433509789462,11.733433509789464,images/picture_3.png,2,"[-11.733433509789466, -11.733433509789462]",-11.733433509789464,-11.733433509789462,0,1,1,0.9917366567814844,1.9917366567814845,1.0082633432185155,3.0,1,1.7417366567814845,0,4.0,3.0,1,2,4,0,4,0,0,2,2,0,,,,,,,362.85603516599804,362.85603516599804,363.85639554100635,364.60858366600587,364.8422329159948,364.8422329159948,364.8422329159948,365.85639850000734,365.85639850000734,365.85639850000734,365.85639850000734,366.8557701249956,200003,303,2023-04-07_13h05.45.000,DMS_et_12-36,2022.2.4,None,
44,PRED,12,0.9917366567814844,0,images/picture_1.png,images/picture_1.png,0,"[11.733433509789464, 11.733433509789462]",11.733433509789464,11.733433509789462,images/picture_2.png,1,"[-11.733433509789466, -11.733433509789462]",-11.733433509789464,-11.733433509789462,images/picture_3.png,2,"[-11.733433509789462, 11.733433509789464]",-11.733433509789462,11.733433509789464,0,1,1,0.9917366567814844,1.9917366567814845,1.0082633432185155,3.0,1,1.7417366567814845,0,4.0,3.0,1,2,4,0,4,0,0,3,3,8,,,,,,,366.8557701249956,366.8557701249956,367.85643945800257,368.6090062909934,368.84245500000543,368.84245500000543,368.84245500000543,369.8561975000048,369.8561975000048,369.8561975000048,369.8561975000048,370.8560173750011,200003,303,2023-04-07_13h05.45.000,DMS_et_12-36,2022.2.4,None,
39,PRED,12,0.9917366567814844,0,images/picture_1.png,images/picture_1.png,0,"[11.733433509789464, 11.733433509789462]",11.733433509789464,11.733433509789462,images/picture_2.png,1,"[-11.733433509789466, -11.733433509789462]",-11.733433509789464,-11.733433509789462,images/picture_3.png,2,"[-11.733433509789462, 11.733433509789464]",-11.733433509789462,11.733433509789464,0,1,1,0.9917366567814844,1.9917366567814845,1.0082633432185155,3.0,1,1.7417366567814845,0,4.0,3.0,1,2,4,0,4,0,0,4,4,3,,,,,,,370.8560173750011,370.8560173750011,371.8561082910019,372.60871529100405,372.8425920000009,372.8425920000009,372.8425920000009,373.85643420800625,373.85643420800625,373.85643420800625,373.85643420800625,374.85625145799713,200003,303,2023-04-07_13h05.45.000,DMS_et_12-36,2022.2.4,None,
37,PRED,12,0.9917366567814844,0,images/picture_1.png,images/picture_1.png,0,"[11.733433509789464, 11.733433509789462]",11.733433509789464,11.733433509789462,images/picture_2.png,1,"[-11.733433509789462, 11.733433509789464]",-11.733433509789462,11.733433509789464,images/picture_3.png,2,"[-11.733433509789466, -11.733433509789462]",-11.733433509789464,-11.733433509789462,0,1,1,0.9917366567814844,1.9917366567814845,1.0082633432185155,3.0,1,1.7417366567814845,0,4.0,3.0,1,2,4,0,4,0,0,5,5,1,,,,,,,374.85625145799713,374.85625145799713,375.85637645800307,376.6085082079953,376.8423275410023,376.8423275410023,376.8423275410023,377.8564144580014,377.8564144580014,377.8564144580014,377.8564144580014,378.85576249999576,200003,303,2023-04-07_13h05.45.000,DMS_et_12-36,2022.2.4,None,
42,PRED,12,0.9917366567814844,0,images/picture_1.png,images/picture_1.png,0,"[-11.733433509789462, 11.733433509789464]",-11.733433509789462,11.733433509789464,images/picture_2.png,1,"[11.733433509789462, -11.733433509789466]",11.733433509789462,-11.733433509789464,images/picture_3.png,2,"[-11.733433509789466, -11.733433509789462]",-11.733433509789464,-11.733433509789462,0,1,1,0.9917366567814844,1.9917366567814845,1.0082633432185155,3.0,1,1.7417366567814845,0,4.0,3.0,1,2,4,0,4,0,0,6,6,6,,,,,,,378.85576249999576,378.85576249999576,379.85610550000274,380.6088293329958,380.84236329099804,380.84236329099804,380.84236329099804,381.85620833300345,381.85620833300345,381.85620833300345,381.85620833300345,382.85584029099846,200003,303,2023-04-07_13h05.45.000,DMS_et_12-36,2022.2.4,None,
43,PRED,12,0.9917366567814844,0,images/picture_1.png,images/picture_1.png,0,"[11.733433509789464, 11.733433509789462]",11.733433509789464,11.733433509789462,images/picture_2.png,1,"[-11.733433509789466, -11.733433509789462]",-11.733433509789464,-11.733433509789462,images/picture_3.png,2,"[-11.733433509789462, 11.733433509789464]",-11.733433509789462,11.733433509789464,0,1,1,0.9917366567814844,1.9917366567814845,1.0082633432185155,3.0,1,1.7417366567814845,0,4.0,3.0,1,2,4,0,4,0,0,7,7,7,,,,,,,382.85584029099846,382.85584029099846,383.8563844159944,384.60884225000336,384.8421066659939,384.8421066659939,384.8421066659939,385.8563882080052,385.8563882080052,385.8563882080052,385.8563882080052,386.8559787080012,200003,303,2023-04-07_13h05.45.000,DMS_et_12-36,2022.2.4,None,
41,PRED,12,0.9917366567814844,0,images/picture_1.png,images/picture_1.png,0,"[-11.733433509789466, -11.733433509789462]",-11.733433509789464,-11.733433509789462,images/picture_2.png,1,"[11.733433509789462, -11.733433509789466]",11.733433509789462,-11.733433509789464,images/picture_3.png,2,"[11.733433509789464, 11.733433509789462]",11.733433509789464,11.733433509789462,0,1,1,0.9917366567814844,1.9917366567814845,1.0082633432185155,3.0,1,1.7417366567814845,0,4.0,3.0,1,2,4,0,4,0,0,8,8,5,,,,,,,386.8559787080012,386.8559787080012,387.85636841600353,388.60934595800063,388.8422277500067,388.8422277500067,388.8422277500067,389.85638554100296,389.85638554100296,389.85638554100296,389.85638554100296,390.96881604100054,200003,303,2023-04-07_13h05.45.000,DMS_et_12-36,2022.2.4,None,
,,,,,,,,,,,,,,,,,,,,,,,,,,,,,,,,,,,4,0,4,0,,,,,,,,,390.96881604100054,402.9945511249971,,,,,,,,,,,,,200003,303,2023-04-07_13h05.45.000,DMS_et_12-36,2022.2.4,None,
47,UNPRED,12,0.9917366567814844,1,images/picture_2.png,images/picture_1.png,0,"[11.733433509789464, 11.733433509789462]",11.733433509789464,11.733433509789462,images/picture_2.png,1,"[11.733433509789462, -11.733433509789466]",11.733433509789462,-11.733433509789464,images/picture_3.png,2,"[-11.733433509789466, -11.733433509789462]",-11.733433509789464,-11.733433509789462,0,1,1,0.9917366567814844,1.9917366567814845,1.0082633432185155,3.0,1,1.7417366567814845,0,4.0,3.0,1,2,5,0,5,0,0,0,0,2,,,,,,,402.9945511249971,402.9945511249971,404.0092870829976,404.7424552500015,404.98974041600013,404.98974041600013,404.98974041600013,406.0089233750041,406.0089233750041,406.0089233750041,405.98988370799634,406.98924574999546,200003,303,2023-04-07_13h05.45.000,DMS_et_12-36,2022.2.4,None,
50,UNPRED,12,0.9917366567814844,1,images/picture_2.png,images/picture_1.png,0,"[11.733433509789462, -11.733433509789466]",11.733433509789462,-11.733433509789464,images/picture_2.png,1,"[-11.733433509789462, 11.733433509789464]",-11.733433509789462,11.733433509789464,images/picture_3.png,2,"[11.733433509789464, 11.733433509789462]",11.733433509789464,11.733433509789462,0,1,1,0.9917366567814844,1.9917366567814845,1.0082633432185155,3.0,1,1.7417366567814845,0,4.0,3.0,1,2,5,0,5,0,0,1,1,5,,,,,,,406.98924574999546,406.98924574999546,407.98967308299325,408.7422616249969,408.97567554100533,408.97567554100533,408.97567554100533,409.9899250000017,409.9899250000017,409.9899250000017,409.9899250000017,410.9895615830028,200003,303,2023-04-07_13h05.45.000,DMS_et_12-36,2022.2.4,None,
51,UNPRED,12,0.9917366567814844,1,images/picture_2.png,images/picture_1.png,0,"[-11.733433509789462, 11.733433509789464]",-11.733433509789462,11.733433509789464,images/picture_2.png,1,"[11.733433509789464, 11.733433509789462]",11.733433509789464,11.733433509789462,images/picture_3.png,2,"[-11.733433509789466, -11.733433509789462]",-11.733433509789464,-11.733433509789462,0,1,1,0.9917366567814844,1.9917366567814845,1.0082633432185155,3.0,1,1.7417366567814845,0,4.0,3.0,1,2,5,0,5,0,0,2,2,6,,,,,,,410.9895615830028,410.9895615830028,411.98932787499507,412.7416771660064,412.9747779159952,412.9747779159952,412.9747779159952,413.98968820800656,413.98968820800656,413.98968820800656,413.98968820800656,414.9893072499981,200003,303,2023-04-07_13h05.45.000,DMS_et_12-36,2022.2.4,None,
45,UNPRED,12,0.9917366567814844,1,images/picture_2.png,images/picture_1.png,0,"[11.733433509789462, -11.733433509789466]",11.733433509789462,-11.733433509789464,images/picture_2.png,1,"[-11.733433509789462, 11.733433509789464]",-11.733433509789462,11.733433509789464,images/picture_3.png,2,"[-11.733433509789466, -11.733433509789462]",-11.733433509789464,-11.733433509789462,0,1,1,0.9917366567814844,1.9917366567814845,1.0082633432185155,3.0,1,1.7417366567814845,0,4.0,3.0,1,2,5,0,5,0,0,3,3,0,,,,,,,414.9893072499981,414.9893072499981,415.9896982079954,416.74225112500426,416.9758945000067,416.9758945000067,416.9758945000067,417.98968924999645,417.98968924999645,417.98968924999645,417.98968924999645,418.9895092499937,200003,303,2023-04-07_13h05.45.000,DMS_et_12-36,2022.2.4,None,
53,UNPRED,12,0.9917366567814844,1,images/picture_2.png,images/picture_1.png,0,"[-11.733433509789462, 11.733433509789464]",-11.733433509789462,11.733433509789464,images/picture_2.png,1,"[-11.733433509789466, -11.733433509789462]",-11.733433509789464,-11.733433509789462,images/picture_3.png,2,"[11.733433509789464, 11.733433509789462]",11.733433509789464,11.733433509789462,0,1,1,0.9917366567814844,1.9917366567814845,1.0082633432185155,3.0,1,1.7417366567814845,0,4.0,3.0,1,2,5,0,5,0,0,4,4,8,,,,,,,418.9895092499937,418.9895092499937,419.9896810000064,420.74161650000315,420.97574858300504,420.97574858300504,420.97574858300504,421.98972774999856,421.98972774999856,421.98972774999856,421.98972774999856,422.98947529100406,200003,303,2023-04-07_13h05.45.000,DMS_et_12-36,2022.2.4,None,
48,UNPRED,12,0.9917366567814844,0,images/picture_1.png,images/picture_1.png,0,"[-11.733433509789462, 11.733433509789464]",-11.733433509789462,11.733433509789464,images/picture_2.png,1,"[11.733433509789462, -11.733433509789466]",11.733433509789462,-11.733433509789464,images/picture_3.png,2,"[-11.733433509789466, -11.733433509789462]",-11.733433509789464,-11.733433509789462,0,1,1,0.9917366567814844,1.9917366567814845,1.0082633432185155,3.0,1,1.7417366567814845,0,4.0,3.0,1,2,5,0,5,0,0,5,5,3,,,,,,,422.98947529100406,422.98947529100406,423.98971908299427,424.7423736250057,424.9752767080063,424.9752767080063,424.9752767080063,425.9897362500051,425.9897362500051,425.9897362500051,425.9897362500051,426.98885449999943,200003,303,2023-04-07_13h05.45.000,DMS_et_12-36,2022.2.4,None,
49,UNPRED,12,0.9917366567814844,1,images/picture_2.png,images/picture_1.png,0,"[11.733433509789462, -11.733433509789466]",11.733433509789462,-11.733433509789464,images/picture_2.png,1,"[-11.733433509789466, -11.733433509789462]",-11.733433509789464,-11.733433509789462,images/picture_3.png,2,"[-11.733433509789462, 11.733433509789464]",-11.733433509789462,11.733433509789464,0,1,1,0.9917366567814844,1.9917366567814845,1.0082633432185155,3.0,1,1.7417366567814845,0,4.0,3.0,1,2,5,0,5,0,0,6,6,4,,,,,,,426.98885449999943,426.98885449999943,427.9896790000057,428.74220304099435,428.9755711250036,428.9755711250036,428.9755711250036,429.9898711660062,429.9898711660062,429.9898711660062,429.9898711660062,431.0081138749956,200003,303,2023-04-07_13h05.45.000,DMS_et_12-36,2022.2.4,None,
52,UNPRED,12,0.9917366567814844,2,images/picture_3.png,images/picture_1.png,0,"[11.733433509789464, 11.733433509789462]",11.733433509789464,11.733433509789462,images/picture_2.png,1,"[11.733433509789462, -11.733433509789466]",11.733433509789462,-11.733433509789464,images/picture_3.png,2,"[-11.733433509789466, -11.733433509789462]",-11.733433509789464,-11.733433509789462,0,1,1,0.9917366567814844,1.9917366567814845,1.0082633432185155,3.0,1,1.7417366567814845,0,4.0,3.0,1,2,5,0,5,0,0,7,7,7,,,,,,,431.0081138749956,431.0081138749956,432.02334429099574,432.7560904580023,432.9748487080069,432.9748487080069,432.9748487080069,433.9897353749984,433.9897353749984,433.9897353749984,433.9897353749984,434.98861245799344,200003,303,2023-04-07_13h05.45.000,DMS_et_12-36,2022.2.4,None,
46,UNPRED,12,0.9917366567814844,0,images/picture_1.png,images/picture_1.png,0,"[-11.733433509789462, 11.733433509789464]",-11.733433509789462,11.733433509789464,images/picture_2.png,1,"[11.733433509789462, -11.733433509789466]",11.733433509789462,-11.733433509789464,images/picture_3.png,2,"[-11.733433509789466, -11.733433509789462]",-11.733433509789464,-11.733433509789462,0,1,1,0.9917366567814844,1.9917366567814845,1.0082633432185155,3.0,1,1.7417366567814845,0,4.0,3.0,1,2,5,0,5,0,0,8,8,1,,,,,,,434.98861245799344,434.98861245799344,435.98967583299964,436.742094250003,436.9756414160074,436.9756414160074,436.9756414160074,437.9896748750034,437.9896748750034,437.9896748750034,437.9896748750034,439.0615600000019,200003,303,2023-04-07_13h05.45.000,DMS_et_12-36,2022.2.4,None,
,,,,,,,,,,,,,,,,,,,,,,,,,,,,,,,,,,,5,0,5,0,,,,,,,,,439.0615600000019,451.0900208749954,,,,,,,,,,,,,200003,303,2023-04-07_13h05.45.000,DMS_et_12-36,2022.2.4,None,
58,PRED,12,0.9917366567814844,0,images/picture_1.png,images/picture_1.png,0,"[-11.733433509789466, -11.733433509789462]",-11.733433509789464,-11.733433509789462,images/picture_2.png,1,"[-11.733433509789462, 11.733433509789464]",-11.733433509789462,11.733433509789464,images/picture_3.png,2,"[11.733433509789462, -11.733433509789466]",11.733433509789462,-11.733433509789464,0,1,1,0.9917366567814844,1.9917366567814845,1.0082633432185155,3.0,1,1.7417366567814845,0,4.0,3.0,1,2,6,0,6,0,0,0,0,4,,,,,,,451.0900208749954,451.0900208749954,452.08979104099853,452.8424623750034,453.07515274999605,453.07515274999605,453.07515274999605,454.0894861660054,454.0894861660054,454.0894861660054,454.0894861660054,455.08922012499534,200003,303,2023-04-07_13h05.45.000,DMS_et_12-36,2022.2.4,None,
59,PRED,12,0.9917366567814844,0,images/picture_1.png,images/picture_1.png,0,"[-11.733433509789466, -11.733433509789462]",-11.733433509789464,-11.733433509789462,images/picture_2.png,1,"[11.733433509789464, 11.733433509789462]",11.733433509789464,11.733433509789462,images/picture_3.png,2,"[-11.733433509789462, 11.733433509789464]",-11.733433509789462,11.733433509789464,0,1,1,0.9917366567814844,1.9917366567814845,1.0082633432185155,3.0,1,1.7417366567814845,0,4.0,3.0,1,2,6,0,6,0,0,1,1,5,,,,,,,455.08922012499534,455.08922012499534,456.08968950000417,456.842375541004,457.0758302500035,457.0758302500035,457.0758302500035,458.0898947079986,458.0898947079986,458.0898947079986,458.0898947079986,459.0893429580028,200003,303,2023-04-07_13h05.45.000,DMS_et_12-36,2022.2.4,None,
56,PRED,12,0.9917366567814844,0,images/picture_1.png,images/picture_1.png,0,"[11.733433509789464, 11.733433509789462]",11.733433509789464,11.733433509789462,images/picture_2.png,1,"[11.733433509789462, -11.733433509789466]",11.733433509789462,-11.733433509789464,images/picture_3.png,2,"[-11.733433509789462, 11.733433509789464]",-11.733433509789462,11.733433509789464,0,1,1,0.9917366567814844,1.9917366567814845,1.0082633432185155,3.0,1,1.7417366567814845,0,4.0,3.0,1,2,6,0,6,0,0,2,2,2,,,,,,,459.0893429580028,459.0893429580028,460.08988683299685,460.8424048330053,461.07589654100593,461.07589654100593,461.07589654100593,462.08972645799804,462.08972645799804,462.08972645799804,462.08972645799804,463.08936554100364,200003,303,2023-04-07_13h05.45.000,DMS_et_12-36,2022.2.4,None,
57,PRED,12,0.9917366567814844,0,images/picture_1.png,images/picture_1.png,0,"[-11.733433509789462, 11.733433509789464]",-11.733433509789462,11.733433509789464,images/picture_2.png,1,"[11.733433509789464, 11.733433509789462]",11.733433509789464,11.733433509789462,images/picture_3.png,2,"[11.733433509789462, -11.733433509789466]",11.733433509789462,-11.733433509789464,0,1,1,0.9917366567814844,1.9917366567814845,1.0082633432185155,3.0,1,1.7417366567814845,0,4.0,3.0,1,2,6,0,6,0,0,3,3,3,,,,,,,463.08936554100364,463.08936554100364,464.08962987500126,464.8422972080007,465.07611008299864,465.07611008299864,465.07611008299864,466.0899030830042,466.0899030830042,466.0899030830042,466.0899030830042,467.08935141599795,200003,303,2023-04-07_13h05.45.000,DMS_et_12-36,2022.2.4,None,
62,PRED,12,0.9917366567814844,0,images/picture_1.png,images/picture_1.png,0,"[-11.733433509789462, 11.733433509789464]",-11.733433509789462,11.733433509789464,images/picture_2.png,1,"[11.733433509789464, 11.733433509789462]",11.733433509789464,11.733433509789462,images/picture_3.png,2,"[-11.733433509789466, -11.733433509789462]",-11.733433509789464,-11.733433509789462,0,1,1,0.9917366567814844,1.9917366567814845,1.0082633432185155,3.0,1,1.7417366567814845,0,4.0,3.0,1,2,6,0,6,0,0,4,4,8,,,,,,,467.08935141599795,467.08935141599795,468.08993170800386,468.84247404099733,469.0759575830016,469.0759575830016,469.0759575830016,470.08969520800747,470.08969520800747,470.08969520800747,470.08969520800747,471.0895102909999,200003,303,2023-04-07_13h05.45.000,DMS_et_12-36,2022.2.4,None,
55,PRED,12,0.9917366567814844,0,images/picture_1.png,images/picture_1.png,0,"[-11.733433509789466, -11.733433509789462]",-11.733433509789464,-11.733433509789462,images/picture_2.png,1,"[11.733433509789464, 11.733433509789462]",11.733433509789464,11.733433509789462,images/picture_3.png,2,"[11.733433509789462, -11.733433509789466]",11.733433509789462,-11.733433509789464,0,1,1,0.9917366567814844,1.9917366567814845,1.0082633432185155,3.0,1,1.7417366567814845,0,4.0,3.0,1,2,6,0,6,0,0,5,5,1,,,,,,,471.0895102909999,471.0895102909999,472.0899052909954,472.8416562079947,473.075614625006,473.075614625006,473.075614625006,474.0894676250027,474.0894676250027,474.0894676250027,474.0894676250027,475.08925000000454,200003,303,2023-04-07_13h05.45.000,DMS_et_12-36,2022.2.4,None,
60,PRED,12,0.9917366567814844,0,images/picture_1.png,images/picture_1.png,0,"[-11.733433509789462, 11.733433509789464]",-11.733433509789462,11.733433509789464,images/picture_2.png,1,"[-11.733433509789466, -11.733433509789462]",-11.733433509789464,-11.733433509789462,images/picture_3.png,2,"[11.733433509789462, -11.733433509789466]",11.733433509789462,-11.733433509789464,0,1,1,0.9917366567814844,1.9917366567814845,1.0082633432185155,3.0,1,1.7417366567814845,0,4.0,3.0,1,2,6,0,6,0,0,6,6,6,,,,,,,475.08925000000454,475.08925000000454,476.08993416599697,476.84266087500146,477.0757669159939,477.0757669159939,477.0757669159939,478.0899232499942,478.0899232499942,478.0899232499942,478.0899232499942,479.08926545799477,200003,303,2023-04-07_13h05.45.000,DMS_et_12-36,2022.2.4,None,
61,PRED,12,0.9917366567814844,0,images/picture_1.png,images/picture_1.png,0,"[-11.733433509789462, 11.733433509789464]",-11.733433509789462,11.733433509789464,images/picture_2.png,1,"[11.733433509789464, 11.733433509789462]",11.733433509789464,11.733433509789462,images/picture_3.png,2,"[11.733433509789462, -11.733433509789466]",11.733433509789462,-11.733433509789464,0,1,1,0.9917366567814844,1.9917366567814845,1.0082633432185155,3.0,1,1.7417366567814845,0,4.0,3.0,1,2,6,0,6,0,0,7,7,7,,,,,,,479.08926545799477,479.08926545799477,480.08987933299795,480.8426113750029,481.0755292910035,481.0755292910035,481.0755292910035,482.0896599999978,482.0896599999978,482.0896599999978,482.0896599999978,483.08952745799616,200003,303,2023-04-07_13h05.45.000,DMS_et_12-36,2022.2.4,None,
54,PRED,12,0.9917366567814844,0,images/picture_1.png,images/picture_1.png,0,"[11.733433509789464, 11.733433509789462]",11.733433509789464,11.733433509789462,images/picture_2.png,1,"[11.733433509789462, -11.733433509789466]",11.733433509789462,-11.733433509789464,images/picture_3.png,2,"[-11.733433509789466, -11.733433509789462]",-11.733433509789464,-11.733433509789462,0,1,1,0.9917366567814844,1.9917366567814845,1.0082633432185155,3.0,1,1.7417366567814845,0,4.0,3.0,1,2,6,0,6,0,0,8,8,0,,,,,,,483.08952745799616,483.08952745799616,484.0896021249937,484.842041625001,485.07569387499825,485.07569387499825,485.07569387499825,486.0900322499947,486.0900322499947,486.0900322499947,486.0900322499947,487.17223129099875,200003,303,2023-04-07_13h05.45.000,DMS_et_12-36,2022.2.4,None,
,,,,,,,,,,,,,,,,,,,,,,,,,,,,,,,,,,,6,0,6,0,,,,,,,,,487.17223129099875,499.1920417079964,,,,,,,,,,,,,200003,303,2023-04-07_13h05.45.000,DMS_et_12-36,2022.2.4,None,
64,UNPRED,12,0.9917366567814844,0,images/picture_1.png,images/picture_1.png,0,"[11.733433509789462, -11.733433509789466]",11.733433509789462,-11.733433509789464,images/picture_2.png,1,"[-11.733433509789462, 11.733433509789464]",-11.733433509789462,11.733433509789464,images/picture_3.png,2,"[-11.733433509789466, -11.733433509789462]",-11.733433509789464,-11.733433509789462,0,1,1,0.9917366567814844,1.9917366567814845,1.0082633432185155,3.0,1,1.7417366567814845,0,4.0,3.0,1,2,7,0,7,0,0,0,0,1,,,,,,,499.1920417079964,499.1920417079964,500.189963583005,500.94242824999674,501.1898752910056,501.1898752910056,501.1898752910056,502.20927741599735,502.20927741599735,502.20927741599735,502.18993700000283,503.18906220799545,200003,303,2023-04-07_13h05.45.000,DMS_et_12-36,2022.2.4,None,
65,UNPRED,12,0.9917366567814844,1,images/picture_2.png,images/picture_1.png,0,"[-11.733433509789466, -11.733433509789462]",-11.733433509789464,-11.733433509789462,images/picture_2.png,1,"[11.733433509789464, 11.733433509789462]",11.733433509789464,11.733433509789462,images/picture_3.png,2,"[11.733433509789462, -11.733433509789466]",11.733433509789462,-11.733433509789464,0,1,1,0.9917366567814844,1.9917366567814845,1.0082633432185155,3.0,1,1.7417366567814845,0,4.0,3.0,1,2,7,0,7,0,0,1,1,2,,,,,,,503.18906220799545,503.18906220799545,504.1894838330045,504.9419774160051,505.1751530000038,505.1751530000038,505.1751530000038,506.18987770800595,506.18987770800595,506.18987770800595,506.18987770800595,507.1893052499945,200003,303,2023-04-07_13h05.45.000,DMS_et_12-36,2022.2.4,None,
66,UNPRED,12,0.9917366567814844,0,images/picture_1.png,images/picture_1.png,0,"[11.733433509789464, 11.733433509789462]",11.733433509789464,11.733433509789462,images/picture_2.png,1,"[-11.733433509789466, -11.733433509789462]",-11.733433509789464,-11.733433509789462,images/picture_3.png,2,"[-11.733433509789462, 11.733433509789464]",-11.733433509789462,11.733433509789464,0,1,1,0.9917366567814844,1.9917366567814845,1.0082633432185155,3.0,1,1.7417366567814845,0,4.0,3.0,1,2,7,0,7,0,0,2,2,3,,,,,,,507.1893052499945,507.1893052499945,508.18988679100585,508.9422721659939,509.1757502499968,509.1757502499968,509.1757502499968,510.18988354099565,510.18988354099565,510.18988354099565,510.18988354099565,511.2098163750052,200003,303,2023-04-07_13h05.45.000,DMS_et_12-36,2022.2.4,None,
71,UNPRED,12,0.9917366567814844,2,images/picture_3.png,images/picture_1.png,0,"[-11.733433509789466, -11.733433509789462]",-11.733433509789464,-11.733433509789462,images/picture_2.png,1,"[11.733433509789464, 11.733433509789462]",11.733433509789464,11.733433509789462,images/picture_3.png,2,"[11.733433509789462, -11.733433509789466]",11.733433509789462,-11.733433509789464,0,1,1,0.9917366567814844,1.9917366567814845,1.0082633432185155,3.0,1,1.7417366567814845,0,4.0,3.0,1,2,7,0,7,0,0,3,3,8,,,,,,,511.2098163750052,511.2098163750052,512.2231582499953,512.9564471250051,513.1758106250054,513.1758106250054,513.1758106250054,514.1900246250007,514.1900246250007,514.1900246250007,514.1900246250007,515.1905658750038,200003,303,2023-04-07_13h05.45.000,DMS_et_12-36,2022.2.4,None,
63,UNPRED,12,0.9917366567814844,2,images/picture_3.png,images/picture_1.png,0,"[11.733433509789462, -11.733433509789466]",11.733433509789462,-11.733433509789464,images/picture_2.png,1,"[11.733433509789464, 11.733433509789462]",11.733433509789464,11.733433509789462,images/picture_3.png,2,"[-11.733433509789462, 11.733433509789464]",-11.733433509789462,11.733433509789464,0,1,1,0.9917366567814844,1.9917366567814845,1.0082633432185155,3.0,1,1.7417366567814845,0,4.0,3.0,1,2,7,0,7,0,0,4,4,0,,,,,,,515.1905658750038,515.1905658750038,516.1899328750005,516.9425389160024,517.1761266660033,517.1761266660033,517.1761266660033,518.1899002499995,518.1899002499995,518.1899002499995,518.1899002499995,519.2085117079987,200003,303,2023-04-07_13h05.45.000,DMS_et_12-36,2022.2.4,None,
68,UNPRED,12,0.9917366567814844,2,images/picture_3.png,images/picture_1.png,0,"[-11.733433509789462, 11.733433509789464]",-11.733433509789462,11.733433509789464,images/picture_2.png,1,"[-11.733433509789466, -11.733433509789462]",-11.733433509789464,-11.733433509789462,images/picture_3.png,2,"[11.733433509789464, 11.733433509789462]",11.733433509789464,11.733433509789462,0,1,1,0.9917366567814844,1.9917366567814845,1.0082633432185155,3.0,1,1.7417366567814845,0,4.0,3.0,1,2,7,0,7,0,0,5,5,5,,,,,,,519.2085117079987,519.2085117079987,520.2231761250005,520.9566347500077,521.1760619999986,521.1760619999986,521.1760619999986,522.1899379999959,522.1899379999959,522.1899379999959,522.1899379999959,523.1895608329942,200003,303,2023-04-07_13h05.45.000,DMS_et_12-36,2022.2.4,None,
70,UNPRED,12,0.9917366567814844,1,images/picture_2.png,images/picture_1.png,0,"[11.733433509789462, -11.733433509789466]",11.733433509789462,-11.733433509789464,images/picture_2.png,1,"[-11.733433509789466, -11.733433509789462]",-11.733433509789464,-11.733433509789462,images/picture_3.png,2,"[-11.733433509789462, 11.733433509789464]",-11.733433509789462,11.733433509789464,0,1,1,0.9917366567814844,1.9917366567814845,1.0082633432185155,3.0,1,1.7417366567814845,0,4.0,3.0,1,2,7,0,7,0,0,6,6,7,,,,,,,523.1895608329942,523.1895608329942,524.189911583002,524.9418698329973,525.1751342079951,525.1751342079951,525.1751342079951,526.189865916007,526.189865916007,526.189865916007,526.189865916007,527.2092202500062,200003,303,2023-04-07_13h05.45.000,DMS_et_12-36,2022.2.4,None,
67,UNPRED,12,0.9917366567814844,2,images/picture_3.png,images/picture_1.png,0,"[-11.733433509789466, -11.733433509789462]",-11.733433509789464,-11.733433509789462,images/picture_2.png,1,"[-11.733433509789462, 11.733433509789464]",-11.733433509789462,11.733433509789464,images/picture_3.png,2,"[11.733433509789464, 11.733433509789462]",11.733433509789464,11.733433509789462,0,1,1,0.9917366567814844,1.9917366567814845,1.0082633432185155,3.0,1,1.7417366567814845,0,4.0,3.0,1,2,7,0,7,0,0,7,7,4,,,,,,,527.2092202500062,527.2092202500062,528.2231849160016,528.9566109159932,529.1757737909938,529.1757737909938,529.1757737909938,530.1899362499971,530.1899362499971,530.1899362499971,530.1899362499971,531.1893409159966,200003,303,2023-04-07_13h05.45.000,DMS_et_12-36,2022.2.4,None,
69,UNPRED,12,0.9917366567814844,0,images/picture_1.png,images/picture_1.png,0,"[-11.733433509789462, 11.733433509789464]",-11.733433509789462,11.733433509789464,images/picture_2.png,1,"[11.733433509789462, -11.733433509789466]",11.733433509789462,-11.733433509789464,images/picture_3.png,2,"[-11.733433509789466, -11.733433509789462]",-11.733433509789464,-11.733433509789462,0,1,1,0.9917366567814844,1.9917366567814845,1.0082633432185155,3.0,1,1.7417366567814845,0,4.0,3.0,1,2,7,0,7,0,0,8,8,6,,,,,,,531.1893409159966,531.1893409159966,532.189897624994,532.9424455830012,533.1759076250019,533.1759076250019,533.1759076250019,534.1899341660028,534.1899341660028,534.1899341660028,534.1899341660028,535.2597062910063,200003,303,2023-04-07_13h05.45.000,DMS_et_12-36,2022.2.4,None,
,,,,,,,,,,,,,,,,,,,,,,,,,,,,,,,,,,,7,0,7,0,,,,,,,,,535.2597062910063,547.2784054999938,,,,,,,,,,,,,200003,303,2023-04-07_13h05.45.000,DMS_et_12-36,2022.2.4,None,
78,PRED,12,0.9917366567814844,1,images/picture_2.png,images/picture_1.png,0,"[11.733433509789462, -11.733433509789466]",11.733433509789462,-11.733433509789464,images/picture_2.png,1,"[11.733433509789464, 11.733433509789462]",11.733433509789464,11.733433509789462,images/picture_3.png,2,"[-11.733433509789462, 11.733433509789464]",-11.733433509789462,11.733433509789464,0,1,1,0.9917366567814844,1.9917366567814845,1.0082633432185155,3.0,1,1.7417366567814845,0,4.0,3.0,1,2,8,0,8,0,0,0,0,6,,,,,,,547.2784054999938,547.2784054999938,548.2900003749965,549.0234255410032,549.2759114159999,549.2759114159999,549.2759114159999,550.2899667500023,550.2899667500023,550.2899667500023,550.2760119159939,551.2893047079997,200003,303,2023-04-07_13h05.45.000,DMS_et_12-36,2022.2.4,None,
80,PRED,12,0.9917366567814844,1,images/picture_2.png,images/picture_1.png,0,"[11.733433509789464, 11.733433509789462]",11.733433509789464,11.733433509789462,images/picture_2.png,1,"[-11.733433509789466, -11.733433509789462]",-11.733433509789464,-11.733433509789462,images/picture_3.png,2,"[11.733433509789462, -11.733433509789466]",11.733433509789462,-11.733433509789464,0,1,1,0.9917366567814844,1.9917366567814845,1.0082633432185155,3.0,1,1.7417366567814845,0,4.0,3.0,1,2,8,0,8,0,0,1,1,8,,,,,,,551.2893047079997,551.2893047079997,552.2898954160046,553.0422105409962,553.2757512499957,553.2757512499957,553.2757512499957,554.2898801249976,554.2898801249976,554.2898801249976,554.2898801249976,555.2894818329951,200003,303,2023-04-07_13h05.45.000,DMS_et_12-36,2022.2.4,None,
77,PRED,12,0.9917366567814844,1,images/picture_2.png,images/picture_1.png,0,"[-11.733433509789466, -11.733433509789462]",-11.733433509789464,-11.733433509789462,images/picture_2.png,1,"[11.733433509789462, -11.733433509789466]",11.733433509789462,-11.733433509789464,images/picture_3.png,2,"[11.733433509789464, 11.733433509789462]",11.733433509789464,11.733433509789462,0,1,1,0.9917366567814844,1.9917366567814845,1.0082633432185155,3.0,1,1.7417366567814845,0,4.0,3.0,1,2,8,0,8,0,0,2,2,5,,,,,,,555.2894818329951,555.2894818329951,556.2896930410061,557.0425042080024,557.2756452500034,557.2756452500034,557.2756452500034,558.2899446660012,558.2899446660012,558.2899446660012,558.2899446660012,559.2897340000054,200003,303,2023-04-07_13h05.45.000,DMS_et_12-36,2022.2.4,None,
73,PRED,12,0.9917366567814844,1,images/picture_2.png,images/picture_1.png,0,"[11.733433509789464, 11.733433509789462]",11.733433509789464,11.733433509789462,images/picture_2.png,1,"[-11.733433509789466, -11.733433509789462]",-11.733433509789464,-11.733433509789462,images/picture_3.png,2,"[-11.733433509789462, 11.733433509789464]",-11.733433509789462,11.733433509789464,0,1,1,0.9917366567814844,1.9917366567814845,1.0082633432185155,3.0,1,1.7417366567814845,0,4.0,3.0,1,2,8,0,8,0,0,3,3,1,,,,,,,559.2897340000054,559.2897340000054,560.2899882079946,561.0427000409982,561.2759058749944,561.2759058749944,561.2759058749944,562.2899354580004,562.2899354580004,562.2899354580004,562.2899354580004,563.2893774580007,200003,303,2023-04-07_13h05.45.000,DMS_et_12-36,2022.2.4,None,
79,PRED,12,0.9917366567814844,1,images/picture_2.png,images/picture_1.png,0,"[11.733433509789462, -11.733433509789466]",11.733433509789462,-11.733433509789464,images/picture_2.png,1,"[-11.733433509789466, -11.733433509789462]",-11.733433509789464,-11.733433509789462,images/picture_3.png,2,"[-11.733433509789462, 11.733433509789464]",-11.733433509789462,11.733433509789464,0,1,1,0.9917366567814844,1.9917366567814845,1.0082633432185155,3.0,1,1.7417366567814845,0,4.0,3.0,1,2,8,0,8,0,0,4,4,7,,,,,,,563.2893774580007,563.2893774580007,564.2899271250062,565.0425546659972,565.2756392080046,565.2756392080046,565.2756392080046,566.2896337499988,566.2896337499988,566.2896337499988,566.2896337499988,567.2894634999975,200003,303,2023-04-07_13h05.45.000,DMS_et_12-36,2022.2.4,None,
75,PRED,12,0.9917366567814844,1,images/picture_2.png,images/picture_1.png,0,"[11.733433509789464, 11.733433509789462]",11.733433509789464,11.733433509789462,images/picture_2.png,1,"[-11.733433509789466, -11.733433509789462]",-11.733433509789464,-11.733433509789462,images/picture_3.png,2,"[-11.733433509789462, 11.733433509789464]",-11.733433509789462,11.733433509789464,0,1,1,0.9917366567814844,1.9917366567814845,1.0082633432185155,3.0,1,1.7417366567814845,0,4.0,3.0,1,2,8,0,8,0,0,5,5,3,,,,,,,567.2894634999975,567.2894634999975,568.2899010410038,569.0425471659983,569.2758822909964,569.2758822909964,569.2758822909964,570.2899370410014,570.2899370410014,570.2899370410014,570.2899370410014,571.2893307909981,200003,303,2023-04-07_13h05.45.000,DMS_et_12-36,2022.2.4,None,
74,PRED,12,0.9917366567814844,1,images/picture_2.png,images/picture_1.png,0,"[11.733433509789462, -11.733433509789466]",11.733433509789462,-11.733433509789464,images/picture_2.png,1,"[11.733433509789464, 11.733433509789462]",11.733433509789464,11.733433509789462,images/picture_3.png,2,"[-11.733433509789466, -11.733433509789462]",-11.733433509789464,-11.733433509789462,0,1,1,0.9917366567814844,1.9917366567814845,1.0082633432185155,3.0,1,1.7417366567814845,0,4.0,3.0,1,2,8,0,8,0,0,6,6,2,,,,,,,571.2893307909981,571.2893307909981,572.290049999996,573.0428451250045,573.2759653749963,573.2759653749963,573.2759653749963,574.2899907910032,574.2899907910032,574.2899907910032,574.2899907910032,575.2894486659934,200003,303,2023-04-07_13h05.45.000,DMS_et_12-36,2022.2.4,None,
76,PRED,12,0.9917366567814844,1,images/picture_2.png,images/picture_1.png,0,"[-11.733433509789466, -11.733433509789462]",-11.733433509789464,-11.733433509789462,images/picture_2.png,1,"[11.733433509789464, 11.733433509789462]",11.733433509789464,11.733433509789462,images/picture_3.png,2,"[-11.733433509789462, 11.733433509789464]",-11.733433509789462,11.733433509789464,0,1,1,0.9917366567814844,1.9917366567814845,1.0082633432185155,3.0,1,1.7417366567814845,0,4.0,3.0,1,2,8,0,8,0,0,7,7,4,,,,,,,575.2894486659934,575.2894486659934,576.289759249994,577.0418779159954,577.276122041003,577.276122041003,577.276122041003,578.290081375002,578.290081375002,578.290081375002,578.290081375002,579.2894142500008,200003,303,2023-04-07_13h05.45.000,DMS_et_12-36,2022.2.4,None,
72,PRED,12,0.9917366567814844,1,images/picture_2.png,images/picture_1.png,0,"[-11.733433509789462, 11.733433509789464]",-11.733433509789462,11.733433509789464,images/picture_2.png,1,"[11.733433509789464, 11.733433509789462]",11.733433509789464,11.733433509789462,images/picture_3.png,2,"[-11.733433509789466, -11.733433509789462]",-11.733433509789464,-11.733433509789462,0,1,1,0.9917366567814844,1.9917366567814845,1.0082633432185155,3.0,1,1.7417366567814845,0,4.0,3.0,1,2,8,0,8,0,0,8,8,0,,,,,,,579.2894142500008,579.2894142500008,580.289943249998,581.0424847910035,581.2758284159936,581.2758284159936,581.2758284159936,582.2899610000022,582.2899610000022,582.2899610000022,582.2899610000022,583.3889216660027,200003,303,2023-04-07_13h05.45.000,DMS_et_12-36,2022.2.4,None,
,,,,,,,,,,,,,,,,,,,,,,,,,,,,,,,,,,,8,0,8,0,,,,,,,,,583.3889216660027,595.412549582994,,,,,,,,,,,,,200003,303,2023-04-07_13h05.45.000,DMS_et_12-36,2022.2.4,None,
85,UNPRED,12,0.9917366567814844,1,images/picture_2.png,images/picture_1.png,0,"[-11.733433509789466, -11.733433509789462]",-11.733433509789464,-11.733433509789462,images/picture_2.png,1,"[-11.733433509789462, 11.733433509789464]",-11.733433509789462,11.733433509789464,images/picture_3.png,2,"[11.733433509789462, -11.733433509789466]",11.733433509789462,-11.733433509789464,0,1,1,0.9917366567814844,1.9917366567814845,1.0082633432185155,3.0,1,1.7417366567814845,0,4.0,3.0,1,2,9,0,9,0,0,0,0,4,,,,,,,595.412549582994,595.412549582994,596.4231422080047,597.1563756660034,597.4089772080042,597.4089772080042,597.4089772080042,598.4231999579933,598.4231999579933,598.4231999579933,598.4090404580056,599.4227839999949,200003,303,2023-04-07_13h05.45.000,DMS_et_12-36,2022.2.4,None,
89,UNPRED,12,0.9917366567814844,1,images/picture_2.png,images/picture_1.png,0,"[11.733433509789462, -11.733433509789466]",11.733433509789462,-11.733433509789464,images/picture_2.png,1,"[11.733433509789464, 11.733433509789462]",11.733433509789464,11.733433509789462,images/picture_3.png,2,"[-11.733433509789466, -11.733433509789462]",-11.733433509789464,-11.733433509789462,0,1,1,0.9917366567814844,1.9917366567814845,1.0082633432185155,3.0,1,1.7417366567814845,0,4.0,3.0,1,2,9,0,9,0,0,1,1,8,,,,,,,599.4227839999949,599.4227839999949,600.4233628329966,601.175762333005,601.4092803749954,601.4092803749954,601.4092803749954,602.423420666004,602.423420666004,602.423420666004,602.423420666004,603.4226984580018,200003,303,2023-04-07_13h05.45.000,DMS_et_12-36,2022.2.4,None,
84,UNPRED,12,0.9917366567814844,0,images/picture_1.png,images/picture_1.png,0,"[11.733433509789462, -11.733433509789466]",11.733433509789462,-11.733433509789464,images/picture_2.png,1,"[11.733433509789464, 11.733433509789462]",11.733433509789464,11.733433509789462,images/picture_3.png,2,"[-11.733433509789466, -11.733433509789462]",-11.733433509789464,-11.733433509789462,0,1,1,0.9917366567814844,1.9917366567814845,1.0082633432185155,3.0,1,1.7417366567814845,0,4.0,3.0,1,2,9,0,9,0,0,2,2,3,,,,,,,603.4226984580018,603.4226984580018,604.4233555410028,605.1762050410034,605.409898708007,605.409898708007,605.409898708007,606.4233577499981,606.4233577499981,606.4233577499981,606.4233577499981,607.4229651250062,200003,303,2023-04-07_13h05.45.000,DMS_et_12-36,2022.2.4,None,
87,UNPRED,12,0.9917366567814844,1,images/picture_2.png,images/picture_1.png,0,"[-11.733433509789466, -11.733433509789462]",-11.733433509789464,-11.733433509789462,images/picture_2.png,1,"[11.733433509789462, -11.733433509789466]",11.733433509789462,-11.733433509789464,images/picture_3.png,2,"[-11.733433509789462, 11.733433509789464]",-11.733433509789462,11.733433509789464,0,1,1,0.9917366567814844,1.9917366567814845,1.0082633432185155,3.0,1,1.7417366567814845,0,4.0,3.0,1,2,9,0,9,0,0,3,3,6,,,,,,,607.4229651250062,607.4229651250062,608.4233698750031,609.1758947500057,609.4094465829985,609.4094465829985,609.4094465829985,610.4232329160004,610.4232329160004,610.4232329160004,610.4232329160004,611.4424626660038,200003,303,2023-04-07_13h05.45.000,DMS_et_12-36,2022.2.4,None,
88,UNPRED,12,0.9917366567814844,2,images/picture_3.png,images/picture_1.png,0,"[11.733433509789464, 11.733433509789462]",11.733433509789464,11.733433509789462,images/picture_2.png,1,"[11.733433509789462, -11.733433509789466]",11.733433509789462,-11.733433509789464,images/picture_3.png,2,"[-11.733433509789466, -11.733433509789462]",-11.733433509789464,-11.733433509789462,0,1,1,0.9917366567814844,1.9917366567814845,1.0082633432185155,3.0,1,1.7417366567814845,0,4.0,3.0,1,2,9,0,9,0,0,4,4,7,,,,,,,611.4424626660038,611.4424626660038,612.4566008749971,613.1900080409978,613.4093137080054,613.4093137080054,613.4093137080054,614.4233289999975,614.4233289999975,614.4233289999975,614.4233289999975,615.4233914159995,200003,303,2023-04-07_13h05.45.000,DMS_et_12-36,2022.2.4,None,
86,UNPRED,12,0.9917366567814844,1,images/picture_2.png,images/picture_1.png,0,"[11.733433509789462, -11.733433509789466]",11.733433509789462,-11.733433509789464,images/picture_2.png,1,"[-11.733433509789462, 11.733433509789464]",-11.733433509789462,11.733433509789464,images/picture_3.png,2,"[11.733433509789464, 11.733433509789462]",11.733433509789464,11.733433509789462,0,1,1,0.9917366567814844,1.9917366567814845,1.0082633432185155,3.0,1,1.7417366567814845,0,4.0,3.0,1,2,9,0,9,0,0,5,5,5,,,,,,,615.4233914159995,615.4233914159995,616.4236672499974,617.1752378329984,617.4088396659936,617.4088396659936,617.4088396659936,618.4232228330075,618.4232228330075,618.4232228330075,618.4232228330075,619.4227691660053,200003,303,2023-04-07_13h05.45.000,DMS_et_12-36,2022.2.4,None,
82,UNPRED,12,0.9917366567814844,1,images/picture_2.png,images/picture_1.png,0,"[-11.733433509789466, -11.733433509789462]",-11.733433509789464,-11.733433509789462,images/picture_2.png,1,"[11.733433509789462, -11.733433509789466]",11.733433509789462,-11.733433509789464,images/picture_3.png,2,"[-11.733433509789462, 11.733433509789464]",-11.733433509789462,11.733433509789464,0,1,1,0.9917366567814844,1.9917366567814845,1.0082633432185155,3.0,1,1.7417366567814845,0,4.0,3.0,1,2,9,0,9,0,0,6,6,1,,,,,,,619.4227691660053,619.4227691660053,620.4234262910031,621.1760579999973,621.4091692910006,621.4091692910006,621.4091692910006,622.4234173330042,622.4234173330042,622.4234173330042,622.4234173330042,623.4228207910055,200003,303,2023-04-07_13h05.45.000,DMS_et_12-36,2022.2.4,None,
81,UNPRED,12,0.9917366567814844,0,images/picture_1.png,images/picture_1.png,0,"[-11.733433509789466, -11.733433509789462]",-11.733433509789464,-11.733433509789462,images/picture_2.png,1,"[-11.733433509789462, 11.733433509789464]",-11.733433509789462,11.733433509789464,images/picture_3.png,2,"[11.733433509789464, 11.733433509789462]",11.733433509789464,11.733433509789462,0,1,1,0.9917366567814844,1.9917366567814845,1.0082633432185155,3.0,1,1.7417366567814845,0,4.0,3.0,1,2,9,0,9,0,0,7,7,0,,,,,,,623.4228207910055,623.4228207910055,624.4234692080063,625.175640290996,625.4094009580003,625.4094009580003,625.4094009580003,626.4235348329967,626.4235348329967,626.4235348329967,626.4235348329967,627.423059875,200003,303,2023-04-07_13h05.45.000,DMS_et_12-36,2022.2.4,None,
83,UNPRED,12,0.9917366567814844,0,images/picture_1.png,images/picture_1.png,0,"[11.733433509789464, 11.733433509789462]",11.733433509789464,11.733433509789462,images/picture_2.png,1,"[-11.733433509789462, 11.733433509789464]",-11.733433509789462,11.733433509789464,images/picture_3.png,2,"[11.733433509789462, -11.733433509789466]",11.733433509789462,-11.733433509789464,0,1,1,0.9917366567814844,1.9917366567814845,1.0082633432185155,3.0,1,1.7417366567814845,0,4.0,3.0,1,2,9,0,9,0,0,8,8,2,,,,,,,627.423059875,627.423059875,628.4235385000065,629.1765116659953,629.4094361250027,629.4094361250027,629.4094361250027,630.4234261660022,630.4234261660022,630.4234261660022,630.4234261660022,631.5333737080073,200003,303,2023-04-07_13h05.45.000,DMS_et_12-36,2022.2.4,None,
,,,,,,,,,,,,,,,,,,,,,,,,,,,,,,,,,,,9,0,9,0,,,,,,,,,631.5333737080073,643.5623000409978,,,,,,,,,,,,,200003,303,2023-04-07_13h05.45.000,DMS_et_12-36,2022.2.4,None,
97,PRED,12,0.9917366567814844,1,images/picture_2.png,images/picture_1.png,0,"[-11.733433509789462, 11.733433509789464]",-11.733433509789462,11.733433509789464,images/picture_2.png,1,"[11.733433509789462, -11.733433509789466]",11.733433509789462,-11.733433509789464,images/picture_3.png,2,"[-11.733433509789466, -11.733433509789462]",-11.733433509789464,-11.733433509789462,0,1,1,0.9917366567814844,1.9917366567814845,1.0082633432185155,3.0,1,1.7417366567814845,0,4.0,3.0,1,2,10,0,10,0,0,0,0,7,,,,,,,643.5623000409978,643.5623000409978,644.5762725410023,645.3095329579955,645.5567315410008,645.5567315410008,645.5567315410008,646.5765490000049,646.5765490000049,646.5765490000049,646.5570214159961,647.5563779999939,200003,303,2023-04-07_13h05.45.000,DMS_et_12-36,2022.2.4,None,
96,PRED,12,0.9917366567814844,1,images/picture_2.png,images/picture_1.png,0,"[-11.733433509789462, 11.733433509789464]",-11.733433509789462,11.733433509789464,images/picture_2.png,1,"[-11.733433509789466, -11.733433509789462]",-11.733433509789464,-11.733433509789462,images/picture_3.png,2,"[11.733433509789464, 11.733433509789462]",11.733433509789464,11.733433509789462,0,1,1,0.9917366567814844,1.9917366567814845,1.0082633432185155,3.0,1,1.7417366567814845,0,4.0,3.0,1,2,10,0,10,0,0,1,1,6,,,,,,,647.5563779999939,647.5563779999939,648.5565223750018,649.3093615410035,649.5425404160051,649.5425404160051,649.5425404160051,650.5567029579979,650.5567029579979,650.5567029579979,650.5567029579979,651.5560845,200003,303,2023-04-07_13h05.45.000,DMS_et_12-36,2022.2.4,None,
92,PRED,12,0.9917366567814844,1,images/picture_2.png,images/picture_1.png,0,"[11.733433509789462, -11.733433509789466]",11.733433509789462,-11.733433509789464,images/picture_2.png,1,"[-11.733433509789466, -11.733433509789462]",-11.733433509789464,-11.733433509789462,images/picture_3.png,2,"[-11.733433509789462, 11.733433509789464]",-11.733433509789462,11.733433509789464,0,1,1,0.9917366567814844,1.9917366567814845,1.0082633432185155,3.0,1,1.7417366567814845,0,4.0,3.0,1,2,10,0,10,0,0,2,2,2,,,,,,,651.5560845,651.5560845,652.556649791004,653.3099082080007,653.5428251660051,653.5428251660051,653.5428251660051,654.5567574580054,654.5567574580054,654.5567574580054,654.5567574580054,655.5562397080066,200003,303,2023-04-07_13h05.45.000,DMS_et_12-36,2022.2.4,None,
90,PRED,12,0.9917366567814844,1,images/picture_2.png,images/picture_1.png,0,"[-11.733433509789466, -11.733433509789462]",-11.733433509789464,-11.733433509789462,images/picture_2.png,1,"[11.733433509789462, -11.733433509789466]",11.733433509789462,-11.733433509789464,images/picture_3.png,2,"[-11.733433509789462, 11.733433509789464]",-11.733433509789462,11.733433509789464,0,1,1,0.9917366567814844,1.9917366567814845,1.0082633432185155,3.0,1,1.7417366567814845,0,4.0,3.0,1,2,10,0,10,0,0,3,3,0,,,,,,,655.5562397080066,655.5562397080066,656.5566875829973,657.3092082079966,657.542629040996,657.542629040996,657.542629040996,658.5564515830047,658.5564515830047,658.5564515830047,658.5564515830047,659.5563405410066,200003,303,2023-04-07_13h05.45.000,DMS_et_12-36,2022.2.4,None,
98,PRED,12,0.9917366567814844,1,images/picture_2.png,images/picture_1.png,0,"[-11.733433509789466, -11.733433509789462]",-11.733433509789464,-11.733433509789462,images/picture_2.png,1,"[11.733433509789462, -11.733433509789466]",11.733433509789462,-11.733433509789464,images/picture_3.png,2,"[11.733433509789464, 11.733433509789462]",11.733433509789464,11.733433509789462,0,1,1,0.9917366567814844,1.9917366567814845,1.0082633432185155,3.0,1,1.7417366567814845,0,4.0,3.0,1,2,10,0,10,0,0,4,4,8,,,,,,,659.5563405410066,659.5563405410066,660.5566990829975,661.3093690829992,661.5425950000063,661.5425950000063,661.5425950000063,662.5566797079955,662.5566797079955,662.5566797079955,662.5566797079955,663.5562432080042,200003,303,2023-04-07_13h05.45.000,DMS_et_12-36,2022.2.4,None,
93,PRED,12,0.9917366567814844,1,images/picture_2.png,images/picture_1.png,0,"[-11.733433509789466, -11.733433509789462]",-11.733433509789464,-11.733433509789462,images/picture_2.png,1,"[-11.733433509789462, 11.733433509789464]",-11.733433509789462,11.733433509789464,images/picture_3.png,2,"[11.733433509789464, 11.733433509789462]",11.733433509789464,11.733433509789462,0,1,1,0.9917366567814844,1.9917366567814845,1.0082633432185155,3.0,1,1.7417366567814845,0,4.0,3.0,1,2,10,0,10,0,0,5,5,3,,,,,,,663.5562432080042,663.5562432080042,664.5567359580018,665.309338291001,665.5423694579949,665.5423694579949,665.5423694579949,666.5567056250002,666.5567056250002,666.5567056250002,666.5567056250002,667.5561798330018,200003,303,2023-04-07_13h05.45.000,DMS_et_12-36,2022.2.4,None,
94,PRED,12,0.9917366567814844,1,images/picture_2.png,images/picture_1.png,0,"[-11.733433509789466, -11.733433509789462]",-11.733433509789464,-11.733433509789462,images/picture_2.png,1,"[11.733433509789462, -11.733433509789466]",11.733433509789462,-11.733433509789464,images/picture_3.png,2,"[11.733433509789464, 11.733433509789462]",11.733433509789464,11.733433509789462,0,1,1,0.9917366567814844,1.9917366567814845,1.0082633432185155,3.0,1,1.7417366567814845,0,4.0,3.0,1,2,10,0,10,0,0,6,6,4,,,,,,,667.5561798330018,667.5561798330018,668.5563424160064,669.308623416,669.5424502079986,669.5424502079986,669.5424502079986,670.5566992499953,670.5566992499953,670.5566992499953,670.5566992499953,671.5562210409989,200003,303,2023-04-07_13h05.45.000,DMS_et_12-36,2022.2.4,None,
91,PRED,12,0.9917366567814844,1,images/picture_2.png,images/picture_1.png,0,"[11.733433509789464, 11.733433509789462]",11.733433509789464,11.733433509789462,images/picture_2.png,1,"[-11.733433509789462, 11.733433509789464]",-11.733433509789462,11.733433509789464,images/picture_3.png,2,"[11.733433509789462, -11.733433509789466]",11.733433509789462,-11.733433509789464,0,1,1,0.9917366567814844,1.9917366567814845,1.0082633432185155,3.0,1,1.7417366567814845,0,4.0,3.0,1,2,10,0,10,0,0,7,7,1,,,,,,,671.5562210409989,671.5562210409989,672.5568843329966,673.3092179999949,673.5427314160042,673.5427314160042,673.5427314160042,674.5566903330036,674.5566903330036,674.5566903330036,674.5566903330036,675.5558831249946,200003,303,2023-04-07_13h05.45.000,DMS_et_12-36,2022.2.4,None,
95,PRED,12,0.9917366567814844,1,images/picture_2.png,images/picture_1.png,0,"[-11.733433509789466, -11.733433509789462]",-11.733433509789464,-11.733433509789462,images/picture_2.png,1,"[11.733433509789464, 11.733433509789462]",11.733433509789464,11.733433509789462,images/picture_3.png,2,"[-11.733433509789462, 11.733433509789464]",-11.733433509789462,11.733433509789464,0,1,1,0.9917366567814844,1.9917366567814845,1.0082633432185155,3.0,1,1.7417366567814845,0,4.0,3.0,1,2,10,0,10,0,0,8,8,5,,,,,,,675.5558831249946,675.5558831249946,676.5567088749958,677.3093054159981,677.5425246249943,677.5425246249943,677.5425246249943,678.5564689159946,678.5564689159946,678.5564689159946,678.5564689159946,679.6613195410027,200003,303,2023-04-07_13h05.45.000,DMS_et_12-36,2022.2.4,None,
,,,,,,,,,,,,,,,,,,,,,,,,,,,,,,,,,,,10,0,10,0,,,,,,,,,679.6613195410027,691.7071460000006,,,,,,,,,,,,,200003,303,2023-04-07_13h05.45.000,DMS_et_12-36,2022.2.4,None,
104,UNPRED,12,0.9917366567814844,2,images/picture_3.png,images/picture_1.png,0,"[-11.733433509789466, -11.733433509789462]",-11.733433509789464,-11.733433509789462,images/picture_2.png,1,"[11.733433509789462, -11.733433509789466]",11.733433509789462,-11.733433509789464,images/picture_3.png,2,"[11.733433509789464, 11.733433509789462]",11.733433509789464,11.733433509789462,0,1,1,0.9917366567814844,1.9917366567814845,1.0082633432185155,3.0,1,1.7417366567814845,0,4.0,3.0,1,2,11,0,11,0,0,0,0,5,,,,,,,691.7071460000006,691.7071460000006,692.7089780410024,693.4568445000041,693.6899810000032,693.6899810000032,693.6899810000032,694.7096227080037,694.7096227080037,694.7096227080037,694.6902580409951,695.7095693750016,200003,303,2023-04-07_13h05.45.000,DMS_et_12-36,2022.2.4,None,
105,UNPRED,12,0.9917366567814844,2,images/picture_3.png,images/picture_1.png,0,"[11.733433509789462, -11.733433509789466]",11.733433509789462,-11.733433509789464,images/picture_2.png,1,"[11.733433509789464, 11.733433509789462]",11.733433509789464,11.733433509789462,images/picture_3.png,2,"[-11.733433509789462, 11.733433509789464]",-11.733433509789462,11.733433509789464,0,1,1,0.9917366567814844,1.9917366567814845,1.0082633432185155,3.0,1,1.7417366567814845,0,4.0,3.0,1,2,11,0,11,0,0,1,1,6,,,,,,,695.7095693750016,695.7095693750016,696.7234507499961,697.4566860409977,697.6763116660004,697.6763116660004,697.6763116660004,698.6901400409988,698.6901400409988,698.6901400409988,698.6901400409988,699.6896961250022,200003,303,2023-04-07_13h05.45.000,DMS_et_12-36,2022.2.4,None,
101,UNPRED,12,0.9917366567814844,0,images/picture_1.png,images/picture_1.png,0,"[11.733433509789462, -11.733433509789466]",11.733433509789462,-11.733433509789464,images/picture_2.png,1,"[-11.733433509789462, 11.733433509789464]",-11.733433509789462,11.733433509789464,images/picture_3.png,2,"[11.733433509789464, 11.733433509789462]",11.733433509789464,11.733433509789462,0,1,1,0.9917366567814844,1.9917366567814845,1.0082633432185155,3.0,1,1.7417366567814845,0,4.0,3.0,1,2,11,0,11,0,0,2,2,2,,,,,,,699.6896961250022,699.6896961250022,700.6901165409945,701.4427312079933,701.6762449160015,701.6762449160015,701.6762449160015,702.6902452500071,702.6902452500071,702.6902452500071,702.6902452500071,703.7089626249945,200003,303,2023-04-07_13h05.45.000,DMS_et_12-36,2022.2.4,None,
107,UNPRED,12,0.9917366567814844,2,images/picture_3.png,images/picture_1.png,0,"[11.733433509789464, 11.733433509789462]",11.733433509789464,11.733433509789462,images/picture_2.png,1,"[-11.733433509789462, 11.733433509789464]",-11.733433509789462,11.733433509789464,images/picture_3.png,2,"[11.733433509789462, -11.733433509789466]",11.733433509789462,-11.733433509789464,0,1,1,0.9917366567814844,1.9917366567814845,1.0082633432185155,3.0,1,1.7417366567814845,0,4.0,3.0,1,2,11,0,11,0,0,3,3,8,,,,,,,703.7089626249945,703.7089626249945,704.7234450830001,705.4566492909944,705.6759371249937,705.6759371249937,705.6759371249937,706.6901711249957,706.6901711249957,706.6901711249957,706.6901711249957,707.6898578330001,200003,303,2023-04-07_13h05.45.000,DMS_et_12-36,2022.2.4,None,
106,UNPRED,12,0.9917366567814844,0,images/picture_1.png,images/picture_1.png,0,"[-11.733433509789466, -11.733433509789462]",-11.733433509789464,-11.733433509789462,images/picture_2.png,1,"[11.733433509789462, -11.733433509789466]",11.733433509789462,-11.733433509789464,images/picture_3.png,2,"[11.733433509789464, 11.733433509789462]",11.733433509789464,11.733433509789462,0,1,1,0.9917366567814844,1.9917366567814845,1.0082633432185155,3.0,1,1.7417366567814845,0,4.0,3.0,1,2,11,0,11,0,0,4,4,7,,,,,,,707.6898578330001,707.6898578330001,708.6901762079942,709.4417310830031,709.6753269580076,709.6753269580076,709.6753269580076,710.690164707994,710.690164707994,710.690164707994,710.690164707994,711.6895270410023,200003,303,2023-04-07_13h05.45.000,DMS_et_12-36,2022.2.4,None,
103,UNPRED,12,0.9917366567814844,0,images/picture_1.png,images/picture_1.png,0,"[-11.733433509789466, -11.733433509789462]",-11.733433509789464,-11.733433509789462,images/picture_2.png,1,"[11.733433509789462, -11.733433509789466]",11.733433509789462,-11.733433509789464,images/picture_3.png,2,"[11.733433509789464, 11.733433509789462]",11.733433509789464,11.733433509789462,0,1,1,0.9917366567814844,1.9917366567814845,1.0082633432185155,3.0,1,1.7417366567814845,0,4.0,3.0,1,2,11,0,11,0,0,5,5,4,,,,,,,711.6895270410023,711.6895270410023,712.6901095000067,713.4426151660009,713.6760831660067,713.6760831660067,713.6760831660067,714.6901574160001,714.6901574160001,714.6901574160001,714.6901574160001,715.6896609579999,200003,303,2023-04-07_13h05.45.000,DMS_et_12-36,2022.2.4,None,
102,UNPRED,12,0.9917366567814844,0,images/picture_1.png,images/picture_1.png,0,"[11.733433509789464, 11.733433509789462]",11.733433509789464,11.733433509789462,images/picture_2.png,1,"[11.733433509789462, -11.733433509789466]",11.733433509789462,-11.733433509789464,images/picture_3.png,2,"[-11.733433509789462, 11.733433509789464]",-11.733433509789462,11.733433509789464,0,1,1,0.9917366567814844,1.9917366567814845,1.0082633432185155,3.0,1,1.7417366567814845,0,4.0,3.0,1,2,11,0,11,0,0,6,6,3,,,,,,,715.6896609579999,715.6896609579999,716.6901815409947,717.4464564160007,717.6761704160017,717.6761704160017,717.6761704160017,718.690101250002,718.690101250002,718.690101250002,718.690101250002,719.6898138329998,200003,303,2023-04-07_13h05.45.000,DMS_et_12-36,2022.2.4,None,
99,UNPRED,12,0.9917366567814844,1,images/picture_2.png,images/picture_1.png,0,"[-11.733433509789462, 11.733433509789464]",-11.733433509789462,11.733433509789464,images/picture_2.png,1,"[-11.733433509789466, -11.733433509789462]",-11.733433509789464,-11.733433509789462,images/picture_3.png,2,"[11.733433509789464, 11.733433509789462]",11.733433509789464,11.733433509789462,0,1,1,0.9917366567814844,1.9917366567814845,1.0082633432185155,3.0,1,1.7417366567814845,0,4.0,3.0,1,2,11,0,11,0,0,7,7,0,,,,,,,719.6898138329998,719.6898138329998,720.6901246659982,721.4426707079983,721.6760640830034,721.6760640830034,721.6760640830034,722.6901412909938,722.6901412909938,722.6901412909938,722.6901412909938,723.6895454579935,200003,303,2023-04-07_13h05.45.000,DMS_et_12-36,2022.2.4,None,
100,UNPRED,12,0.9917366567814844,0,images/picture_1.png,images/picture_1.png,0,"[-11.733433509789462, 11.733433509789464]",-11.733433509789462,11.733433509789464,images/picture_2.png,1,"[-11.733433509789466, -11.733433509789462]",-11.733433509789464,-11.733433509789462,images/picture_3.png,2,"[11.733433509789462, -11.733433509789466]",11.733433509789462,-11.733433509789464,0,1,1,0.9917366567814844,1.9917366567814845,1.0082633432185155,3.0,1,1.7417366567814845,0,4.0,3.0,1,2,11,0,11,0,0,8,8,1,,,,,,,723.6895454579935,723.6895454579935,724.6901453330065,725.4427387080068,725.6762066660012,725.6762066660012,725.6762066660012,726.6902020830021,726.6902020830021,726.6902020830021,726.6902020830021,727.863298790995,200003,303,2023-04-07_13h05.45.000,DMS_et_12-36,2022.2.4,None,
,,,,,,,,,,,,,,,,,,,,,,,,,,,,,,,,,,,11,0,11,0,,,,,,,,,727.863298790995,740.0014805829996,,,,,,,,,,,,,200003,303,2023-04-07_13h05.45.000,DMS_et_12-36,2022.2.4,None,
,,,,,,,,,,,,,,,,,,,,,,,,,,,,,,,,,,,,,,,,,,,,,,,740.0014805829996,752.526201790999,,,,,,,,,,,,,,,,,,,
