trial_count,blockType,blockNum,delay_time,stimImage_i,stimImage,responseImage1,responseImage1_i,responseImage1_pos,responseImage1_X,responseImage1_Y,responseImage2,responseImage2_i,responseImage2_pos,responseImage2_X,responseImage2_Y,responseImage3,responseImage3_i,responseImage3_pos,responseImage3_X,responseImage3_Y,cue_onset,cue_dur,delay_onset,delay_dur,resp_onset,resp_dur,rest_onset,rest_dur,circle_dur,circle_onset,total_dur,cross_onset,cross_dur,delay_resp_period,blocks.thisRepN,blocks.thisTrialN,blocks.thisN,blocks.thisIndex,trials.thisRepN,trials.thisTrialN,trials.thisN,trials.thisIndex,key_resp.started,text.started,key_resp.keys,key_resp.rt,text_2.started,text_2.stopped,sample.started,Delay.started,sample.stopped,Delay.stopped,Response_1.started,Response_2.started,Response_3.started,polygon.started,Response_1.stopped,Response_2.stopped,Response_3.stopped,polygon.stopped,participant,session,date,expName,psychopyVersion,frameRate,
,,,,,,,,,,,,,,,,,,,,,,,,,,,,,,,,,,,,,,,,,,,49.89650066699687,49.89650066699687,t,65.91051462500036,,,,,,,,,,,,,,,200006,002,2023-04-07_10h50.27.245,DMS_et_12-36,2022.2.4,None,
4,PRED,12,1.1665150399826,1,images/picture_2.png,images/picture_1.png,0,"[-11.733433509789462, 11.733433509789464]",-11.733433509789462,11.733433509789464,images/picture_2.png,1,"[11.733433509789464, 11.733433509789462]",11.733433509789464,11.733433509789462,images/picture_3.png,2,"[11.733433509789462, -11.733433509789466]",11.733433509789462,-11.733433509789464,0,1,1,1.1665150399826,2.1665150399826003,0.8334849600174001,3.0,1,1.9165150399826,0,4.0,3.0,1,2,0,0,0,0,0,0,0,4,,,,,116.32475749999867,128.3565439169979,128.3565439169979,128.3565439169979,129.3702044169986,130.27043516699632,130.52332187499997,130.52332187499997,130.52332187499997,131.35624983399612,131.37042145899613,131.37042145899613,131.37042145899613,132.36994504199538,200006,002,2023-04-07_10h50.27.245,DMS_et_12-36,2022.2.4,None,
0,PRED,12,1.1665150399826,1,images/picture_2.png,images/picture_1.png,0,"[11.733433509789464, 11.733433509789462]",11.733433509789464,11.733433509789462,images/picture_2.png,1,"[11.733433509789462, -11.733433509789466]",11.733433509789462,-11.733433509789464,images/picture_3.png,2,"[-11.733433509789466, -11.733433509789462]",-11.733433509789464,-11.733433509789462,0,1,1,1.1665150399826,2.1665150399826003,0.8334849600174001,3.0,1,1.9165150399826,0,4.0,3.0,1,2,0,0,0,0,0,1,1,0,,,,,,,132.36994504199538,132.36994504199538,133.37040595899452,134.28940204199898,134.53703029199824,134.53703029199824,134.53703029199824,135.370210958994,135.370210958994,135.370210958994,135.370210958994,136.36981649999507,200006,002,2023-04-07_10h50.27.245,DMS_et_12-36,2022.2.4,None,
5,PRED,12,1.1665150399826,1,images/picture_2.png,images/picture_1.png,0,"[-11.733433509789466, -11.733433509789462]",-11.733433509789464,-11.733433509789462,images/picture_2.png,1,"[-11.733433509789462, 11.733433509789464]",-11.733433509789462,11.733433509789464,images/picture_3.png,2,"[11.733433509789462, -11.733433509789466]",11.733433509789462,-11.733433509789464,0,1,1,1.1665150399826,2.1665150399826003,0.8334849600174001,3.0,1,1.9165150399826,0,4.0,3.0,1,2,0,0,0,0,0,2,2,5,,,,,,,136.36981649999507,136.36981649999507,137.37025754199567,138.2894578339983,138.53714320899599,138.53714320899599,138.53714320899599,139.37043416699453,139.37043416699453,139.37043416699453,139.37043416699453,140.3698217919955,200006,002,2023-04-07_10h50.27.245,DMS_et_12-36,2022.2.4,None,
6,PRED,12,1.1665150399826,1,images/picture_2.png,images/picture_1.png,0,"[11.733433509789464, 11.733433509789462]",11.733433509789464,11.733433509789462,images/picture_2.png,1,"[11.733433509789462, -11.733433509789466]",11.733433509789462,-11.733433509789464,images/picture_3.png,2,"[-11.733433509789466, -11.733433509789462]",-11.733433509789464,-11.733433509789462,0,1,1,1.1665150399826,2.1665150399826003,0.8334849600174001,3.0,1,1.9165150399826,0,4.0,3.0,1,2,0,0,0,0,0,3,3,6,,,,,,,140.3698217919955,140.3698217919955,141.3702152919941,142.2885484590006,142.53677970900026,142.53677970900026,142.53677970900026,143.37042404199747,143.37042404199747,143.37042404199747,143.37042404199747,144.36932741700002,200006,002,2023-04-07_10h50.27.245,DMS_et_12-36,2022.2.4,None,
1,PRED,12,1.1665150399826,1,images/picture_2.png,images/picture_1.png,0,"[11.733433509789464, 11.733433509789462]",11.733433509789464,11.733433509789462,images/picture_2.png,1,"[11.733433509789462, -11.733433509789466]",11.733433509789462,-11.733433509789464,images/picture_3.png,2,"[-11.733433509789462, 11.733433509789464]",-11.733433509789462,11.733433509789464,0,1,1,1.1665150399826,2.1665150399826003,0.8334849600174001,3.0,1,1.9165150399826,0,4.0,3.0,1,2,0,0,0,0,0,4,4,1,,,,,,,144.36932741700002,144.36932741700002,145.3704536669975,146.2897323340003,146.53714379199664,146.53714379199664,146.53714379199664,147.37040804199933,147.37040804199933,147.37040804199933,147.37040804199933,148.36998524999944,200006,002,2023-04-07_10h50.27.245,DMS_et_12-36,2022.2.4,None,
3,PRED,12,1.1665150399826,1,images/picture_2.png,images/picture_1.png,0,"[11.733433509789464, 11.733433509789462]",11.733433509789464,11.733433509789462,images/picture_2.png,1,"[-11.733433509789466, -11.733433509789462]",-11.733433509789464,-11.733433509789462,images/picture_3.png,2,"[-11.733433509789462, 11.733433509789464]",-11.733433509789462,11.733433509789464,0,1,1,1.1665150399826,2.1665150399826003,0.8334849600174001,3.0,1,1.9165150399826,0,4.0,3.0,1,2,0,0,0,0,0,5,5,3,,,,,,,148.36998524999944,148.36998524999944,149.3704134590007,150.2896435839939,150.53699487499398,150.53699487499398,150.53699487499398,151.37045179199777,151.37045179199777,151.37045179199777,151.37045179199777,152.3700786249974,200006,002,2023-04-07_10h50.27.245,DMS_et_12-36,2022.2.4,None,
7,PRED,12,1.1665150399826,1,images/picture_2.png,images/picture_1.png,0,"[11.733433509789462, -11.733433509789466]",11.733433509789462,-11.733433509789464,images/picture_2.png,1,"[-11.733433509789462, 11.733433509789464]",-11.733433509789462,11.733433509789464,images/picture_3.png,2,"[-11.733433509789466, -11.733433509789462]",-11.733433509789464,-11.733433509789462,0,1,1,1.1665150399826,2.1665150399826003,0.8334849600174001,3.0,1,1.9165150399826,0,4.0,3.0,1,2,0,0,0,0,0,6,6,7,,,,,,,152.3700786249974,152.3700786249974,153.37048412500008,154.28946662499948,154.53714662499988,154.53714662499988,154.53714662499988,155.37041179199878,155.37041179199878,155.37041179199878,155.37041179199878,156.37018383399845,200006,002,2023-04-07_10h50.27.245,DMS_et_12-36,2022.2.4,None,
2,PRED,12,1.1665150399826,1,images/picture_2.png,images/picture_1.png,0,"[11.733433509789462, -11.733433509789466]",11.733433509789462,-11.733433509789464,images/picture_2.png,1,"[-11.733433509789466, -11.733433509789462]",-11.733433509789464,-11.733433509789462,images/picture_3.png,2,"[-11.733433509789462, 11.733433509789464]",-11.733433509789462,11.733433509789464,0,1,1,1.1665150399826,2.1665150399826003,0.8334849600174001,3.0,1,1.9165150399826,0,4.0,3.0,1,2,0,0,0,0,0,7,7,2,,,,,,,156.37018383399845,156.37018383399845,157.37051891699957,158.28978204199666,158.53715637499408,158.53715637499408,158.53715637499408,159.37043999999878,159.37043999999878,159.37043999999878,159.37043999999878,160.3698640839939,200006,002,2023-04-07_10h50.27.245,DMS_et_12-36,2022.2.4,None,
8,PRED,12,1.1665150399826,1,images/picture_2.png,images/picture_1.png,0,"[11.733433509789464, 11.733433509789462]",11.733433509789464,11.733433509789462,images/picture_2.png,1,"[-11.733433509789462, 11.733433509789464]",-11.733433509789462,11.733433509789464,images/picture_3.png,2,"[11.733433509789462, -11.733433509789466]",11.733433509789462,-11.733433509789464,0,1,1,1.1665150399826,2.1665150399826003,0.8334849600174001,3.0,1,1.9165150399826,0,4.0,3.0,1,2,0,0,0,0,0,8,8,8,,,,,,,160.3698640839939,160.3698640839939,161.3704139170004,162.2889578749964,162.5368454999989,162.5368454999989,162.5368454999989,163.37018387499847,163.37018387499847,163.37018387499847,163.37018387499847,164.39083662499615,200006,002,2023-04-07_10h50.27.245,DMS_et_12-36,2022.2.4,None,
,,,,,,,,,,,,,,,,,,,,,,,,,,,,,,,,,,,0,0,0,0,,,,,,,,,164.39083662499615,176.4225550419942,,,,,,,,,,,,,200006,002,2023-04-07_10h50.27.245,DMS_et_12-36,2022.2.4,None,
10,UNPRED,12,1.1665150399826,0,images/picture_1.png,images/picture_1.png,0,"[11.733433509789464, 11.733433509789462]",11.733433509789464,11.733433509789462,images/picture_2.png,1,"[11.733433509789462, -11.733433509789466]",11.733433509789462,-11.733433509789464,images/picture_3.png,2,"[-11.733433509789462, 11.733433509789464]",-11.733433509789462,11.733433509789464,0,1,1,1.1665150399826,2.1665150399826003,0.8334849600174001,3.0,1,1.9165150399826,0,4.0,3.0,1,2,1,0,1,0,0,0,0,1,,,,,,,176.4225550419942,176.4225550419942,177.4371489999976,178.3372100839988,178.58964179199393,178.58964179199393,178.58964179199393,179.42352566699992,179.4372456669953,179.4372456669953,179.4372456669953,180.43611324999802,200006,002,2023-04-07_10h50.27.245,DMS_et_12-36,2022.2.4,None,
15,UNPRED,12,1.1665150399826,1,images/picture_2.png,images/picture_1.png,0,"[11.733433509789464, 11.733433509789462]",11.733433509789464,11.733433509789462,images/picture_2.png,1,"[11.733433509789462, -11.733433509789466]",11.733433509789462,-11.733433509789464,images/picture_3.png,2,"[-11.733433509789462, 11.733433509789464]",-11.733433509789462,11.733433509789464,0,1,1,1.1665150399826,2.1665150399826003,0.8334849600174001,3.0,1,1.9165150399826,0,4.0,3.0,1,2,1,0,1,0,0,1,1,6,,,,,,,180.43611324999802,180.43611324999802,181.43732929199905,182.35633983399748,182.6037478340004,182.6037478340004,182.6037478340004,183.4369024169937,183.4369024169937,183.4369024169937,183.4369024169937,184.43631316699611,200006,002,2023-04-07_10h50.27.245,DMS_et_12-36,2022.2.4,None,
12,UNPRED,12,1.1665150399826,0,images/picture_1.png,images/picture_1.png,0,"[-11.733433509789462, 11.733433509789464]",-11.733433509789462,11.733433509789464,images/picture_2.png,1,"[-11.733433509789466, -11.733433509789462]",-11.733433509789464,-11.733433509789462,images/picture_3.png,2,"[11.733433509789462, -11.733433509789466]",11.733433509789462,-11.733433509789464,0,1,1,1.1665150399826,2.1665150399826003,0.8334849600174001,3.0,1,1.9165150399826,0,4.0,3.0,1,2,1,0,1,0,0,2,2,3,,,,,,,184.43631316699611,184.43631316699611,185.43720095900062,186.35648804199445,186.60398920899752,186.60398920899752,186.60398920899752,187.43721458399523,187.43721458399523,187.43721458399523,187.43721458399523,188.4560574999996,200006,002,2023-04-07_10h50.27.245,DMS_et_12-36,2022.2.4,None,
16,UNPRED,12,1.1665150399826,2,images/picture_3.png,images/picture_1.png,0,"[-11.733433509789462, 11.733433509789464]",-11.733433509789462,11.733433509789464,images/picture_2.png,1,"[-11.733433509789466, -11.733433509789462]",-11.733433509789464,-11.733433509789462,images/picture_3.png,2,"[11.733433509789464, 11.733433509789462]",11.733433509789464,11.733433509789462,0,1,1,1.1665150399826,2.1665150399826003,0.8334849600174001,3.0,1,1.9165150399826,0,4.0,3.0,1,2,1,0,1,0,0,3,3,7,,,,,,,188.4560574999996,188.4560574999996,189.47064020899415,190.37050537499454,190.6038804169948,190.6038804169948,190.6038804169948,191.43722116699792,191.43722116699792,191.43722116699792,191.43722116699792,192.43729191699822,200006,002,2023-04-07_10h50.27.245,DMS_et_12-36,2022.2.4,None,
11,UNPRED,12,1.1665150399826,1,images/picture_2.png,images/picture_1.png,0,"[11.733433509789462, -11.733433509789466]",11.733433509789462,-11.733433509789464,images/picture_2.png,1,"[-11.733433509789462, 11.733433509789464]",-11.733433509789462,11.733433509789464,images/picture_3.png,2,"[-11.733433509789466, -11.733433509789462]",-11.733433509789464,-11.733433509789462,0,1,1,1.1665150399826,2.1665150399826003,0.8334849600174001,3.0,1,1.9165150399826,0,4.0,3.0,1,2,1,0,1,0,0,4,4,2,,,,,,,192.43729191699822,192.43729191699822,193.43689799999993,194.3559261249975,194.60399170899473,194.60399170899473,194.60399170899473,195.43722466699546,195.43722466699546,195.43722466699546,195.43722466699546,196.45597095899575,200006,002,2023-04-07_10h50.27.245,DMS_et_12-36,2022.2.4,None,
14,UNPRED,12,1.1665150399826,2,images/picture_3.png,images/picture_1.png,0,"[11.733433509789462, -11.733433509789466]",11.733433509789462,-11.733433509789464,images/picture_2.png,1,"[11.733433509789464, 11.733433509789462]",11.733433509789464,11.733433509789462,images/picture_3.png,2,"[-11.733433509789462, 11.733433509789464]",-11.733433509789462,11.733433509789464,0,1,1,1.1665150399826,2.1665150399826003,0.8334849600174001,3.0,1,1.9165150399826,0,4.0,3.0,1,2,1,0,1,0,0,5,5,5,,,,,,,196.45597095899575,196.45597095899575,197.4706562499996,198.3706758749977,198.60395133400016,198.60395133400016,198.60395133400016,199.4372202089944,199.4372202089944,199.4372202089944,199.4372202089944,200.43642720899516,200006,002,2023-04-07_10h50.27.245,DMS_et_12-36,2022.2.4,None,
17,UNPRED,12,1.1665150399826,1,images/picture_2.png,images/picture_1.png,0,"[11.733433509789462, -11.733433509789466]",11.733433509789462,-11.733433509789464,images/picture_2.png,1,"[-11.733433509789466, -11.733433509789462]",-11.733433509789464,-11.733433509789462,images/picture_3.png,2,"[11.733433509789464, 11.733433509789462]",11.733433509789464,11.733433509789462,0,1,1,1.1665150399826,2.1665150399826003,0.8334849600174001,3.0,1,1.9165150399826,0,4.0,3.0,1,2,1,0,1,0,0,6,6,8,,,,,,,200.43642720899516,200.43642720899516,201.437184041999,202.3567333339961,202.60390941699734,202.60390941699734,202.60390941699734,203.4370625839947,203.4370625839947,203.4370625839947,203.4370625839947,204.43699554199702,200006,002,2023-04-07_10h50.27.245,DMS_et_12-36,2022.2.4,None,
13,UNPRED,12,1.1665150399826,0,images/picture_1.png,images/picture_1.png,0,"[11.733433509789462, -11.733433509789466]",11.733433509789462,-11.733433509789464,images/picture_2.png,1,"[-11.733433509789466, -11.733433509789462]",-11.733433509789464,-11.733433509789462,images/picture_3.png,2,"[-11.733433509789462, 11.733433509789464]",-11.733433509789462,11.733433509789464,0,1,1,1.1665150399826,2.1665150399826003,0.8334849600174001,3.0,1,1.9165150399826,0,4.0,3.0,1,2,1,0,1,0,0,7,7,4,,,,,,,204.43699554199702,204.43699554199702,205.43725674999587,206.356181749994,206.60337270899618,206.60337270899618,206.60337270899618,207.43738633400062,207.43738633400062,207.43738633400062,207.43738633400062,208.45602858399798,200006,002,2023-04-07_10h50.27.245,DMS_et_12-36,2022.2.4,None,
9,UNPRED,12,1.1665150399826,2,images/picture_3.png,images/picture_1.png,0,"[-11.733433509789462, 11.733433509789464]",-11.733433509789462,11.733433509789464,images/picture_2.png,1,"[11.733433509789464, 11.733433509789462]",11.733433509789464,11.733433509789462,images/picture_3.png,2,"[-11.733433509789466, -11.733433509789462]",-11.733433509789464,-11.733433509789462,0,1,1,1.1665150399826,2.1665150399826003,0.8334849600174001,3.0,1,1.9165150399826,0,4.0,3.0,1,2,1,0,1,0,0,8,8,0,,,,,,,208.45602858399798,208.45602858399798,209.47069249999913,210.37075637499947,210.60393104199466,210.60393104199466,210.60393104199466,211.43725079199794,211.43725079199794,211.43725079199794,211.43725079199794,212.46714408399566,200006,002,2023-04-07_10h50.27.245,DMS_et_12-36,2022.2.4,None,
,,,,,,,,,,,,,,,,,,,,,,,,,,,,,,,,,,,1,0,1,0,,,,,,,,,212.46714408399566,224.48920524999994,,,,,,,,,,,,,200006,002,2023-04-07_10h50.27.245,DMS_et_12-36,2022.2.4,None,
22,PRED,12,1.1665150399826,0,images/picture_1.png,images/picture_1.png,0,"[-11.733433509789466, -11.733433509789462]",-11.733433509789464,-11.733433509789462,images/picture_2.png,1,"[11.733433509789464, 11.733433509789462]",11.733433509789464,11.733433509789462,images/picture_3.png,2,"[-11.733433509789462, 11.733433509789464]",-11.733433509789462,11.733433509789464,0,1,1,1.1665150399826,2.1665150399826003,0.8334849600174001,3.0,1,1.9165150399826,0,4.0,3.0,1,2,2,0,2,0,0,0,0,4,,,,,,,224.48920524999994,224.48920524999994,225.5039680839982,226.40416029199696,226.6372414590005,226.6372414590005,226.6372414590005,227.47070191699459,227.47070191699459,227.47070191699459,227.47070191699459,228.47046262499498,200006,002,2023-04-07_10h50.27.245,DMS_et_12-36,2022.2.4,None,
21,PRED,12,1.1665150399826,0,images/picture_1.png,images/picture_1.png,0,"[11.733433509789464, 11.733433509789462]",11.733433509789464,11.733433509789462,images/picture_2.png,1,"[-11.733433509789466, -11.733433509789462]",-11.733433509789464,-11.733433509789462,images/picture_3.png,2,"[11.733433509789462, -11.733433509789466]",11.733433509789462,-11.733433509789464,0,1,1,1.1665150399826,2.1665150399826003,0.8334849600174001,3.0,1,1.9165150399826,0,4.0,3.0,1,2,2,0,2,0,0,1,1,3,,,,,,,228.47046262499498,228.47046262499498,229.47065712499898,230.39009179199638,230.63741354199738,230.63741354199738,230.63741354199738,231.47068637499615,231.47068637499615,231.47068637499615,231.47068637499615,232.4701447089974,200006,002,2023-04-07_10h50.27.245,DMS_et_12-36,2022.2.4,None,
25,PRED,12,1.1665150399826,0,images/picture_1.png,images/picture_1.png,0,"[11.733433509789462, -11.733433509789466]",11.733433509789462,-11.733433509789464,images/picture_2.png,1,"[-11.733433509789462, 11.733433509789464]",-11.733433509789462,11.733433509789464,images/picture_3.png,2,"[-11.733433509789466, -11.733433509789462]",-11.733433509789464,-11.733433509789462,0,1,1,1.1665150399826,2.1665150399826003,0.8334849600174001,3.0,1,1.9165150399826,0,4.0,3.0,1,2,2,0,2,0,0,2,2,7,,,,,,,232.4701447089974,232.4701447089974,233.47070704199723,234.3889902919982,234.63706579199788,234.63706579199788,234.63706579199788,235.47076558399567,235.47076558399567,235.47076558399567,235.47076558399567,236.47015462499985,200006,002,2023-04-07_10h50.27.245,DMS_et_12-36,2022.2.4,None,
26,PRED,12,1.1665150399826,0,images/picture_1.png,images/picture_1.png,0,"[11.733433509789464, 11.733433509789462]",11.733433509789464,11.733433509789462,images/picture_2.png,1,"[11.733433509789462, -11.733433509789466]",11.733433509789462,-11.733433509789464,images/picture_3.png,2,"[-11.733433509789462, 11.733433509789464]",-11.733433509789462,11.733433509789464,0,1,1,1.1665150399826,2.1665150399826003,0.8334849600174001,3.0,1,1.9165150399826,0,4.0,3.0,1,2,2,0,2,0,0,3,3,8,,,,,,,236.47015462499985,236.47015462499985,237.47073145899776,238.3899814999968,238.63746904199797,238.63746904199797,238.63746904199797,239.47074908399372,239.47074908399372,239.47074908399372,239.47074908399372,240.4701654169985,200006,002,2023-04-07_10h50.27.245,DMS_et_12-36,2022.2.4,None,
19,PRED,12,1.1665150399826,0,images/picture_1.png,images/picture_1.png,0,"[11.733433509789464, 11.733433509789462]",11.733433509789464,11.733433509789462,images/picture_2.png,1,"[11.733433509789462, -11.733433509789466]",11.733433509789462,-11.733433509789464,images/picture_3.png,2,"[-11.733433509789466, -11.733433509789462]",-11.733433509789464,-11.733433509789462,0,1,1,1.1665150399826,2.1665150399826003,0.8334849600174001,3.0,1,1.9165150399826,0,4.0,3.0,1,2,2,0,2,0,0,4,4,1,,,,,,,240.4701654169985,240.4701654169985,241.47071779199905,242.39058029199805,242.63745970899618,242.63745970899618,242.63745970899618,243.47090695899533,243.47090695899533,243.47090695899533,243.47090695899533,244.47039204199973,200006,002,2023-04-07_10h50.27.245,DMS_et_12-36,2022.2.4,None,
20,PRED,12,1.1665150399826,0,images/picture_1.png,images/picture_1.png,0,"[11.733433509789462, -11.733433509789466]",11.733433509789462,-11.733433509789464,images/picture_2.png,1,"[-11.733433509789462, 11.733433509789464]",-11.733433509789462,11.733433509789464,images/picture_3.png,2,"[-11.733433509789466, -11.733433509789462]",-11.733433509789464,-11.733433509789462,0,1,1,1.1665150399826,2.1665150399826003,0.8334849600174001,3.0,1,1.9165150399826,0,4.0,3.0,1,2,2,0,2,0,0,5,5,2,,,,,,,244.47039204199973,244.47039204199973,245.47079949999898,246.39066766699398,246.6374128749958,246.6374128749958,246.6374128749958,247.47076399999787,247.47076399999787,247.47076399999787,247.47076399999787,248.47018312499858,200006,002,2023-04-07_10h50.27.245,DMS_et_12-36,2022.2.4,None,
24,PRED,12,1.1665150399826,0,images/picture_1.png,images/picture_1.png,0,"[-11.733433509789462, 11.733433509789464]",-11.733433509789462,11.733433509789464,images/picture_2.png,1,"[11.733433509789464, 11.733433509789462]",11.733433509789464,11.733433509789462,images/picture_3.png,2,"[11.733433509789462, -11.733433509789466]",11.733433509789462,-11.733433509789464,0,1,1,1.1665150399826,2.1665150399826003,0.8334849600174001,3.0,1,1.9165150399826,0,4.0,3.0,1,2,2,0,2,0,0,6,6,6,,,,,,,248.47018312499858,248.47018312499858,249.4707690840005,250.38995249999425,250.63744529199903,250.63744529199903,250.63744529199903,251.47072345899505,251.47072345899505,251.47072345899505,251.47072345899505,252.47057424999366,200006,002,2023-04-07_10h50.27.245,DMS_et_12-36,2022.2.4,None,
23,PRED,12,1.1665150399826,0,images/picture_1.png,images/picture_1.png,0,"[11.733433509789464, 11.733433509789462]",11.733433509789464,11.733433509789462,images/picture_2.png,1,"[11.733433509789462, -11.733433509789466]",11.733433509789462,-11.733433509789464,images/picture_3.png,2,"[-11.733433509789466, -11.733433509789462]",-11.733433509789464,-11.733433509789462,0,1,1,1.1665150399826,2.1665150399826003,0.8334849600174001,3.0,1,1.9165150399826,0,4.0,3.0,1,2,2,0,2,0,0,7,7,5,,,,,,,252.47057424999366,252.47057424999366,253.47075983399554,254.38986258399382,254.63728820899996,254.63728820899996,254.63728820899996,255.47060495899495,255.47060495899495,255.47060495899495,255.47060495899495,256.47037587499653,200006,002,2023-04-07_10h50.27.245,DMS_et_12-36,2022.2.4,None,
18,PRED,12,1.1665150399826,0,images/picture_1.png,images/picture_1.png,0,"[11.733433509789462, -11.733433509789466]",11.733433509789462,-11.733433509789464,images/picture_2.png,1,"[-11.733433509789462, 11.733433509789464]",-11.733433509789462,11.733433509789464,images/picture_3.png,2,"[-11.733433509789466, -11.733433509789462]",-11.733433509789464,-11.733433509789462,0,1,1,1.1665150399826,2.1665150399826003,0.8334849600174001,3.0,1,1.9165150399826,0,4.0,3.0,1,2,2,0,2,0,0,8,8,0,,,,,,,256.47037587499653,256.47037587499653,257.4707638339969,258.39062437499524,258.63746462499694,258.63746462499694,258.63746462499694,259.47074733399495,259.47074733399495,259.47074733399495,259.47074733399495,260.5131999169971,200006,002,2023-04-07_10h50.27.245,DMS_et_12-36,2022.2.4,None,
,,,,,,,,,,,,,,,,,,,,,,,,,,,,,,,,,,,2,0,2,0,,,,,,,,,260.5131999169971,272.5383751249974,,,,,,,,,,,,,200006,002,2023-04-07_10h50.27.245,DMS_et_12-36,2022.2.4,None,
31,UNPRED,12,1.1665150399826,1,images/picture_2.png,images/picture_1.png,0,"[-11.733433509789462, 11.733433509789464]",-11.733433509789462,11.733433509789464,images/picture_2.png,1,"[11.733433509789464, 11.733433509789462]",11.733433509789464,11.733433509789462,images/picture_3.png,2,"[11.733433509789462, -11.733433509789466]",11.733433509789462,-11.733433509789464,0,1,1,1.1665150399826,2.1665150399826003,0.8334849600174001,3.0,1,1.9165150399826,0,4.0,3.0,1,2,3,0,3,0,0,0,0,4,,,,,,,272.5383751249974,272.5383751249974,273.53750091699476,274.45654091699544,274.7042030839948,274.7042030839948,274.7042030839948,275.53728687499824,275.53728687499824,275.53728687499824,275.53728687499824,276.5366913339967,200006,002,2023-04-07_10h50.27.245,DMS_et_12-36,2022.2.4,None,
27,UNPRED,12,1.1665150399826,0,images/picture_1.png,images/picture_1.png,0,"[11.733433509789464, 11.733433509789462]",11.733433509789464,11.733433509789462,images/picture_2.png,1,"[-11.733433509789462, 11.733433509789464]",-11.733433509789462,11.733433509789464,images/picture_3.png,2,"[-11.733433509789466, -11.733433509789462]",-11.733433509789464,-11.733433509789462,0,1,1,1.1665150399826,2.1665150399826003,0.8334849600174001,3.0,1,1.9165150399826,0,4.0,3.0,1,2,3,0,3,0,0,1,1,0,,,,,,,276.5366913339967,276.5366913339967,277.5376552499947,278.4567601249946,278.7042331249977,278.7042331249977,278.7042331249977,279.53772654199565,279.53772654199565,279.53772654199565,279.53772654199565,280.5561132090006,200006,002,2023-04-07_10h50.27.245,DMS_et_12-36,2022.2.4,None,
30,UNPRED,12,1.1665150399826,2,images/picture_3.png,images/picture_1.png,0,"[11.733433509789462, -11.733433509789466]",11.733433509789462,-11.733433509789464,images/picture_2.png,1,"[-11.733433509789466, -11.733433509789462]",-11.733433509789464,-11.733433509789462,images/picture_3.png,2,"[11.733433509789464, 11.733433509789462]",11.733433509789464,11.733433509789462,0,1,1,1.1665150399826,2.1665150399826003,0.8334849600174001,3.0,1,1.9165150399826,0,4.0,3.0,1,2,3,0,3,0,0,2,2,3,,,,,,,280.5561132090006,280.5561132090006,281.5709155000004,282.4709621669972,282.7043138749941,282.7043138749941,282.7043138749941,283.53765674999886,283.53765674999886,283.53765674999886,283.53765674999886,284.53764262500044,200006,002,2023-04-07_10h50.27.245,DMS_et_12-36,2022.2.4,None,
29,UNPRED,12,1.1665150399826,1,images/picture_2.png,images/picture_1.png,0,"[-11.733433509789466, -11.733433509789462]",-11.733433509789464,-11.733433509789462,images/picture_2.png,1,"[-11.733433509789462, 11.733433509789464]",-11.733433509789462,11.733433509789464,images/picture_3.png,2,"[11.733433509789464, 11.733433509789462]",11.733433509789464,11.733433509789462,0,1,1,1.1665150399826,2.1665150399826003,0.8334849600174001,3.0,1,1.9165150399826,0,4.0,3.0,1,2,3,0,3,0,0,3,3,2,,,,,,,284.53764262500044,284.53764262500044,285.53727779199835,286.45646658399346,286.70426987499377,286.70426987499377,286.70426987499377,287.53749249999964,287.53749249999964,287.53749249999964,287.53749249999964,288.5370104169997,200006,002,2023-04-07_10h50.27.245,DMS_et_12-36,2022.2.4,None,
34,UNPRED,12,1.1665150399826,0,images/picture_1.png,images/picture_1.png,0,"[11.733433509789462, -11.733433509789466]",11.733433509789462,-11.733433509789464,images/picture_2.png,1,"[-11.733433509789462, 11.733433509789464]",-11.733433509789462,11.733433509789464,images/picture_3.png,2,"[11.733433509789464, 11.733433509789462]",11.733433509789464,11.733433509789462,0,1,1,1.1665150399826,2.1665150399826003,0.8334849600174001,3.0,1,1.9165150399826,0,4.0,3.0,1,2,3,0,3,0,0,4,4,7,,,,,,,288.5370104169997,288.5370104169997,289.5375046669942,290.45673429199815,290.7042607919939,290.7042607919939,290.7042607919939,291.5376987499985,291.5376987499985,291.5376987499985,291.5376987499985,292.53704554199794,200006,002,2023-04-07_10h50.27.245,DMS_et_12-36,2022.2.4,None,
33,UNPRED,12,1.1665150399826,1,images/picture_2.png,images/picture_1.png,0,"[-11.733433509789462, 11.733433509789464]",-11.733433509789462,11.733433509789464,images/picture_2.png,1,"[-11.733433509789466, -11.733433509789462]",-11.733433509789464,-11.733433509789462,images/picture_3.png,2,"[11.733433509789464, 11.733433509789462]",11.733433509789464,11.733433509789462,0,1,1,1.1665150399826,2.1665150399826003,0.8334849600174001,3.0,1,1.9165150399826,0,4.0,3.0,1,2,3,0,3,0,0,5,5,6,,,,,,,292.53704554199794,292.53704554199794,293.5374940420006,294.4567530419954,294.7042659590006,294.7042659590006,294.7042659590006,295.5373802089962,295.5373802089962,295.5373802089962,295.5373802089962,296.55626729199867,200006,002,2023-04-07_10h50.27.245,DMS_et_12-36,2022.2.4,None,
32,UNPRED,12,1.1665150399826,2,images/picture_3.png,images/picture_1.png,0,"[11.733433509789464, 11.733433509789462]",11.733433509789464,11.733433509789462,images/picture_2.png,1,"[11.733433509789462, -11.733433509789466]",11.733433509789462,-11.733433509789464,images/picture_3.png,2,"[-11.733433509789466, -11.733433509789462]",-11.733433509789464,-11.733433509789462,0,1,1,1.1665150399826,2.1665150399826003,0.8334849600174001,3.0,1,1.9165150399826,0,4.0,3.0,1,2,3,0,3,0,0,6,6,5,,,,,,,296.55626729199867,296.55626729199867,297.57096512499993,298.4709182919978,298.70449979199475,298.70449979199475,298.70449979199475,299.5376522499937,299.5376522499937,299.5376522499937,299.5376522499937,300.5381966249988,200006,002,2023-04-07_10h50.27.245,DMS_et_12-36,2022.2.4,None,
28,UNPRED,12,1.1665150399826,1,images/picture_2.png,images/picture_1.png,0,"[-11.733433509789466, -11.733433509789462]",-11.733433509789464,-11.733433509789462,images/picture_2.png,1,"[11.733433509789464, 11.733433509789462]",11.733433509789464,11.733433509789462,images/picture_3.png,2,"[11.733433509789462, -11.733433509789466]",11.733433509789462,-11.733433509789464,0,1,1,1.1665150399826,2.1665150399826003,0.8334849600174001,3.0,1,1.9165150399826,0,4.0,3.0,1,2,3,0,3,0,0,7,7,1,,,,,,,300.5381966249988,300.5381966249988,301.5377232499959,302.45671929200034,302.7042429590001,302.7042429590001,302.7042429590001,303.53768241699436,303.53768241699436,303.53768241699436,303.53768241699436,304.55710924999585,200006,002,2023-04-07_10h50.27.245,DMS_et_12-36,2022.2.4,None,
35,UNPRED,12,1.1665150399826,2,images/picture_3.png,images/picture_1.png,0,"[11.733433509789464, 11.733433509789462]",11.733433509789464,11.733433509789462,images/picture_2.png,1,"[11.733433509789462, -11.733433509789466]",11.733433509789462,-11.733433509789464,images/picture_3.png,2,"[-11.733433509789462, 11.733433509789464]",-11.733433509789462,11.733433509789464,0,1,1,1.1665150399826,2.1665150399826003,0.8334849600174001,3.0,1,1.9165150399826,0,4.0,3.0,1,2,3,0,3,0,0,8,8,8,,,,,,,304.55710924999585,304.55710924999585,305.5709686669943,306.47076008399745,306.70398737499636,306.70398737499636,306.70398737499636,307.53770362499927,307.53770362499927,307.53770362499927,307.53770362499927,308.58829062499717,200006,002,2023-04-07_10h50.27.245,DMS_et_12-36,2022.2.4,None,
,,,,,,,,,,,,,,,,,,,,,,,,,,,,,,,,,,,3,0,3,0,,,,,,,,,308.58829062499717,320.6038213749998,,,,,,,,,,,,,200006,002,2023-04-07_10h50.27.245,DMS_et_12-36,2022.2.4,None,
37,PRED,12,1.1665150399826,0,images/picture_1.png,images/picture_1.png,0,"[11.733433509789462, -11.733433509789466]",11.733433509789462,-11.733433509789464,images/picture_2.png,1,"[-11.733433509789462, 11.733433509789464]",-11.733433509789462,11.733433509789464,images/picture_3.png,2,"[11.733433509789464, 11.733433509789462]",11.733433509789464,11.733433509789462,0,1,1,1.1665150399826,2.1665150399826003,0.8334849600174001,3.0,1,1.9165150399826,0,4.0,3.0,1,2,4,0,4,0,0,0,0,1,,,,,,,320.6038213749998,320.6038213749998,321.6044649999967,322.52338437499566,322.7710090420005,322.7710090420005,322.7710090420005,323.60440187499626,323.60440187499626,323.60440187499626,323.60440187499626,324.60378458399646,200006,002,2023-04-07_10h50.27.245,DMS_et_12-36,2022.2.4,None,
36,PRED,12,1.1665150399826,0,images/picture_1.png,images/picture_1.png,0,"[11.733433509789462, -11.733433509789466]",11.733433509789462,-11.733433509789464,images/picture_2.png,1,"[-11.733433509789462, 11.733433509789464]",-11.733433509789462,11.733433509789464,images/picture_3.png,2,"[-11.733433509789466, -11.733433509789462]",-11.733433509789464,-11.733433509789462,0,1,1,1.1665150399826,2.1665150399826003,0.8334849600174001,3.0,1,1.9165150399826,0,4.0,3.0,1,2,4,0,4,0,0,1,1,0,,,,,,,324.60378458399646,324.60378458399646,325.604421541997,326.52278908399603,326.77081620899844,326.77081620899844,326.77081620899844,327.6044751669979,327.6044751669979,327.6044751669979,327.6044751669979,328.6038688749977,200006,002,2023-04-07_10h50.27.245,DMS_et_12-36,2022.2.4,None,
39,PRED,12,1.1665150399826,0,images/picture_1.png,images/picture_1.png,0,"[11.733433509789462, -11.733433509789466]",11.733433509789462,-11.733433509789464,images/picture_2.png,1,"[11.733433509789464, 11.733433509789462]",11.733433509789464,11.733433509789462,images/picture_3.png,2,"[-11.733433509789466, -11.733433509789462]",-11.733433509789464,-11.733433509789462,0,1,1,1.1665150399826,2.1665150399826003,0.8334849600174001,3.0,1,1.9165150399826,0,4.0,3.0,1,2,4,0,4,0,0,2,2,3,,,,,,,328.6038688749977,328.6038688749977,329.6044634589998,330.52340095899854,330.7711515419942,330.7711515419942,330.7711515419942,331.60443116699753,331.60443116699753,331.60443116699753,331.60443116699753,332.6039031249966,200006,002,2023-04-07_10h50.27.245,DMS_et_12-36,2022.2.4,None,
40,PRED,12,1.1665150399826,0,images/picture_1.png,images/picture_1.png,0,"[-11.733433509789462, 11.733433509789464]",-11.733433509789462,11.733433509789464,images/picture_2.png,1,"[11.733433509789464, 11.733433509789462]",11.733433509789464,11.733433509789462,images/picture_3.png,2,"[-11.733433509789466, -11.733433509789462]",-11.733433509789464,-11.733433509789462,0,1,1,1.1665150399826,2.1665150399826003,0.8334849600174001,3.0,1,1.9165150399826,0,4.0,3.0,1,2,4,0,4,0,0,3,3,4,,,,,,,332.6039031249966,332.6039031249966,333.60449170899665,334.5236901249955,334.7710251669996,334.7710251669996,334.7710251669996,335.6044901669957,335.6044901669957,335.6044901669957,335.6044901669957,336.6040685419939,200006,002,2023-04-07_10h50.27.245,DMS_et_12-36,2022.2.4,None,
44,PRED,12,1.1665150399826,0,images/picture_1.png,images/picture_1.png,0,"[11.733433509789462, -11.733433509789466]",11.733433509789462,-11.733433509789464,images/picture_2.png,1,"[-11.733433509789466, -11.733433509789462]",-11.733433509789464,-11.733433509789462,images/picture_3.png,2,"[11.733433509789464, 11.733433509789462]",11.733433509789464,11.733433509789462,0,1,1,1.1665150399826,2.1665150399826003,0.8334849600174001,3.0,1,1.9165150399826,0,4.0,3.0,1,2,4,0,4,0,0,4,4,8,,,,,,,336.6040685419939,336.6040685419939,337.60426429200015,338.5242628749984,338.7712152499953,338.7712152499953,338.7712152499953,339.6044487919935,339.6044487919935,339.6044487919935,339.6044487919935,340.6039470420001,200006,002,2023-04-07_10h50.27.245,DMS_et_12-36,2022.2.4,None,
41,PRED,12,1.1665150399826,0,images/picture_1.png,images/picture_1.png,0,"[-11.733433509789466, -11.733433509789462]",-11.733433509789464,-11.733433509789462,images/picture_2.png,1,"[11.733433509789464, 11.733433509789462]",11.733433509789464,11.733433509789462,images/picture_3.png,2,"[11.733433509789462, -11.733433509789466]",11.733433509789462,-11.733433509789464,0,1,1,1.1665150399826,2.1665150399826003,0.8334849600174001,3.0,1,1.9165150399826,0,4.0,3.0,1,2,4,0,4,0,0,5,5,5,,,,,,,340.6039470420001,340.6039470420001,341.60449033400073,342.5235000839966,342.7711738750004,342.7711738750004,342.7711738750004,343.6044551249943,343.6044551249943,343.6044551249943,343.6044551249943,344.6041395840002,200006,002,2023-04-07_10h50.27.245,DMS_et_12-36,2022.2.4,None,
42,PRED,12,1.1665150399826,0,images/picture_1.png,images/picture_1.png,0,"[11.733433509789464, 11.733433509789462]",11.733433509789464,11.733433509789462,images/picture_2.png,1,"[11.733433509789462, -11.733433509789466]",11.733433509789462,-11.733433509789464,images/picture_3.png,2,"[-11.733433509789466, -11.733433509789462]",-11.733433509789464,-11.733433509789462,0,1,1,1.1665150399826,2.1665150399826003,0.8334849600174001,3.0,1,1.9165150399826,0,4.0,3.0,1,2,4,0,4,0,0,6,6,6,,,,,,,344.6041395840002,344.6041395840002,345.60450574999413,346.52370916699874,346.7709691249984,346.7709691249984,346.7709691249984,347.6042655419951,347.6042655419951,347.6042655419951,347.6042655419951,348.60393949999707,200006,002,2023-04-07_10h50.27.245,DMS_et_12-36,2022.2.4,None,
43,PRED,12,1.1665150399826,0,images/picture_1.png,images/picture_1.png,0,"[11.733433509789464, 11.733433509789462]",11.733433509789464,11.733433509789462,images/picture_2.png,1,"[-11.733433509789462, 11.733433509789464]",-11.733433509789462,11.733433509789464,images/picture_3.png,2,"[-11.733433509789466, -11.733433509789462]",-11.733433509789464,-11.733433509789462,0,1,1,1.1665150399826,2.1665150399826003,0.8334849600174001,3.0,1,1.9165150399826,0,4.0,3.0,1,2,4,0,4,0,0,7,7,7,,,,,,,348.60393949999707,348.60393949999707,349.6044411249968,350.523508667,350.77124499999627,350.77124499999627,350.77124499999627,351.60445391699614,351.60445391699614,351.60445391699614,351.60445391699614,352.60403591700015,200006,002,2023-04-07_10h50.27.245,DMS_et_12-36,2022.2.4,None,
38,PRED,12,1.1665150399826,0,images/picture_1.png,images/picture_1.png,0,"[-11.733433509789466, -11.733433509789462]",-11.733433509789464,-11.733433509789462,images/picture_2.png,1,"[11.733433509789464, 11.733433509789462]",11.733433509789464,11.733433509789462,images/picture_3.png,2,"[11.733433509789462, -11.733433509789466]",11.733433509789462,-11.733433509789464,0,1,1,1.1665150399826,2.1665150399826003,0.8334849600174001,3.0,1,1.9165150399826,0,4.0,3.0,1,2,4,0,4,0,0,8,8,2,,,,,,,352.60403591700015,352.60403591700015,353.6044642499983,354.5238004589992,354.77115808399685,354.77115808399685,354.77115808399685,355.60453195899754,355.60453195899754,355.60453195899754,355.60453195899754,356.7146426670006,200006,002,2023-04-07_10h50.27.245,DMS_et_12-36,2022.2.4,None,
,,,,,,,,,,,,,,,,,,,,,,,,,,,,,,,,,,,4,0,4,0,,,,,,,,,356.7146426670006,368.7391843749938,,,,,,,,,,,,,200006,002,2023-04-07_10h50.27.245,DMS_et_12-36,2022.2.4,None,
53,UNPRED,12,1.1665150399826,1,images/picture_2.png,images/picture_1.png,0,"[11.733433509789464, 11.733433509789462]",11.733433509789464,11.733433509789462,images/picture_2.png,1,"[-11.733433509789462, 11.733433509789464]",-11.733433509789462,11.733433509789464,images/picture_3.png,2,"[11.733433509789462, -11.733433509789466]",11.733433509789462,-11.733433509789464,0,1,1,1.1665150399826,2.1665150399826003,0.8334849600174001,3.0,1,1.9165150399826,0,4.0,3.0,1,2,5,0,5,0,0,0,0,8,,,,,,,368.7391843749938,368.7391843749938,369.7379152919966,370.671199958997,370.904572333995,370.904572333995,370.904572333995,371.7379150839988,371.7379150839988,371.7379150839988,371.7379150839988,372.7566098749958,200006,002,2023-04-07_10h50.27.245,DMS_et_12-36,2022.2.4,None,
51,UNPRED,12,1.1665150399826,2,images/picture_3.png,images/picture_1.png,0,"[11.733433509789464, 11.733433509789462]",11.733433509789464,11.733433509789462,images/picture_2.png,1,"[-11.733433509789462, 11.733433509789464]",-11.733433509789462,11.733433509789464,images/picture_3.png,2,"[11.733433509789462, -11.733433509789466]",11.733433509789462,-11.733433509789464,0,1,1,1.1665150399826,2.1665150399826003,0.8334849600174001,3.0,1,1.9165150399826,0,4.0,3.0,1,2,5,0,5,0,0,1,1,6,,,,,,,372.7566098749958,372.7566098749958,373.77123862499866,374.6711955840001,374.90473087499413,374.90473087499413,374.90473087499413,375.73788349999813,375.73788349999813,375.73788349999813,375.73788349999813,376.75651362499775,200006,002,2023-04-07_10h50.27.245,DMS_et_12-36,2022.2.4,None,
50,UNPRED,12,1.1665150399826,2,images/picture_3.png,images/picture_1.png,0,"[11.733433509789464, 11.733433509789462]",11.733433509789464,11.733433509789462,images/picture_2.png,1,"[-11.733433509789466, -11.733433509789462]",-11.733433509789464,-11.733433509789462,images/picture_3.png,2,"[11.733433509789462, -11.733433509789466]",11.733433509789462,-11.733433509789464,0,1,1,1.1665150399826,2.1665150399826003,0.8334849600174001,3.0,1,1.9165150399826,0,4.0,3.0,1,2,5,0,5,0,0,2,2,5,,,,,,,376.75651362499775,376.75651362499775,377.7711748750007,378.67107104199386,378.90450054199755,378.90450054199755,378.90450054199755,379.73795312499715,379.73795312499715,379.73795312499715,379.73795312499715,380.73762008399353,200006,002,2023-04-07_10h50.27.245,DMS_et_12-36,2022.2.4,None,
49,UNPRED,12,1.1665150399826,0,images/picture_1.png,images/picture_1.png,0,"[-11.733433509789466, -11.733433509789462]",-11.733433509789464,-11.733433509789462,images/picture_2.png,1,"[11.733433509789462, -11.733433509789466]",11.733433509789462,-11.733433509789464,images/picture_3.png,2,"[11.733433509789464, 11.733433509789462]",11.733433509789464,11.733433509789462,0,1,1,1.1665150399826,2.1665150399826003,0.8334849600174001,3.0,1,1.9165150399826,0,4.0,3.0,1,2,5,0,5,0,0,3,3,4,,,,,,,380.73762008399353,380.73762008399353,381.7379543749994,382.6572678339944,382.90474783399986,382.90474783399986,382.90474783399986,383.7379875839979,383.7379875839979,383.7379875839979,383.7379875839979,384.7368080419983,200006,002,2023-04-07_10h50.27.245,DMS_et_12-36,2022.2.4,None,
48,UNPRED,12,1.1665150399826,1,images/picture_2.png,images/picture_1.png,0,"[11.733433509789464, 11.733433509789462]",11.733433509789464,11.733433509789462,images/picture_2.png,1,"[-11.733433509789462, 11.733433509789464]",-11.733433509789462,11.733433509789464,images/picture_3.png,2,"[-11.733433509789466, -11.733433509789462]",-11.733433509789464,-11.733433509789462,0,1,1,1.1665150399826,2.1665150399826003,0.8334849600174001,3.0,1,1.9165150399826,0,4.0,3.0,1,2,5,0,5,0,0,4,4,3,,,,,,,384.7368080419983,384.7368080419983,385.7379923339977,386.6573535839998,386.9044776249939,386.9044776249939,386.9044776249939,387.73783374999766,387.73783374999766,387.73783374999766,387.73783374999766,388.73771366699657,200006,002,2023-04-07_10h50.27.245,DMS_et_12-36,2022.2.4,None,
45,UNPRED,12,1.1665150399826,0,images/picture_1.png,images/picture_1.png,0,"[-11.733433509789462, 11.733433509789464]",-11.733433509789462,11.733433509789464,images/picture_2.png,1,"[-11.733433509789466, -11.733433509789462]",-11.733433509789464,-11.733433509789462,images/picture_3.png,2,"[11.733433509789462, -11.733433509789466]",11.733433509789462,-11.733433509789464,0,1,1,1.1665150399826,2.1665150399826003,0.8334849600174001,3.0,1,1.9165150399826,0,4.0,3.0,1,2,5,0,5,0,0,5,5,0,,,,,,,388.73771366699657,388.73771366699657,389.7379669169968,390.65714925000066,390.90469837499404,390.90469837499404,390.90469837499404,391.73799408399645,391.73799408399645,391.73799408399645,391.73799408399645,392.7375924999942,200006,002,2023-04-07_10h50.27.245,DMS_et_12-36,2022.2.4,None,
47,UNPRED,12,1.1665150399826,0,images/picture_1.png,images/picture_1.png,0,"[11.733433509789462, -11.733433509789466]",11.733433509789462,-11.733433509789464,images/picture_2.png,1,"[-11.733433509789462, 11.733433509789464]",-11.733433509789462,11.733433509789464,images/picture_3.png,2,"[-11.733433509789466, -11.733433509789462]",-11.733433509789464,-11.733433509789462,0,1,1,1.1665150399826,2.1665150399826003,0.8334849600174001,3.0,1,1.9165150399826,0,4.0,3.0,1,2,5,0,5,0,0,6,6,2,,,,,,,392.7375924999942,392.7375924999942,393.7380801670006,394.65786020899395,394.9048397089937,394.9048397089937,394.9048397089937,395.73793562499486,395.73793562499486,395.73793562499486,395.73793562499486,396.7566702499971,200006,002,2023-04-07_10h50.27.245,DMS_et_12-36,2022.2.4,None,
52,UNPRED,12,1.1665150399826,2,images/picture_3.png,images/picture_1.png,0,"[11.733433509789464, 11.733433509789462]",11.733433509789464,11.733433509789462,images/picture_2.png,1,"[-11.733433509789462, 11.733433509789464]",-11.733433509789462,11.733433509789464,images/picture_3.png,2,"[-11.733433509789466, -11.733433509789462]",-11.733433509789464,-11.733433509789462,0,1,1,1.1665150399826,2.1665150399826003,0.8334849600174001,3.0,1,1.9165150399826,0,4.0,3.0,1,2,5,0,5,0,0,7,7,7,,,,,,,396.7566702499971,396.7566702499971,397.77138070899673,398.67110970899375,398.90446820899524,398.90446820899524,398.90446820899524,399.73815970899886,399.73815970899886,399.73815970899886,399.73815970899886,400.73736316699797,200006,002,2023-04-07_10h50.27.245,DMS_et_12-36,2022.2.4,None,
46,UNPRED,12,1.1665150399826,1,images/picture_2.png,images/picture_1.png,0,"[11.733433509789462, -11.733433509789466]",11.733433509789462,-11.733433509789464,images/picture_2.png,1,"[-11.733433509789466, -11.733433509789462]",-11.733433509789464,-11.733433509789462,images/picture_3.png,2,"[11.733433509789464, 11.733433509789462]",11.733433509789464,11.733433509789462,0,1,1,1.1665150399826,2.1665150399826003,0.8334849600174001,3.0,1,1.9165150399826,0,4.0,3.0,1,2,5,0,5,0,0,8,8,1,,,,,,,400.73736316699797,400.73736316699797,401.73800020899944,402.657234374994,402.90472662499815,402.90472662499815,402.90472662499815,403.73812691700005,403.73812691700005,403.73812691700005,403.73812691700005,404.80869137499394,200006,002,2023-04-07_10h50.27.245,DMS_et_12-36,2022.2.4,None,
,,,,,,,,,,,,,,,,,,,,,,,,,,,,,,,,,,,5,0,5,0,,,,,,,,,404.80869137499394,416.8271908749957,,,,,,,,,,,,,200006,002,2023-04-07_10h50.27.245,DMS_et_12-36,2022.2.4,None,
54,PRED,12,1.1665150399826,1,images/picture_2.png,images/picture_1.png,0,"[-11.733433509789466, -11.733433509789462]",-11.733433509789464,-11.733433509789462,images/picture_2.png,1,"[11.733433509789462, -11.733433509789466]",11.733433509789462,-11.733433509789464,images/picture_3.png,2,"[11.733433509789464, 11.733433509789462]",11.733433509789464,11.733433509789462,0,1,1,1.1665150399826,2.1665150399826003,0.8334849600174001,3.0,1,1.9165150399826,0,4.0,3.0,1,2,6,0,6,0,0,0,0,0,,,,,,,416.8271908749957,416.8271908749957,417.8380283749939,418.7569083749986,418.99000366700056,418.99000366700056,418.99000366700056,419.8241832919957,419.8381708339948,419.8381708339948,419.8381708339948,420.8375145839964,200006,002,2023-04-07_10h50.27.245,DMS_et_12-36,2022.2.4,None,
62,PRED,12,1.1665150399826,1,images/picture_2.png,images/picture_1.png,0,"[-11.733433509789462, 11.733433509789464]",-11.733433509789462,11.733433509789464,images/picture_2.png,1,"[-11.733433509789466, -11.733433509789462]",-11.733433509789464,-11.733433509789462,images/picture_3.png,2,"[11.733433509789464, 11.733433509789462]",11.733433509789464,11.733433509789462,0,1,1,1.1665150399826,2.1665150399826003,0.8334849600174001,3.0,1,1.9165150399826,0,4.0,3.0,1,2,6,0,6,0,0,1,1,8,,,,,,,420.8375145839964,420.8375145839964,421.83790370899806,422.7572836249965,423.0047414169967,423.0047414169967,423.0047414169967,423.8381518749957,423.8381518749957,423.8381518749957,423.8381518749957,424.8384631669978,200006,002,2023-04-07_10h50.27.245,DMS_et_12-36,2022.2.4,None,
55,PRED,12,1.1665150399826,1,images/picture_2.png,images/picture_1.png,0,"[-11.733433509789462, 11.733433509789464]",-11.733433509789462,11.733433509789464,images/picture_2.png,1,"[11.733433509789462, -11.733433509789466]",11.733433509789462,-11.733433509789464,images/picture_3.png,2,"[11.733433509789464, 11.733433509789462]",11.733433509789464,11.733433509789462,0,1,1,1.1665150399826,2.1665150399826003,0.8334849600174001,3.0,1,1.9165150399826,0,4.0,3.0,1,2,6,0,6,0,0,2,2,1,,,,,,,424.8384631669978,424.8384631669978,425.8381673749973,426.75727808399824,427.0047641249985,427.0047641249985,427.0047641249985,427.83792937499675,427.83792937499675,427.83792937499675,427.83792937499675,428.8378402919989,200006,002,2023-04-07_10h50.27.245,DMS_et_12-36,2022.2.4,None,
56,PRED,12,1.1665150399826,1,images/picture_2.png,images/picture_1.png,0,"[11.733433509789464, 11.733433509789462]",11.733433509789464,11.733433509789462,images/picture_2.png,1,"[-11.733433509789466, -11.733433509789462]",-11.733433509789464,-11.733433509789462,images/picture_3.png,2,"[11.733433509789462, -11.733433509789466]",11.733433509789462,-11.733433509789464,0,1,1,1.1665150399826,2.1665150399826003,0.8334849600174001,3.0,1,1.9165150399826,0,4.0,3.0,1,2,6,0,6,0,0,3,3,2,,,,,,,428.8378402919989,428.8378402919989,429.8379724999977,430.75732016699476,431.00480954199884,431.00480954199884,431.00480954199884,431.83802674999606,431.83802674999606,431.83802674999606,431.83802674999606,432.8380794170007,200006,002,2023-04-07_10h50.27.245,DMS_et_12-36,2022.2.4,None,
59,PRED,12,1.1665150399826,1,images/picture_2.png,images/picture_1.png,0,"[-11.733433509789462, 11.733433509789464]",-11.733433509789462,11.733433509789464,images/picture_2.png,1,"[-11.733433509789466, -11.733433509789462]",-11.733433509789464,-11.733433509789462,images/picture_3.png,2,"[11.733433509789464, 11.733433509789462]",11.733433509789464,11.733433509789462,0,1,1,1.1665150399826,2.1665150399826003,0.8334849600174001,3.0,1,1.9165150399826,0,4.0,3.0,1,2,6,0,6,0,0,4,4,5,,,,,,,432.8380794170007,432.8380794170007,433.8379882089939,434.75757970899576,435.00477570899966,435.00477570899966,435.00477570899966,435.83828083399567,435.83828083399567,435.83828083399567,435.83828083399567,436.83832133399846,200006,002,2023-04-07_10h50.27.245,DMS_et_12-36,2022.2.4,None,
58,PRED,12,1.1665150399826,1,images/picture_2.png,images/picture_1.png,0,"[11.733433509789462, -11.733433509789466]",11.733433509789462,-11.733433509789464,images/picture_2.png,1,"[11.733433509789464, 11.733433509789462]",11.733433509789464,11.733433509789462,images/picture_3.png,2,"[-11.733433509789462, 11.733433509789464]",-11.733433509789462,11.733433509789464,0,1,1,1.1665150399826,2.1665150399826003,0.8334849600174001,3.0,1,1.9165150399826,0,4.0,3.0,1,2,6,0,6,0,0,5,5,4,,,,,,,436.83832133399846,436.83832133399846,437.8382247499976,438.75731033399643,439.0045994999964,439.0045994999964,439.0045994999964,439.8379824999938,439.8379824999938,439.8379824999938,439.8379824999938,440.83776016699994,200006,002,2023-04-07_10h50.27.245,DMS_et_12-36,2022.2.4,None,
57,PRED,12,1.1665150399826,1,images/picture_2.png,images/picture_1.png,0,"[-11.733433509789462, 11.733433509789464]",-11.733433509789462,11.733433509789464,images/picture_2.png,1,"[-11.733433509789466, -11.733433509789462]",-11.733433509789464,-11.733433509789462,images/picture_3.png,2,"[11.733433509789464, 11.733433509789462]",11.733433509789464,11.733433509789462,0,1,1,1.1665150399826,2.1665150399826003,0.8334849600174001,3.0,1,1.9165150399826,0,4.0,3.0,1,2,6,0,6,0,0,6,6,3,,,,,,,440.83776016699994,440.83776016699994,441.8382169999968,442.7576020839988,443.0047479999994,443.0047479999994,443.0047479999994,443.8382017919939,443.8382017919939,443.8382017919939,443.8382017919939,444.8381706250002,200006,002,2023-04-07_10h50.27.245,DMS_et_12-36,2022.2.4,None,
61,PRED,12,1.1665150399826,1,images/picture_2.png,images/picture_1.png,0,"[-11.733433509789462, 11.733433509789464]",-11.733433509789462,11.733433509789464,images/picture_2.png,1,"[11.733433509789462, -11.733433509789466]",11.733433509789462,-11.733433509789464,images/picture_3.png,2,"[11.733433509789464, 11.733433509789462]",11.733433509789464,11.733433509789462,0,1,1,1.1665150399826,2.1665150399826003,0.8334849600174001,3.0,1,1.9165150399826,0,4.0,3.0,1,2,6,0,6,0,0,7,7,7,,,,,,,444.8381706250002,444.8381706250002,445.8381450839952,446.75834920899797,447.00490533399716,447.00490533399716,447.00490533399716,447.8382010839996,447.8382010839996,447.8382010839996,447.8382010839996,448.83739604199945,200006,002,2023-04-07_10h50.27.245,DMS_et_12-36,2022.2.4,None,
60,PRED,12,1.1665150399826,1,images/picture_2.png,images/picture_1.png,0,"[11.733433509789464, 11.733433509789462]",11.733433509789464,11.733433509789462,images/picture_2.png,1,"[-11.733433509789466, -11.733433509789462]",-11.733433509789464,-11.733433509789462,images/picture_3.png,2,"[11.733433509789462, -11.733433509789466]",11.733433509789462,-11.733433509789464,0,1,1,1.1665150399826,2.1665150399826003,0.8334849600174001,3.0,1,1.9165150399826,0,4.0,3.0,1,2,6,0,6,0,0,8,8,6,,,,,,,448.83739604199945,448.83739604199945,449.83790666699497,450.7573884589947,451.0047611669943,451.0047611669943,451.0047611669943,451.8381678339938,451.8381678339938,451.8381678339938,451.8381678339938,452.91707704199507,200006,002,2023-04-07_10h50.27.245,DMS_et_12-36,2022.2.4,None,
,,,,,,,,,,,,,,,,,,,,,,,,,,,,,,,,,,,6,0,6,0,,,,,,,,,452.91707704199507,464.93897195899626,,,,,,,,,,,,,200006,002,2023-04-07_10h50.27.245,DMS_et_12-36,2022.2.4,None,
64,UNPRED,12,1.1665150399826,0,images/picture_1.png,images/picture_1.png,0,"[11.733433509789464, 11.733433509789462]",11.733433509789464,11.733433509789462,images/picture_2.png,1,"[-11.733433509789466, -11.733433509789462]",-11.733433509789464,-11.733433509789462,images/picture_3.png,2,"[11.733433509789462, -11.733433509789466]",11.733433509789462,-11.733433509789464,0,1,1,1.1665150399826,2.1665150399826003,0.8334849600174001,3.0,1,1.9165150399826,0,4.0,3.0,1,2,7,0,7,0,0,0,0,1,,,,,,,464.93897195899626,464.93897195899626,465.9382575839991,466.85751158399944,467.10496799999964,467.10496799999964,467.10496799999964,467.9382269169946,467.9382269169946,467.9382269169946,467.9382269169946,468.9569697919942,200006,002,2023-04-07_10h50.27.245,DMS_et_12-36,2022.2.4,None,
65,UNPRED,12,1.1665150399826,2,images/picture_3.png,images/picture_1.png,0,"[11.733433509789462, -11.733433509789466]",11.733433509789462,-11.733433509789464,images/picture_2.png,1,"[11.733433509789464, 11.733433509789462]",11.733433509789464,11.733433509789462,images/picture_3.png,2,"[-11.733433509789466, -11.733433509789462]",-11.733433509789464,-11.733433509789462,0,1,1,1.1665150399826,2.1665150399826003,0.8334849600174001,3.0,1,1.9165150399826,0,4.0,3.0,1,2,7,0,7,0,0,1,1,2,,,,,,,468.9569697919942,468.9569697919942,469.97146020899527,470.8713029589999,471.1050099589993,471.1050099589993,471.1050099589993,471.93821095900057,471.93821095900057,471.93821095900057,471.93821095900057,472.95687854199787,200006,002,2023-04-07_10h50.27.245,DMS_et_12-36,2022.2.4,None,
69,UNPRED,12,1.1665150399826,2,images/picture_3.png,images/picture_1.png,0,"[-11.733433509789466, -11.733433509789462]",-11.733433509789464,-11.733433509789462,images/picture_2.png,1,"[11.733433509789462, -11.733433509789466]",11.733433509789462,-11.733433509789464,images/picture_3.png,2,"[-11.733433509789462, 11.733433509789464]",-11.733433509789462,11.733433509789464,0,1,1,1.1665150399826,2.1665150399826003,0.8334849600174001,3.0,1,1.9165150399826,0,4.0,3.0,1,2,7,0,7,0,0,2,2,6,,,,,,,472.95687854199787,472.95687854199787,473.9718233339954,474.8717142919995,475.10498008399736,475.10498008399736,475.10498008399736,475.9384834999946,475.9384834999946,475.9384834999946,475.9384834999946,476.93795187499927,200006,002,2023-04-07_10h50.27.245,DMS_et_12-36,2022.2.4,None,
66,UNPRED,12,1.1665150399826,0,images/picture_1.png,images/picture_1.png,0,"[11.733433509789462, -11.733433509789466]",11.733433509789462,-11.733433509789464,images/picture_2.png,1,"[11.733433509789464, 11.733433509789462]",11.733433509789464,11.733433509789462,images/picture_3.png,2,"[-11.733433509789462, 11.733433509789464]",-11.733433509789462,11.733433509789464,0,1,1,1.1665150399826,2.1665150399826003,0.8334849600174001,3.0,1,1.9165150399826,0,4.0,3.0,1,2,7,0,7,0,0,3,3,3,,,,,,,476.93795187499927,476.93795187499927,477.93823524999607,478.85755824999796,479.10497916699387,479.10497916699387,479.10497916699387,479.9384002499937,479.9384002499937,479.9384002499937,479.9384002499937,480.9379150839959,200006,002,2023-04-07_10h50.27.245,DMS_et_12-36,2022.2.4,None,
63,UNPRED,12,1.1665150399826,1,images/picture_2.png,images/picture_1.png,0,"[11.733433509789464, 11.733433509789462]",11.733433509789464,11.733433509789462,images/picture_2.png,1,"[11.733433509789462, -11.733433509789466]",11.733433509789462,-11.733433509789464,images/picture_3.png,2,"[-11.733433509789462, 11.733433509789464]",-11.733433509789462,11.733433509789464,0,1,1,1.1665150399826,2.1665150399826003,0.8334849600174001,3.0,1,1.9165150399826,0,4.0,3.0,1,2,7,0,7,0,0,4,4,0,,,,,,,480.9379150839959,480.9379150839959,481.93841287499527,482.8573359169968,483.1049724589975,483.1049724589975,483.1049724589975,483.9386322499995,483.9386322499995,483.9386322499995,483.9386322499995,484.9379023750007,200006,002,2023-04-07_10h50.27.245,DMS_et_12-36,2022.2.4,None,
67,UNPRED,12,1.1665150399826,0,images/picture_1.png,images/picture_1.png,0,"[-11.733433509789462, 11.733433509789464]",-11.733433509789462,11.733433509789464,images/picture_2.png,1,"[11.733433509789464, 11.733433509789462]",11.733433509789464,11.733433509789462,images/picture_3.png,2,"[-11.733433509789466, -11.733433509789462]",-11.733433509789464,-11.733433509789462,0,1,1,1.1665150399826,2.1665150399826003,0.8334849600174001,3.0,1,1.9165150399826,0,4.0,3.0,1,2,7,0,7,0,0,5,5,4,,,,,,,484.9379023750007,484.9379023750007,485.9384304589985,486.85760299999674,487.1050494589945,487.1050494589945,487.1050494589945,487.93860866699833,487.93860866699833,487.93860866699833,487.93860866699833,488.93795320899517,200006,002,2023-04-07_10h50.27.245,DMS_et_12-36,2022.2.4,None,
71,UNPRED,12,1.1665150399826,0,images/picture_1.png,images/picture_1.png,0,"[-11.733433509789462, 11.733433509789464]",-11.733433509789462,11.733433509789464,images/picture_2.png,1,"[11.733433509789464, 11.733433509789462]",11.733433509789464,11.733433509789462,images/picture_3.png,2,"[-11.733433509789466, -11.733433509789462]",-11.733433509789464,-11.733433509789462,0,1,1,1.1665150399826,2.1665150399826003,0.8334849600174001,3.0,1,1.9165150399826,0,4.0,3.0,1,2,7,0,7,0,0,6,6,8,,,,,,,488.93795320899517,488.93795320899517,489.938419291997,490.8573673339997,491.10478054199484,491.10478054199484,491.10478054199484,491.93829395899957,491.93829395899957,491.93829395899957,491.93829395899957,492.93811599999754,200006,002,2023-04-07_10h50.27.245,DMS_et_12-36,2022.2.4,None,
68,UNPRED,12,1.1665150399826,1,images/picture_2.png,images/picture_1.png,0,"[-11.733433509789462, 11.733433509789464]",-11.733433509789462,11.733433509789464,images/picture_2.png,1,"[11.733433509789464, 11.733433509789462]",11.733433509789464,11.733433509789462,images/picture_3.png,2,"[-11.733433509789466, -11.733433509789462]",-11.733433509789464,-11.733433509789462,0,1,1,1.1665150399826,2.1665150399826003,0.8334849600174001,3.0,1,1.9165150399826,0,4.0,3.0,1,2,7,0,7,0,0,7,7,5,,,,,,,492.93811599999754,492.93811599999754,493.9384454999963,494.8580532499982,495.104992624998,495.104992624998,495.104992624998,495.9383895840001,495.9383895840001,495.9383895840001,495.9383895840001,496.93787099999463,200006,002,2023-04-07_10h50.27.245,DMS_et_12-36,2022.2.4,None,
70,UNPRED,12,1.1665150399826,0,images/picture_1.png,images/picture_1.png,0,"[11.733433509789462, -11.733433509789466]",11.733433509789462,-11.733433509789464,images/picture_2.png,1,"[11.733433509789464, 11.733433509789462]",11.733433509789464,11.733433509789462,images/picture_3.png,2,"[-11.733433509789466, -11.733433509789462]",-11.733433509789464,-11.733433509789462,0,1,1,1.1665150399826,2.1665150399826003,0.8334849600174001,3.0,1,1.9165150399826,0,4.0,3.0,1,2,7,0,7,0,0,8,8,7,,,,,,,496.93787099999463,496.93787099999463,497.93847408399597,498.85812795899983,499.10521754199726,499.10521754199726,499.10521754199726,499.9387959589949,499.9387959589949,499.9387959589949,499.9387959589949,501.00601441699837,200006,002,2023-04-07_10h50.27.245,DMS_et_12-36,2022.2.4,None,
,,,,,,,,,,,,,,,,,,,,,,,,,,,,,,,,,,,7,0,7,0,,,,,,,,,501.00601441699837,513.0260841249983,,,,,,,,,,,,,200006,002,2023-04-07_10h50.27.245,DMS_et_12-36,2022.2.4,None,
72,PRED,12,1.1665150399826,0,images/picture_1.png,images/picture_1.png,0,"[11.733433509789462, -11.733433509789466]",11.733433509789462,-11.733433509789464,images/picture_2.png,1,"[-11.733433509789462, 11.733433509789464]",-11.733433509789462,11.733433509789464,images/picture_3.png,2,"[-11.733433509789466, -11.733433509789462]",-11.733433509789464,-11.733433509789462,0,1,1,1.1665150399826,2.1665150399826003,0.8334849600174001,3.0,1,1.9165150399826,0,4.0,3.0,1,2,8,0,8,0,0,0,0,0,,,,,,,513.0260841249983,513.0260841249983,514.0385733339936,514.9576147089974,515.1911574999976,515.1911574999976,515.1911574999976,516.0242486669958,516.0384333749971,516.0384333749971,516.0384333749971,517.0380078339949,200006,002,2023-04-07_10h50.27.245,DMS_et_12-36,2022.2.4,None,
74,PRED,12,1.1665150399826,0,images/picture_1.png,images/picture_1.png,0,"[11.733433509789462, -11.733433509789466]",11.733433509789462,-11.733433509789464,images/picture_2.png,1,"[-11.733433509789466, -11.733433509789462]",-11.733433509789464,-11.733433509789462,images/picture_3.png,2,"[-11.733433509789462, 11.733433509789464]",-11.733433509789462,11.733433509789464,0,1,1,1.1665150399826,2.1665150399826003,0.8334849600174001,3.0,1,1.9165150399826,0,4.0,3.0,1,2,8,0,8,0,0,1,1,2,,,,,,,517.0380078339949,517.0380078339949,518.0384337919968,518.9578468749969,519.205171374997,519.205171374997,519.205171374997,520.0385007499935,520.0385007499935,520.0385007499935,520.0385007499935,521.0381685419998,200006,002,2023-04-07_10h50.27.245,DMS_et_12-36,2022.2.4,None,
73,PRED,12,1.1665150399826,0,images/picture_1.png,images/picture_1.png,0,"[-11.733433509789462, 11.733433509789464]",-11.733433509789462,11.733433509789464,images/picture_2.png,1,"[-11.733433509789466, -11.733433509789462]",-11.733433509789464,-11.733433509789462,images/picture_3.png,2,"[11.733433509789464, 11.733433509789462]",11.733433509789464,11.733433509789462,0,1,1,1.1665150399826,2.1665150399826003,0.8334849600174001,3.0,1,1.9165150399826,0,4.0,3.0,1,2,8,0,8,0,0,2,2,1,,,,,,,521.0381685419998,521.0381685419998,522.0381483749952,522.9576717499949,523.2052232499991,523.2052232499991,523.2052232499991,524.0384707499979,524.0384707499979,524.0384707499979,524.0384707499979,525.0382222089975,200006,002,2023-04-07_10h50.27.245,DMS_et_12-36,2022.2.4,None,
76,PRED,12,1.1665150399826,0,images/picture_1.png,images/picture_1.png,0,"[-11.733433509789462, 11.733433509789464]",-11.733433509789462,11.733433509789464,images/picture_2.png,1,"[11.733433509789462, -11.733433509789466]",11.733433509789462,-11.733433509789464,images/picture_3.png,2,"[11.733433509789464, 11.733433509789462]",11.733433509789464,11.733433509789462,0,1,1,1.1665150399826,2.1665150399826003,0.8334849600174001,3.0,1,1.9165150399826,0,4.0,3.0,1,2,8,0,8,0,0,3,3,4,,,,,,,525.0382222089975,525.0382222089975,526.0385962500004,526.9575419999965,527.2052352089959,527.2052352089959,527.2052352089959,528.0384452500002,528.0384452500002,528.0384452500002,528.0384452500002,529.0379230839972,200006,002,2023-04-07_10h50.27.245,DMS_et_12-36,2022.2.4,None,
79,PRED,12,1.1665150399826,0,images/picture_1.png,images/picture_1.png,0,"[-11.733433509789466, -11.733433509789462]",-11.733433509789464,-11.733433509789462,images/picture_2.png,1,"[11.733433509789464, 11.733433509789462]",11.733433509789464,11.733433509789462,images/picture_3.png,2,"[-11.733433509789462, 11.733433509789464]",-11.733433509789462,11.733433509789464,0,1,1,1.1665150399826,2.1665150399826003,0.8334849600174001,3.0,1,1.9165150399826,0,4.0,3.0,1,2,8,0,8,0,0,4,4,7,,,,,,,529.0379230839972,529.0379230839972,530.038443874997,530.9577665420002,531.2050226669962,531.2050226669962,531.2050226669962,532.0382677919988,532.0382677919988,532.0382677919988,532.0382677919988,533.0381703339954,200006,002,2023-04-07_10h50.27.245,DMS_et_12-36,2022.2.4,None,
78,PRED,12,1.1665150399826,0,images/picture_1.png,images/picture_1.png,0,"[-11.733433509789462, 11.733433509789464]",-11.733433509789462,11.733433509789464,images/picture_2.png,1,"[11.733433509789462, -11.733433509789466]",11.733433509789462,-11.733433509789464,images/picture_3.png,2,"[-11.733433509789466, -11.733433509789462]",-11.733433509789464,-11.733433509789462,0,1,1,1.1665150399826,2.1665150399826003,0.8334849600174001,3.0,1,1.9165150399826,0,4.0,3.0,1,2,8,0,8,0,0,5,5,6,,,,,,,533.0381703339954,533.0381703339954,534.0384981669995,534.9579916669973,535.2051407499966,535.2051407499966,535.2051407499966,536.038473499997,536.038473499997,536.038473499997,536.038473499997,537.0380980839982,200006,002,2023-04-07_10h50.27.245,DMS_et_12-36,2022.2.4,None,
80,PRED,12,1.1665150399826,0,images/picture_1.png,images/picture_1.png,0,"[11.733433509789462, -11.733433509789466]",11.733433509789462,-11.733433509789464,images/picture_2.png,1,"[-11.733433509789466, -11.733433509789462]",-11.733433509789464,-11.733433509789462,images/picture_3.png,2,"[-11.733433509789462, 11.733433509789464]",-11.733433509789462,11.733433509789464,0,1,1,1.1665150399826,2.1665150399826003,0.8334849600174001,3.0,1,1.9165150399826,0,4.0,3.0,1,2,8,0,8,0,0,6,6,8,,,,,,,537.0380980839982,537.0380980839982,538.0385467089945,538.9575215000004,539.2051832500001,539.2051832500001,539.2051832500001,540.0386963749988,540.0386963749988,540.0386963749988,540.0386963749988,541.0380052919936,200006,002,2023-04-07_10h50.27.245,DMS_et_12-36,2022.2.4,None,
75,PRED,12,1.1665150399826,0,images/picture_1.png,images/picture_1.png,0,"[-11.733433509789466, -11.733433509789462]",-11.733433509789464,-11.733433509789462,images/picture_2.png,1,"[-11.733433509789462, 11.733433509789464]",-11.733433509789462,11.733433509789464,images/picture_3.png,2,"[11.733433509789464, 11.733433509789462]",11.733433509789464,11.733433509789462,0,1,1,1.1665150399826,2.1665150399826003,0.8334849600174001,3.0,1,1.9165150399826,0,4.0,3.0,1,2,8,0,8,0,0,7,7,3,,,,,,,541.0380052919936,541.0380052919936,542.0382152919992,542.9579648750005,543.2051696669951,543.2051696669951,543.2051696669951,544.0384589589958,544.0384589589958,544.0384589589958,544.0384589589958,545.0382765839968,200006,002,2023-04-07_10h50.27.245,DMS_et_12-36,2022.2.4,None,
77,PRED,12,1.1665150399826,0,images/picture_1.png,images/picture_1.png,0,"[11.733433509789464, 11.733433509789462]",11.733433509789464,11.733433509789462,images/picture_2.png,1,"[-11.733433509789462, 11.733433509789464]",-11.733433509789462,11.733433509789464,images/picture_3.png,2,"[-11.733433509789466, -11.733433509789462]",-11.733433509789464,-11.733433509789462,0,1,1,1.1665150399826,2.1665150399826003,0.8334849600174001,3.0,1,1.9165150399826,0,4.0,3.0,1,2,8,0,8,0,0,8,8,5,,,,,,,545.0382765839968,545.0382765839968,546.0384764999981,546.9579954169967,547.2052625840006,547.2052625840006,547.2052625840006,548.0386452499952,548.0386452499952,548.0386452499952,548.0386452499952,549.1324106669999,200006,002,2023-04-07_10h50.27.245,DMS_et_12-36,2022.2.4,None,
,,,,,,,,,,,,,,,,,,,,,,,,,,,,,,,,,,,8,0,8,0,,,,,,,,,549.1324106669999,561.1621991669963,,,,,,,,,,,,,200006,002,2023-04-07_10h50.27.245,DMS_et_12-36,2022.2.4,None,
85,UNPRED,12,1.1665150399826,1,images/picture_2.png,images/picture_1.png,0,"[-11.733433509789466, -11.733433509789462]",-11.733433509789464,-11.733433509789462,images/picture_2.png,1,"[11.733433509789464, 11.733433509789462]",11.733433509789464,11.733433509789462,images/picture_3.png,2,"[-11.733433509789462, 11.733433509789464]",-11.733433509789462,11.733433509789464,0,1,1,1.1665150399826,2.1665150399826003,0.8334849600174001,3.0,1,1.9165150399826,0,4.0,3.0,1,2,9,0,9,0,0,0,0,4,,,,,,,561.1621991669963,561.1621991669963,562.1716372089941,563.0905091249952,563.3241762089965,563.3241762089965,563.3241762089965,564.157783083996,564.1719571249996,564.1719571249996,564.1719571249996,565.1713204589978,200006,002,2023-04-07_10h50.27.245,DMS_et_12-36,2022.2.4,None,
89,UNPRED,12,1.1665150399826,0,images/picture_1.png,images/picture_1.png,0,"[11.733433509789462, -11.733433509789466]",11.733433509789462,-11.733433509789464,images/picture_2.png,1,"[11.733433509789464, 11.733433509789462]",11.733433509789464,11.733433509789462,images/picture_3.png,2,"[-11.733433509789462, 11.733433509789464]",-11.733433509789462,11.733433509789464,0,1,1,1.1665150399826,2.1665150399826003,0.8334849600174001,3.0,1,1.9165150399826,0,4.0,3.0,1,2,9,0,9,0,0,1,1,8,,,,,,,565.1713204589978,565.1713204589978,566.1719699999958,567.0911712499947,567.3385291669983,567.3385291669983,567.3385291669983,568.1719633749963,568.1719633749963,568.1719633749963,568.1719633749963,569.1715491249997,200006,002,2023-04-07_10h50.27.245,DMS_et_12-36,2022.2.4,None,
82,UNPRED,12,1.1665150399826,0,images/picture_1.png,images/picture_1.png,0,"[-11.733433509789462, 11.733433509789464]",-11.733433509789462,11.733433509789464,images/picture_2.png,1,"[11.733433509789462, -11.733433509789466]",11.733433509789462,-11.733433509789464,images/picture_3.png,2,"[11.733433509789464, 11.733433509789462]",11.733433509789464,11.733433509789462,0,1,1,1.1665150399826,2.1665150399826003,0.8334849600174001,3.0,1,1.9165150399826,0,4.0,3.0,1,2,9,0,9,0,0,2,2,1,,,,,,,569.1715491249997,569.1715491249997,570.1719641669988,571.0913841250003,571.3386925419982,571.3386925419982,571.3386925419982,572.1719239589947,572.1719239589947,572.1719239589947,572.1719239589947,573.1717505839988,200006,002,2023-04-07_10h50.27.245,DMS_et_12-36,2022.2.4,None,
87,UNPRED,12,1.1665150399826,1,images/picture_2.png,images/picture_1.png,0,"[11.733433509789464, 11.733433509789462]",11.733433509789464,11.733433509789462,images/picture_2.png,1,"[-11.733433509789462, 11.733433509789464]",-11.733433509789462,11.733433509789464,images/picture_3.png,2,"[-11.733433509789466, -11.733433509789462]",-11.733433509789464,-11.733433509789462,0,1,1,1.1665150399826,2.1665150399826003,0.8334849600174001,3.0,1,1.9165150399826,0,4.0,3.0,1,2,9,0,9,0,0,3,3,6,,,,,,,573.1717505839988,573.1717505839988,574.1718915419988,575.0909295839956,575.3387116669983,575.3387116669983,575.3387116669983,576.1719338749972,576.1719338749972,576.1719338749972,576.1719338749972,577.1714506249991,200006,002,2023-04-07_10h50.27.245,DMS_et_12-36,2022.2.4,None,
83,UNPRED,12,1.1665150399826,0,images/picture_1.png,images/picture_1.png,0,"[-11.733433509789462, 11.733433509789464]",-11.733433509789462,11.733433509789464,images/picture_2.png,1,"[11.733433509789464, 11.733433509789462]",11.733433509789464,11.733433509789462,images/picture_3.png,2,"[11.733433509789462, -11.733433509789466]",11.733433509789462,-11.733433509789464,0,1,1,1.1665150399826,2.1665150399826003,0.8334849600174001,3.0,1,1.9165150399826,0,4.0,3.0,1,2,9,0,9,0,0,4,4,2,,,,,,,577.1714506249991,577.1714506249991,578.1719637089991,579.0913455419941,579.3386892919953,579.3386892919953,579.3386892919953,580.1719892919937,580.1719892919937,580.1719892919937,580.1719892919937,581.171438583995,200006,002,2023-04-07_10h50.27.245,DMS_et_12-36,2022.2.4,None,
81,UNPRED,12,1.1665150399826,1,images/picture_2.png,images/picture_1.png,0,"[-11.733433509789462, 11.733433509789464]",-11.733433509789462,11.733433509789464,images/picture_2.png,1,"[11.733433509789464, 11.733433509789462]",11.733433509789464,11.733433509789462,images/picture_3.png,2,"[-11.733433509789466, -11.733433509789462]",-11.733433509789464,-11.733433509789462,0,1,1,1.1665150399826,2.1665150399826003,0.8334849600174001,3.0,1,1.9165150399826,0,4.0,3.0,1,2,9,0,9,0,0,5,5,0,,,,,,,581.171438583995,581.171438583995,582.1719832919989,583.0907198749992,583.338439041996,583.338439041996,583.338439041996,584.1719332919965,584.1719332919965,584.1719332919965,584.1719332919965,585.1905259589985,200006,002,2023-04-07_10h50.27.245,DMS_et_12-36,2022.2.4,None,
86,UNPRED,12,1.1665150399826,2,images/picture_3.png,images/picture_1.png,0,"[11.733433509789464, 11.733433509789462]",11.733433509789464,11.733433509789462,images/picture_2.png,1,"[11.733433509789462, -11.733433509789466]",11.733433509789462,-11.733433509789464,images/picture_3.png,2,"[-11.733433509789466, -11.733433509789462]",-11.733433509789464,-11.733433509789462,0,1,1,1.1665150399826,2.1665150399826003,0.8334849600174001,3.0,1,1.9165150399826,0,4.0,3.0,1,2,9,0,9,0,0,6,6,5,,,,,,,585.1905259589985,585.1905259589985,586.2054290419983,587.1054174999954,587.3386919589975,587.3386919589975,587.3386919589975,588.1719770839991,588.1719770839991,588.1719770839991,588.1719770839991,589.1912869999942,200006,002,2023-04-07_10h50.27.245,DMS_et_12-36,2022.2.4,None,
88,UNPRED,12,1.1665150399826,2,images/picture_3.png,images/picture_1.png,0,"[11.733433509789464, 11.733433509789462]",11.733433509789464,11.733433509789462,images/picture_2.png,1,"[-11.733433509789462, 11.733433509789464]",-11.733433509789462,11.733433509789464,images/picture_3.png,2,"[-11.733433509789466, -11.733433509789462]",-11.733433509789464,-11.733433509789462,0,1,1,1.1665150399826,2.1665150399826003,0.8334849600174001,3.0,1,1.9165150399826,0,4.0,3.0,1,2,9,0,9,0,0,7,7,7,,,,,,,589.1912869999942,589.1912869999942,590.2054034169996,591.1054218749996,591.3387063749979,591.3387063749979,591.3387063749979,592.1720071669988,592.1720071669988,592.1720071669988,592.1720071669988,593.1716942089988,200006,002,2023-04-07_10h50.27.245,DMS_et_12-36,2022.2.4,None,
84,UNPRED,12,1.1665150399826,1,images/picture_2.png,images/picture_1.png,0,"[11.733433509789462, -11.733433509789466]",11.733433509789462,-11.733433509789464,images/picture_2.png,1,"[-11.733433509789466, -11.733433509789462]",-11.733433509789464,-11.733433509789462,images/picture_3.png,2,"[11.733433509789464, 11.733433509789462]",11.733433509789464,11.733433509789462,0,1,1,1.1665150399826,2.1665150399826003,0.8334849600174001,3.0,1,1.9165150399826,0,4.0,3.0,1,2,9,0,9,0,0,8,8,3,,,,,,,593.1716942089988,593.1716942089988,594.1720505839985,595.0913157920004,595.3386791669982,595.3386791669982,595.3386791669982,596.1722445419946,596.1722445419946,596.1722445419946,596.1722445419946,597.273337958999,200006,002,2023-04-07_10h50.27.245,DMS_et_12-36,2022.2.4,None,
,,,,,,,,,,,,,,,,,,,,,,,,,,,,,,,,,,,9,0,9,0,,,,,,,,,597.273337958999,609.2963940419941,,,,,,,,,,,,,200006,002,2023-04-07_10h50.27.245,DMS_et_12-36,2022.2.4,None,
98,PRED,12,1.1665150399826,0,images/picture_1.png,images/picture_1.png,0,"[-11.733433509789462, 11.733433509789464]",-11.733433509789462,11.733433509789464,images/picture_2.png,1,"[-11.733433509789466, -11.733433509789462]",-11.733433509789464,-11.733433509789462,images/picture_3.png,2,"[11.733433509789464, 11.733433509789462]",11.733433509789464,11.733433509789462,0,1,1,1.1665150399826,2.1665150399826003,0.8334849600174001,3.0,1,1.9165150399826,0,4.0,3.0,1,2,10,0,10,0,0,0,0,8,,,,,,,609.2963940419941,609.2963940419941,610.3054904169985,611.2247244169994,611.4579760419947,611.4579760419947,611.4579760419947,612.2914933339998,612.3054369999954,612.3054369999954,612.3054369999954,613.3049673749993,200006,002,2023-04-07_10h50.27.245,DMS_et_12-36,2022.2.4,None,
90,PRED,12,1.1665150399826,0,images/picture_1.png,images/picture_1.png,0,"[11.733433509789464, 11.733433509789462]",11.733433509789464,11.733433509789462,images/picture_2.png,1,"[-11.733433509789466, -11.733433509789462]",-11.733433509789464,-11.733433509789462,images/picture_3.png,2,"[-11.733433509789462, 11.733433509789464]",-11.733433509789462,11.733433509789464,0,1,1,1.1665150399826,2.1665150399826003,0.8334849600174001,3.0,1,1.9165150399826,0,4.0,3.0,1,2,10,0,10,0,0,1,1,0,,,,,,,613.3049673749993,613.3049673749993,614.3052469169997,615.2249257090007,615.4722126669949,615.4722126669949,615.4722126669949,616.305452749999,616.305452749999,616.305452749999,616.305452749999,617.3048985839996,200006,002,2023-04-07_10h50.27.245,DMS_et_12-36,2022.2.4,None,
94,PRED,12,1.1665150399826,0,images/picture_1.png,images/picture_1.png,0,"[-11.733433509789466, -11.733433509789462]",-11.733433509789464,-11.733433509789462,images/picture_2.png,1,"[11.733433509789464, 11.733433509789462]",11.733433509789464,11.733433509789462,images/picture_3.png,2,"[-11.733433509789462, 11.733433509789464]",-11.733433509789462,11.733433509789464,0,1,1,1.1665150399826,2.1665150399826003,0.8334849600174001,3.0,1,1.9165150399826,0,4.0,3.0,1,2,10,0,10,0,0,2,2,4,,,,,,,617.3048985839996,617.3048985839996,618.305445209,619.2246603749954,619.4721880419966,619.4721880419966,619.4721880419966,620.3054661249989,620.3054661249989,620.3054661249989,620.3054661249989,621.3049460839975,200006,002,2023-04-07_10h50.27.245,DMS_et_12-36,2022.2.4,None,
95,PRED,12,1.1665150399826,0,images/picture_1.png,images/picture_1.png,0,"[-11.733433509789462, 11.733433509789464]",-11.733433509789462,11.733433509789464,images/picture_2.png,1,"[11.733433509789464, 11.733433509789462]",11.733433509789464,11.733433509789462,images/picture_3.png,2,"[-11.733433509789466, -11.733433509789462]",-11.733433509789464,-11.733433509789462,0,1,1,1.1665150399826,2.1665150399826003,0.8334849600174001,3.0,1,1.9165150399826,0,4.0,3.0,1,2,10,0,10,0,0,3,3,5,,,,,,,621.3049460839975,621.3049460839975,622.3054707089977,623.2246075839939,623.4721757089937,623.4721757089937,623.4721757089937,624.3051661669961,624.3051661669961,624.3051661669961,624.3051661669961,625.3049228749951,200006,002,2023-04-07_10h50.27.245,DMS_et_12-36,2022.2.4,None,
92,PRED,12,1.1665150399826,0,images/picture_1.png,images/picture_1.png,0,"[11.733433509789464, 11.733433509789462]",11.733433509789464,11.733433509789462,images/picture_2.png,1,"[-11.733433509789466, -11.733433509789462]",-11.733433509789464,-11.733433509789462,images/picture_3.png,2,"[11.733433509789462, -11.733433509789466]",11.733433509789462,-11.733433509789464,0,1,1,1.1665150399826,2.1665150399826003,0.8334849600174001,3.0,1,1.9165150399826,0,4.0,3.0,1,2,10,0,10,0,0,4,4,2,,,,,,,625.3049228749951,625.3049228749951,626.3054832089983,627.2248977499985,627.4722122499952,627.4722122499952,627.4722122499952,628.3056989999968,628.3056989999968,628.3056989999968,628.3056989999968,629.3049063750004,200006,002,2023-04-07_10h50.27.245,DMS_et_12-36,2022.2.4,None,
96,PRED,12,1.1665150399826,0,images/picture_1.png,images/picture_1.png,0,"[-11.733433509789466, -11.733433509789462]",-11.733433509789464,-11.733433509789462,images/picture_2.png,1,"[11.733433509789462, -11.733433509789466]",11.733433509789462,-11.733433509789464,images/picture_3.png,2,"[11.733433509789464, 11.733433509789462]",11.733433509789464,11.733433509789462,0,1,1,1.1665150399826,2.1665150399826003,0.8334849600174001,3.0,1,1.9165150399826,0,4.0,3.0,1,2,10,0,10,0,0,5,5,6,,,,,,,629.3049063750004,629.3049063750004,630.3055098749974,631.2246543340007,631.472335583996,631.472335583996,631.472335583996,632.3054937919951,632.3054937919951,632.3054937919951,632.3054937919951,633.3052546670006,200006,002,2023-04-07_10h50.27.245,DMS_et_12-36,2022.2.4,None,
97,PRED,12,1.1665150399826,0,images/picture_1.png,images/picture_1.png,0,"[11.733433509789462, -11.733433509789466]",11.733433509789462,-11.733433509789464,images/picture_2.png,1,"[11.733433509789464, 11.733433509789462]",11.733433509789464,11.733433509789462,images/picture_3.png,2,"[-11.733433509789462, 11.733433509789464]",-11.733433509789462,11.733433509789464,0,1,1,1.1665150399826,2.1665150399826003,0.8334849600174001,3.0,1,1.9165150399826,0,4.0,3.0,1,2,10,0,10,0,0,6,6,7,,,,,,,633.3052546670006,633.3052546670006,634.3052816669951,635.2247117919978,635.4722340419976,635.4722340419976,635.4722340419976,636.3056508339942,636.3056508339942,636.3056508339942,636.3056508339942,637.3051437920003,200006,002,2023-04-07_10h50.27.245,DMS_et_12-36,2022.2.4,None,
91,PRED,12,1.1665150399826,0,images/picture_1.png,images/picture_1.png,0,"[-11.733433509789462, 11.733433509789464]",-11.733433509789462,11.733433509789464,images/picture_2.png,1,"[11.733433509789462, -11.733433509789466]",11.733433509789462,-11.733433509789464,images/picture_3.png,2,"[11.733433509789464, 11.733433509789462]",11.733433509789464,11.733433509789462,0,1,1,1.1665150399826,2.1665150399826003,0.8334849600174001,3.0,1,1.9165150399826,0,4.0,3.0,1,2,10,0,10,0,0,7,7,1,,,,,,,637.3051437920003,637.3051437920003,638.3054783749976,639.2249267919979,639.4722577499997,639.4722577499997,639.4722577499997,640.3055314169978,640.3055314169978,640.3055314169978,640.3055314169978,641.3050433339959,200006,002,2023-04-07_10h50.27.245,DMS_et_12-36,2022.2.4,None,
93,PRED,12,1.1665150399826,0,images/picture_1.png,images/picture_1.png,0,"[11.733433509789462, -11.733433509789466]",11.733433509789462,-11.733433509789464,images/picture_2.png,1,"[-11.733433509789462, 11.733433509789464]",-11.733433509789462,11.733433509789464,images/picture_3.png,2,"[-11.733433509789466, -11.733433509789462]",-11.733433509789464,-11.733433509789462,0,1,1,1.1665150399826,2.1665150399826003,0.8334849600174001,3.0,1,1.9165150399826,0,4.0,3.0,1,2,10,0,10,0,0,8,8,3,,,,,,,641.3050433339959,641.3050433339959,642.3056932089967,643.2247180839986,643.4722191249966,643.4722191249966,643.4722191249966,644.3057542919996,644.3057542919996,644.3057542919996,644.3057542919996,645.4026665839992,200006,002,2023-04-07_10h50.27.245,DMS_et_12-36,2022.2.4,None,
,,,,,,,,,,,,,,,,,,,,,,,,,,,,,,,,,,,10,0,10,0,,,,,,,,,645.4026665839992,657.4415863749964,,,,,,,,,,,,,200006,002,2023-04-07_10h50.27.245,DMS_et_12-36,2022.2.4,None,
102,UNPRED,12,1.1665150399826,2,images/picture_3.png,images/picture_1.png,0,"[-11.733433509789466, -11.733433509789462]",-11.733433509789464,-11.733433509789462,images/picture_2.png,1,"[11.733433509789464, 11.733433509789462]",11.733433509789464,11.733433509789462,images/picture_3.png,2,"[-11.733433509789462, 11.733433509789464]",-11.733433509789462,11.733433509789464,0,1,1,1.1665150399826,2.1665150399826003,0.8334849600174001,3.0,1,1.9165150399826,0,4.0,3.0,1,2,11,0,11,0,0,0,0,3,,,,,,,657.4415863749964,657.4415863749964,658.4386977089962,659.3719806249937,659.5913123749997,659.5913123749997,659.5913123749997,660.4245938339955,660.4388329590001,660.4388329590001,660.4388329590001,661.4383210839951,200006,002,2023-04-07_10h50.27.245,DMS_et_12-36,2022.2.4,None,
99,UNPRED,12,1.1665150399826,1,images/picture_2.png,images/picture_1.png,0,"[11.733433509789462, -11.733433509789466]",11.733433509789462,-11.733433509789464,images/picture_2.png,1,"[-11.733433509789462, 11.733433509789464]",-11.733433509789462,11.733433509789464,images/picture_3.png,2,"[-11.733433509789466, -11.733433509789462]",-11.733433509789464,-11.733433509789462,0,1,1,1.1665150399826,2.1665150399826003,0.8334849600174001,3.0,1,1.9165150399826,0,4.0,3.0,1,2,11,0,11,0,0,1,1,0,,,,,,,661.4383210839951,661.4383210839951,662.4388651249974,663.3579343339952,663.6054191669973,663.6054191669973,663.6054191669973,664.4386924589999,664.4386924589999,664.4386924589999,664.4386924589999,665.4383309999976,200006,002,2023-04-07_10h50.27.245,DMS_et_12-36,2022.2.4,None,
101,UNPRED,12,1.1665150399826,0,images/picture_1.png,images/picture_1.png,0,"[-11.733433509789466, -11.733433509789462]",-11.733433509789464,-11.733433509789462,images/picture_2.png,1,"[-11.733433509789462, 11.733433509789464]",-11.733433509789462,11.733433509789464,images/picture_3.png,2,"[11.733433509789462, -11.733433509789466]",11.733433509789462,-11.733433509789464,0,1,1,1.1665150399826,2.1665150399826003,0.8334849600174001,3.0,1,1.9165150399826,0,4.0,3.0,1,2,11,0,11,0,0,2,2,2,,,,,,,665.4383309999976,665.4383309999976,666.4386661249955,667.3579247919988,667.605425416994,667.605425416994,667.605425416994,668.4387498340002,668.4387498340002,668.4387498340002,668.4387498340002,669.4378991249978,200006,002,2023-04-07_10h50.27.245,DMS_et_12-36,2022.2.4,None,
104,UNPRED,12,1.1665150399826,1,images/picture_2.png,images/picture_1.png,0,"[11.733433509789464, 11.733433509789462]",11.733433509789464,11.733433509789462,images/picture_2.png,1,"[-11.733433509789466, -11.733433509789462]",-11.733433509789464,-11.733433509789462,images/picture_3.png,2,"[11.733433509789462, -11.733433509789466]",11.733433509789462,-11.733433509789464,0,1,1,1.1665150399826,2.1665150399826003,0.8334849600174001,3.0,1,1.9165150399826,0,4.0,3.0,1,2,11,0,11,0,0,3,3,5,,,,,,,669.4378991249978,669.4378991249978,670.4386813749952,671.3578284999967,671.6054530420006,671.6054530420006,671.6054530420006,672.4387322919938,672.4387322919938,672.4387322919938,672.4387322919938,673.457475999996,200006,002,2023-04-07_10h50.27.245,DMS_et_12-36,2022.2.4,None,
105,UNPRED,12,1.1665150399826,2,images/picture_3.png,images/picture_1.png,0,"[-11.733433509789462, 11.733433509789464]",-11.733433509789462,11.733433509789464,images/picture_2.png,1,"[11.733433509789464, 11.733433509789462]",11.733433509789464,11.733433509789462,images/picture_3.png,2,"[11.733433509789462, -11.733433509789466]",11.733433509789462,-11.733433509789464,0,1,1,1.1665150399826,2.1665150399826003,0.8334849600174001,3.0,1,1.9165150399826,0,4.0,3.0,1,2,11,0,11,0,0,4,4,6,,,,,,,673.457475999996,673.457475999996,674.471999166999,675.3717599169977,675.6051257919971,675.6051257919971,675.6051257919971,676.438674416997,676.438674416997,676.438674416997,676.438674416997,677.437864624997,200006,002,2023-04-07_10h50.27.245,DMS_et_12-36,2022.2.4,None,
100,UNPRED,12,1.1665150399826,0,images/picture_1.png,images/picture_1.png,0,"[-11.733433509789462, 11.733433509789464]",-11.733433509789462,11.733433509789464,images/picture_2.png,1,"[11.733433509789462, -11.733433509789466]",11.733433509789462,-11.733433509789464,images/picture_3.png,2,"[11.733433509789464, 11.733433509789462]",11.733433509789464,11.733433509789462,0,1,1,1.1665150399826,2.1665150399826003,0.8334849600174001,3.0,1,1.9165150399826,0,4.0,3.0,1,2,11,0,11,0,0,5,5,1,,,,,,,677.437864624997,677.437864624997,678.4387347089942,679.3580696249992,679.6055518339999,679.6055518339999,679.6055518339999,680.4387207499967,680.4387207499967,680.4387207499967,680.4387207499967,681.4384057499992,200006,002,2023-04-07_10h50.27.245,DMS_et_12-36,2022.2.4,None,
107,UNPRED,12,1.1665150399826,1,images/picture_2.png,images/picture_1.png,0,"[11.733433509789464, 11.733433509789462]",11.733433509789464,11.733433509789462,images/picture_2.png,1,"[-11.733433509789466, -11.733433509789462]",-11.733433509789464,-11.733433509789462,images/picture_3.png,2,"[11.733433509789462, -11.733433509789466]",11.733433509789462,-11.733433509789464,0,1,1,1.1665150399826,2.1665150399826003,0.8334849600174001,3.0,1,1.9165150399826,0,4.0,3.0,1,2,11,0,11,0,0,6,6,8,,,,,,,681.4384057499992,681.4384057499992,682.4386955839946,683.3578105419947,683.6054747499948,683.6054747499948,683.6054747499948,684.4387844999947,684.4387844999947,684.4387844999947,684.4387844999947,685.4572123749967,200006,002,2023-04-07_10h50.27.245,DMS_et_12-36,2022.2.4,None,
106,UNPRED,12,1.1665150399826,2,images/picture_3.png,images/picture_1.png,0,"[-11.733433509789466, -11.733433509789462]",-11.733433509789464,-11.733433509789462,images/picture_2.png,1,"[11.733433509789464, 11.733433509789462]",11.733433509789464,11.733433509789462,images/picture_3.png,2,"[11.733433509789462, -11.733433509789466]",11.733433509789462,-11.733433509789464,0,1,1,1.1665150399826,2.1665150399826003,0.8334849600174001,3.0,1,1.9165150399826,0,4.0,3.0,1,2,11,0,11,0,0,7,7,7,,,,,,,685.4572123749967,685.4572123749967,686.4719029589978,687.3719643749937,687.6053997089984,687.6053997089984,687.6053997089984,688.438723416999,688.438723416999,688.438723416999,688.438723416999,689.4383469169989,200006,002,2023-04-07_10h50.27.245,DMS_et_12-36,2022.2.4,None,
103,UNPRED,12,1.1665150399826,1,images/picture_2.png,images/picture_1.png,0,"[11.733433509789464, 11.733433509789462]",11.733433509789464,11.733433509789462,images/picture_2.png,1,"[-11.733433509789462, 11.733433509789464]",-11.733433509789462,11.733433509789464,images/picture_3.png,2,"[11.733433509789462, -11.733433509789466]",11.733433509789462,-11.733433509789464,0,1,1,1.1665150399826,2.1665150399826003,0.8334849600174001,3.0,1,1.9165150399826,0,4.0,3.0,1,2,11,0,11,0,0,8,8,4,,,,,,,689.4383469169989,689.4383469169989,690.4387054170002,691.3578136249998,691.6054130839984,691.6054130839984,691.6054130839984,692.4387108749943,692.4387108749943,692.4387108749943,692.4387108749943,693.6054412089943,200006,002,2023-04-07_10h50.27.245,DMS_et_12-36,2022.2.4,None,
,,,,,,,,,,,,,,,,,,,,,,,,,,,,,,,,,,,11,0,11,0,,,,,,,,,693.6054412089943,705.7360191249973,,,,,,,,,,,,,200006,002,2023-04-07_10h50.27.245,DMS_et_12-36,2022.2.4,None,
,,,,,,,,,,,,,,,,,,,,,,,,,,,,,,,,,,,,,,,,,,,,,,,705.7360191249973,718.264471167,,,,,,,,,,,,,,,,,,,
