trial_count,blockType,blockNum,delay_time,stimImage_i,stimImage,responseImage1,responseImage1_i,responseImage1_pos,responseImage1_X,responseImage1_Y,responseImage2,responseImage2_i,responseImage2_pos,responseImage2_X,responseImage2_Y,responseImage3,responseImage3_i,responseImage3_pos,responseImage3_X,responseImage3_Y,cue_onset,cue_dur,delay_onset,delay_dur,resp_onset,resp_dur,rest_onset,rest_dur,circle_dur,circle_onset,total_dur,cross_onset,cross_dur,delay_resp_period,blocks.thisRepN,blocks.thisTrialN,blocks.thisN,blocks.thisIndex,trials.thisRepN,trials.thisTrialN,trials.thisN,trials.thisIndex,key_resp.started,text.started,key_resp.keys,key_resp.rt,text_2.started,text_2.stopped,sample.started,Delay.started,sample.stopped,Delay.stopped,Response_1.started,Response_2.started,Response_3.started,Response_1.stopped,Response_2.stopped,Response_3.stopped,polygon.started,polygon.stopped,participant,session,date,expName,psychopyVersion,frameRate,
,,,,,,,,,,,,,,,,,,,,,,,,,,,,,,,,,,,,,,,,,,,57.00015604199871,57.00015604199871,t,73.09818791699945,,,,,,,,,,,,,,,200006,003,2023-04-07_11h02.35.102,DMS_et_12-36,2022.2.4,None,
2,PRED,12,0.9934113366693972,0,images/picture_1.png,images/picture_1.png,0,"[11.733433509789464, 11.733433509789462]",11.733433509789464,11.733433509789462,images/picture_2.png,1,"[11.733433509789462, -11.733433509789466]",11.733433509789462,-11.733433509789464,images/picture_3.png,2,"[-11.733433509789466, -11.733433509789462]",-11.733433509789464,-11.733433509789462,0,1,1,0.9934113366693972,1.9934113366693973,1.0065886633306027,3.0,1,1.7434113366693973,0,4.0,3.0,1,2,0,0,0,0,0,0,0,2,,,,,130.61230833399895,142.6349074999962,142.6349074999962,142.6349074999962,143.64405441699637,144.3774767089999,144.61077329199907,144.61077329199907,144.61077329199907,145.6303597090009,145.6303597090009,145.6303597090009,145.6303597090009,146.64354900000035,200006,003,2023-04-07_11h02.35.102,DMS_et_12-36,2022.2.4,None,
0,PRED,12,0.9934113366693972,0,images/picture_1.png,images/picture_1.png,0,"[11.733433509789462, -11.733433509789466]",11.733433509789462,-11.733433509789464,images/picture_2.png,1,"[-11.733433509789466, -11.733433509789462]",-11.733433509789464,-11.733433509789462,images/picture_3.png,2,"[-11.733433509789462, 11.733433509789464]",-11.733433509789462,11.733433509789464,0,1,1,0.9934113366693972,1.9934113366693973,1.0065886633306027,3.0,1,1.7434113366693973,0,4.0,3.0,1,2,0,0,0,0,0,1,1,0,,,,,,,146.64354900000035,146.64354900000035,147.6442269170002,148.39666341699922,148.63024737499654,148.63024737499654,148.63024737499654,149.64423045899457,149.64423045899457,149.64423045899457,149.64423045899457,150.64414041699638,200006,003,2023-04-07_11h02.35.102,DMS_et_12-36,2022.2.4,None,
1,PRED,12,0.9934113366693972,0,images/picture_1.png,images/picture_1.png,0,"[11.733433509789464, 11.733433509789462]",11.733433509789464,11.733433509789462,images/picture_2.png,1,"[-11.733433509789466, -11.733433509789462]",-11.733433509789464,-11.733433509789462,images/picture_3.png,2,"[-11.733433509789462, 11.733433509789464]",-11.733433509789462,11.733433509789464,0,1,1,0.9934113366693972,1.9934113366693973,1.0065886633306027,3.0,1,1.7434113366693973,0,4.0,3.0,1,2,0,0,0,0,0,2,2,1,,,,,,,150.64414041699638,150.64414041699638,151.6441823339992,152.3968452919944,152.63043724999443,152.63043724999443,152.63043724999443,153.64430962500046,153.64430962500046,153.64430962500046,153.64430962500046,154.6439660420001,200006,003,2023-04-07_11h02.35.102,DMS_et_12-36,2022.2.4,None,
6,PRED,12,0.9934113366693972,0,images/picture_1.png,images/picture_1.png,0,"[11.733433509789462, -11.733433509789466]",11.733433509789462,-11.733433509789464,images/picture_2.png,1,"[-11.733433509789466, -11.733433509789462]",-11.733433509789464,-11.733433509789462,images/picture_3.png,2,"[11.733433509789464, 11.733433509789462]",11.733433509789464,11.733433509789462,0,1,1,0.9934113366693972,1.9934113366693973,1.0065886633306027,3.0,1,1.7434113366693973,0,4.0,3.0,1,2,0,0,0,0,0,3,3,6,,,,,,,154.6439660420001,154.6439660420001,155.64427712500037,156.39700649999577,156.63108783400094,156.63108783400094,156.63108783400094,157.64433366699814,157.64433366699814,157.64433366699814,157.64433366699814,158.64383787499537,200006,003,2023-04-07_11h02.35.102,DMS_et_12-36,2022.2.4,None,
7,PRED,12,0.9934113366693972,0,images/picture_1.png,images/picture_1.png,0,"[11.733433509789462, -11.733433509789466]",11.733433509789462,-11.733433509789464,images/picture_2.png,1,"[-11.733433509789462, 11.733433509789464]",-11.733433509789462,11.733433509789464,images/picture_3.png,2,"[-11.733433509789466, -11.733433509789462]",-11.733433509789464,-11.733433509789462,0,1,1,0.9934113366693972,1.9934113366693973,1.0065886633306027,3.0,1,1.7434113366693973,0,4.0,3.0,1,2,0,0,0,0,0,4,4,7,,,,,,,158.64383787499537,158.64383787499537,159.64433616699534,160.3972742919941,160.63044770899432,160.63044770899432,160.63044770899432,161.644154333997,161.644154333997,161.644154333997,161.644154333997,162.6440733749987,200006,003,2023-04-07_11h02.35.102,DMS_et_12-36,2022.2.4,None,
5,PRED,12,0.9934113366693972,0,images/picture_1.png,images/picture_1.png,0,"[-11.733433509789462, 11.733433509789464]",-11.733433509789462,11.733433509789464,images/picture_2.png,1,"[11.733433509789462, -11.733433509789466]",11.733433509789462,-11.733433509789464,images/picture_3.png,2,"[11.733433509789464, 11.733433509789462]",11.733433509789464,11.733433509789462,0,1,1,0.9934113366693972,1.9934113366693973,1.0065886633306027,3.0,1,1.7434113366693973,0,4.0,3.0,1,2,0,0,0,0,0,5,5,5,,,,,,,162.6440733749987,162.6440733749987,163.6444723339955,164.39704470899596,164.6304767499969,164.6304767499969,164.6304767499969,165.6445325839959,165.6445325839959,165.6445325839959,165.6445325839959,166.64393933399697,200006,003,2023-04-07_11h02.35.102,DMS_et_12-36,2022.2.4,None,
4,PRED,12,0.9934113366693972,0,images/picture_1.png,images/picture_1.png,0,"[-11.733433509789466, -11.733433509789462]",-11.733433509789464,-11.733433509789462,images/picture_2.png,1,"[11.733433509789462, -11.733433509789466]",11.733433509789462,-11.733433509789464,images/picture_3.png,2,"[-11.733433509789462, 11.733433509789464]",-11.733433509789462,11.733433509789464,0,1,1,0.9934113366693972,1.9934113366693973,1.0065886633306027,3.0,1,1.7434113366693973,0,4.0,3.0,1,2,0,0,0,0,0,6,6,4,,,,,,,166.64393933399697,166.64393933399697,167.64462741700117,168.39718749999884,168.63047574999655,168.63047574999655,168.63047574999655,169.6445061669947,169.6445061669947,169.6445061669947,169.6445061669947,170.64391179199447,200006,003,2023-04-07_11h02.35.102,DMS_et_12-36,2022.2.4,None,
3,PRED,12,0.9934113366693972,0,images/picture_1.png,images/picture_1.png,0,"[11.733433509789464, 11.733433509789462]",11.733433509789464,11.733433509789462,images/picture_2.png,1,"[-11.733433509789462, 11.733433509789464]",-11.733433509789462,11.733433509789464,images/picture_3.png,2,"[-11.733433509789466, -11.733433509789462]",-11.733433509789464,-11.733433509789462,0,1,1,0.9934113366693972,1.9934113366693973,1.0065886633306027,3.0,1,1.7434113366693973,0,4.0,3.0,1,2,0,0,0,0,0,7,7,3,,,,,,,170.64391179199447,170.64391179199447,171.64402849999897,172.39717237500008,172.6303914999953,172.6303914999953,172.6303914999953,173.6445089589979,173.6445089589979,173.6445089589979,173.6445089589979,174.64414324999962,200006,003,2023-04-07_11h02.35.102,DMS_et_12-36,2022.2.4,None,
8,PRED,12,0.9934113366693972,0,images/picture_1.png,images/picture_1.png,0,"[-11.733433509789466, -11.733433509789462]",-11.733433509789464,-11.733433509789462,images/picture_2.png,1,"[-11.733433509789462, 11.733433509789464]",-11.733433509789462,11.733433509789464,images/picture_3.png,2,"[11.733433509789462, -11.733433509789466]",11.733433509789462,-11.733433509789464,0,1,1,0.9934113366693972,1.9934113366693973,1.0065886633306027,3.0,1,1.7434113366693973,0,4.0,3.0,1,2,0,0,0,0,0,8,8,8,,,,,,,174.64414324999962,174.64414324999962,175.64423566700134,176.39713820899487,176.6306483340013,176.6306483340013,176.6306483340013,177.6442585420009,177.6442585420009,177.6442585420009,177.6442585420009,178.66381404199637,200006,003,2023-04-07_11h02.35.102,DMS_et_12-36,2022.2.4,None,
,,,,,,,,,,,,,,,,,,,,,,,,,,,,,,,,,,,0,0,0,0,,,,,,,,,178.66381404199637,190.69596874999843,,,,,,,,,,,,,200006,003,2023-04-07_11h02.35.102,DMS_et_12-36,2022.2.4,None,
16,UNPRED,12,0.9934113366693972,1,images/picture_2.png,images/picture_1.png,0,"[-11.733433509789462, 11.733433509789464]",-11.733433509789462,11.733433509789464,images/picture_2.png,1,"[11.733433509789464, 11.733433509789462]",11.733433509789464,11.733433509789462,images/picture_3.png,2,"[11.733433509789462, -11.733433509789466]",11.733433509789462,-11.733433509789464,0,1,1,0.9934113366693972,1.9934113366693973,1.0065886633306027,3.0,1,1.7434113366693973,0,4.0,3.0,1,2,1,0,1,0,0,0,0,7,,,,,,,190.69596874999843,190.69596874999843,191.71074791700084,192.44433424999443,192.6775981249957,192.6775981249957,192.6775981249957,193.697083209001,193.697083209001,193.697083209001,193.697083209001,194.71083499999804,200006,003,2023-04-07_11h02.35.102,DMS_et_12-36,2022.2.4,None,
10,UNPRED,12,0.9934113366693972,0,images/picture_1.png,images/picture_1.png,0,"[11.733433509789464, 11.733433509789462]",11.733433509789464,11.733433509789462,images/picture_2.png,1,"[-11.733433509789462, 11.733433509789464]",-11.733433509789462,11.733433509789464,images/picture_3.png,2,"[11.733433509789462, -11.733433509789466]",11.733433509789462,-11.733433509789464,0,1,1,0.9934113366693972,1.9934113366693973,1.0065886633306027,3.0,1,1.7434113366693973,0,4.0,3.0,1,2,1,0,1,0,0,1,1,1,,,,,,,194.71083499999804,194.71083499999804,195.71122966699477,196.4640677089992,196.6969174170008,196.6969174170008,196.6969174170008,197.71121804200084,197.71121804200084,197.71121804200084,197.71121804200084,198.7297858749953,200006,003,2023-04-07_11h02.35.102,DMS_et_12-36,2022.2.4,None,
15,UNPRED,12,0.9934113366693972,2,images/picture_3.png,images/picture_1.png,0,"[11.733433509789464, 11.733433509789462]",11.733433509789464,11.733433509789462,images/picture_2.png,1,"[11.733433509789462, -11.733433509789466]",11.733433509789462,-11.733433509789464,images/picture_3.png,2,"[-11.733433509789462, 11.733433509789464]",-11.733433509789462,11.733433509789464,0,1,1,0.9934113366693972,1.9934113366693973,1.0065886633306027,3.0,1,1.7434113366693973,0,4.0,3.0,1,2,1,0,1,0,0,2,2,6,,,,,,,198.7297858749953,198.7297858749953,199.7445300420004,200.4777872919949,200.69701416699536,200.69701416699536,200.69701416699536,201.71122941700014,201.71122941700014,201.71122941700014,201.71122941700014,202.71149320899713,200006,003,2023-04-07_11h02.35.102,DMS_et_12-36,2022.2.4,None,
11,UNPRED,12,0.9934113366693972,2,images/picture_3.png,images/picture_1.png,0,"[-11.733433509789462, 11.733433509789464]",-11.733433509789462,11.733433509789464,images/picture_2.png,1,"[-11.733433509789466, -11.733433509789462]",-11.733433509789464,-11.733433509789462,images/picture_3.png,2,"[11.733433509789464, 11.733433509789462]",11.733433509789464,11.733433509789462,0,1,1,0.9934113366693972,1.9934113366693973,1.0065886633306027,3.0,1,1.7434113366693973,0,4.0,3.0,1,2,1,0,1,0,0,3,3,2,,,,,,,202.71149320899713,202.71149320899713,203.7112331249955,204.46370049999678,204.6974287089979,204.6974287089979,204.6974287089979,205.7111993340004,205.7111993340004,205.7111993340004,205.7111993340004,206.71017129199754,200006,003,2023-04-07_11h02.35.102,DMS_et_12-36,2022.2.4,None,
13,UNPRED,12,0.9934113366693972,0,images/picture_1.png,images/picture_1.png,0,"[-11.733433509789462, 11.733433509789464]",-11.733433509789462,11.733433509789464,images/picture_2.png,1,"[-11.733433509789466, -11.733433509789462]",-11.733433509789464,-11.733433509789462,images/picture_3.png,2,"[11.733433509789464, 11.733433509789462]",11.733433509789464,11.733433509789462,0,1,1,0.9934113366693972,1.9934113366693973,1.0065886633306027,3.0,1,1.7434113366693973,0,4.0,3.0,1,2,1,0,1,0,0,4,4,4,,,,,,,206.71017129199754,206.71017129199754,207.71104845900118,208.46420308399684,208.6970545840013,208.6970545840013,208.6970545840013,209.71122470899718,209.71122470899718,209.71122470899718,209.71122470899718,210.72972241699608,200006,003,2023-04-07_11h02.35.102,DMS_et_12-36,2022.2.4,None,
9,UNPRED,12,0.9934113366693972,2,images/picture_3.png,images/picture_1.png,0,"[11.733433509789462, -11.733433509789466]",11.733433509789462,-11.733433509789464,images/picture_2.png,1,"[11.733433509789464, 11.733433509789462]",11.733433509789464,11.733433509789462,images/picture_3.png,2,"[-11.733433509789462, 11.733433509789464]",-11.733433509789462,11.733433509789464,0,1,1,0.9934113366693972,1.9934113366693973,1.0065886633306027,3.0,1,1.7434113366693973,0,4.0,3.0,1,2,1,0,1,0,0,5,5,0,,,,,,,210.72972241699608,210.72972241699608,211.7446009999985,212.47755004200008,212.6967014999973,212.6967014999973,212.6967014999973,213.71123899999657,213.71123899999657,213.71123899999657,213.71123899999657,214.7106788339952,200006,003,2023-04-07_11h02.35.102,DMS_et_12-36,2022.2.4,None,
12,UNPRED,12,0.9934113366693972,0,images/picture_1.png,images/picture_1.png,0,"[11.733433509789462, -11.733433509789466]",11.733433509789462,-11.733433509789464,images/picture_2.png,1,"[11.733433509789464, 11.733433509789462]",11.733433509789464,11.733433509789462,images/picture_3.png,2,"[-11.733433509789466, -11.733433509789462]",-11.733433509789464,-11.733433509789462,0,1,1,0.9934113366693972,1.9934113366693973,1.0065886633306027,3.0,1,1.7434113366693973,0,4.0,3.0,1,2,1,0,1,0,0,6,6,3,,,,,,,214.7106788339952,214.7106788339952,215.71130079199793,216.4638875419987,216.69717179199506,216.69717179199506,216.69717179199506,217.7112197919996,217.7112197919996,217.7112197919996,217.7112197919996,218.7296287499994,200006,003,2023-04-07_11h02.35.102,DMS_et_12-36,2022.2.4,None,
14,UNPRED,12,0.9934113366693972,2,images/picture_3.png,images/picture_1.png,0,"[-11.733433509789466, -11.733433509789462]",-11.733433509789464,-11.733433509789462,images/picture_2.png,1,"[-11.733433509789462, 11.733433509789464]",-11.733433509789462,11.733433509789464,images/picture_3.png,2,"[11.733433509789462, -11.733433509789466]",11.733433509789462,-11.733433509789464,0,1,1,0.9934113366693972,1.9934113366693973,1.0065886633306027,3.0,1,1.7434113366693973,0,4.0,3.0,1,2,1,0,1,0,0,7,7,5,,,,,,,218.7296287499994,218.7296287499994,219.7447299589985,220.4778593749943,220.69728279199626,220.69728279199626,220.69728279199626,221.71122279200063,221.71122279200063,221.71122279200063,221.71122279200063,222.71081612499984,200006,003,2023-04-07_11h02.35.102,DMS_et_12-36,2022.2.4,None,
17,UNPRED,12,0.9934113366693972,1,images/picture_2.png,images/picture_1.png,0,"[-11.733433509789466, -11.733433509789462]",-11.733433509789464,-11.733433509789462,images/picture_2.png,1,"[11.733433509789462, -11.733433509789466]",11.733433509789462,-11.733433509789464,images/picture_3.png,2,"[11.733433509789464, 11.733433509789462]",11.733433509789464,11.733433509789462,0,1,1,0.9934113366693972,1.9934113366693973,1.0065886633306027,3.0,1,1.7434113366693973,0,4.0,3.0,1,2,1,0,1,0,0,8,8,8,,,,,,,222.71081612499984,222.71081612499984,223.71108970899513,224.46354637499462,224.6972364999965,224.6972364999965,224.6972364999965,225.71124666700052,225.71124666700052,225.71124666700052,225.71124666700052,226.7431157089959,200006,003,2023-04-07_11h02.35.102,DMS_et_12-36,2022.2.4,None,
,,,,,,,,,,,,,,,,,,,,,,,,,,,,,,,,,,,1,0,1,0,,,,,,,,,226.7431157089959,238.77765312499832,,,,,,,,,,,,,200006,003,2023-04-07_11h02.35.102,DMS_et_12-36,2022.2.4,None,
21,PRED,12,0.9934113366693972,1,images/picture_2.png,images/picture_1.png,0,"[-11.733433509789462, 11.733433509789464]",-11.733433509789462,11.733433509789464,images/picture_2.png,1,"[-11.733433509789466, -11.733433509789462]",-11.733433509789464,-11.733433509789462,images/picture_3.png,2,"[11.733433509789464, 11.733433509789462]",11.733433509789464,11.733433509789462,0,1,1,0.9934113366693972,1.9934113366693973,1.0065886633306027,3.0,1,1.7434113366693973,0,4.0,3.0,1,2,2,0,2,0,0,0,0,3,,,,,,,238.77765312499832,238.77765312499832,239.77796474999923,240.5307132089947,240.74454645899823,240.74454645899823,240.74454645899823,241.7645222919964,241.7645222919964,241.7645222919964,241.7645222919964,242.77733274999628,200006,003,2023-04-07_11h02.35.102,DMS_et_12-36,2022.2.4,None,
24,PRED,12,0.9934113366693972,1,images/picture_2.png,images/picture_1.png,0,"[11.733433509789462, -11.733433509789466]",11.733433509789462,-11.733433509789464,images/picture_2.png,1,"[-11.733433509789462, 11.733433509789464]",-11.733433509789462,11.733433509789464,images/picture_3.png,2,"[-11.733433509789466, -11.733433509789462]",-11.733433509789464,-11.733433509789462,0,1,1,0.9934113366693972,1.9934113366693973,1.0065886633306027,3.0,1,1.7434113366693973,0,4.0,3.0,1,2,2,0,2,0,0,1,1,6,,,,,,,242.77733274999628,242.77733274999628,243.77760249999847,244.53117683399614,244.76381008399767,244.76381008399767,244.76381008399767,245.77798270899802,245.77798270899802,245.77798270899802,245.77798270899802,246.77741087499453,200006,003,2023-04-07_11h02.35.102,DMS_et_12-36,2022.2.4,None,
23,PRED,12,0.9934113366693972,1,images/picture_2.png,images/picture_1.png,0,"[11.733433509789464, 11.733433509789462]",11.733433509789464,11.733433509789462,images/picture_2.png,1,"[-11.733433509789466, -11.733433509789462]",-11.733433509789464,-11.733433509789462,images/picture_3.png,2,"[11.733433509789462, -11.733433509789466]",11.733433509789462,-11.733433509789464,0,1,1,0.9934113366693972,1.9934113366693973,1.0065886633306027,3.0,1,1.7434113366693973,0,4.0,3.0,1,2,2,0,2,0,0,2,2,5,,,,,,,246.77741087499453,246.77741087499453,247.77809195900045,248.53068012499716,248.76376929199614,248.76376929199614,248.76376929199614,249.77795858399622,249.77795858399622,249.77795858399622,249.77795858399622,250.77749916700122,200006,003,2023-04-07_11h02.35.102,DMS_et_12-36,2022.2.4,None,
20,PRED,12,0.9934113366693972,1,images/picture_2.png,images/picture_1.png,0,"[-11.733433509789462, 11.733433509789464]",-11.733433509789462,11.733433509789464,images/picture_2.png,1,"[11.733433509789464, 11.733433509789462]",11.733433509789464,11.733433509789462,images/picture_3.png,2,"[11.733433509789462, -11.733433509789466]",11.733433509789462,-11.733433509789464,0,1,1,0.9934113366693972,1.9934113366693973,1.0065886633306027,3.0,1,1.7434113366693973,0,4.0,3.0,1,2,2,0,2,0,0,3,3,2,,,,,,,250.77749916700122,250.77749916700122,251.77803512499668,252.53054637499736,252.76421970899537,252.76421970899537,252.76421970899537,253.7776662920005,253.7776662920005,253.7776662920005,253.7776662920005,254.7775872919956,200006,003,2023-04-07_11h02.35.102,DMS_et_12-36,2022.2.4,None,
26,PRED,12,0.9934113366693972,1,images/picture_2.png,images/picture_1.png,0,"[11.733433509789462, -11.733433509789466]",11.733433509789462,-11.733433509789464,images/picture_2.png,1,"[-11.733433509789462, 11.733433509789464]",-11.733433509789462,11.733433509789464,images/picture_3.png,2,"[-11.733433509789466, -11.733433509789462]",-11.733433509789464,-11.733433509789462,0,1,1,0.9934113366693972,1.9934113366693973,1.0065886633306027,3.0,1,1.7434113366693973,0,4.0,3.0,1,2,2,0,2,0,0,4,4,8,,,,,,,254.7775872919956,254.7775872919956,255.77798454200092,256.53043899999466,256.76421145899803,256.76421145899803,256.76421145899803,257.7780249999996,257.7780249999996,257.7780249999996,257.7780249999996,258.7774496669954,200006,003,2023-04-07_11h02.35.102,DMS_et_12-36,2022.2.4,None,
22,PRED,12,0.9934113366693972,1,images/picture_2.png,images/picture_1.png,0,"[11.733433509789462, -11.733433509789466]",11.733433509789462,-11.733433509789464,images/picture_2.png,1,"[11.733433509789464, 11.733433509789462]",11.733433509789464,11.733433509789462,images/picture_3.png,2,"[-11.733433509789462, 11.733433509789464]",-11.733433509789462,11.733433509789464,0,1,1,0.9934113366693972,1.9934113366693973,1.0065886633306027,3.0,1,1.7434113366693973,0,4.0,3.0,1,2,2,0,2,0,0,5,5,4,,,,,,,258.7774496669954,258.7774496669954,259.7780130839965,260.5305937919984,260.7644038340004,260.7644038340004,260.7644038340004,261.7780130839965,261.7780130839965,261.7780130839965,261.7780130839965,262.777407208996,200006,003,2023-04-07_11h02.35.102,DMS_et_12-36,2022.2.4,None,
18,PRED,12,0.9934113366693972,1,images/picture_2.png,images/picture_1.png,0,"[11.733433509789462, -11.733433509789466]",11.733433509789462,-11.733433509789464,images/picture_2.png,1,"[-11.733433509789462, 11.733433509789464]",-11.733433509789462,11.733433509789464,images/picture_3.png,2,"[11.733433509789464, 11.733433509789462]",11.733433509789464,11.733433509789462,0,1,1,0.9934113366693972,1.9934113366693973,1.0065886633306027,3.0,1,1.7434113366693973,0,4.0,3.0,1,2,2,0,2,0,0,6,6,0,,,,,,,262.777407208996,262.777407208996,263.7775646250011,264.52982150000025,264.7633577499946,264.7633577499946,264.7633577499946,265.7780158339956,265.7780158339956,265.7780158339956,265.7780158339956,266.77750333400036,200006,003,2023-04-07_11h02.35.102,DMS_et_12-36,2022.2.4,None,
19,PRED,12,0.9934113366693972,1,images/picture_2.png,images/picture_1.png,0,"[11.733433509789462, -11.733433509789466]",11.733433509789462,-11.733433509789464,images/picture_2.png,1,"[-11.733433509789466, -11.733433509789462]",-11.733433509789464,-11.733433509789462,images/picture_3.png,2,"[11.733433509789464, 11.733433509789462]",11.733433509789464,11.733433509789462,0,1,1,0.9934113366693972,1.9934113366693973,1.0065886633306027,3.0,1,1.7434113366693973,0,4.0,3.0,1,2,2,0,2,0,0,7,7,1,,,,,,,266.77750333400036,266.77750333400036,267.7779682920009,268.53111179199914,268.7636607499953,268.7636607499953,268.7636607499953,269.7780605000007,269.7780605000007,269.7780605000007,269.7780605000007,270.77776574999734,200006,003,2023-04-07_11h02.35.102,DMS_et_12-36,2022.2.4,None,
25,PRED,12,0.9934113366693972,1,images/picture_2.png,images/picture_1.png,0,"[-11.733433509789462, 11.733433509789464]",-11.733433509789462,11.733433509789464,images/picture_2.png,1,"[11.733433509789464, 11.733433509789462]",11.733433509789464,11.733433509789462,images/picture_3.png,2,"[-11.733433509789466, -11.733433509789462]",-11.733433509789464,-11.733433509789462,0,1,1,0.9934113366693972,1.9934113366693973,1.0065886633306027,3.0,1,1.7434113366693973,0,4.0,3.0,1,2,2,0,2,0,0,8,8,7,,,,,,,270.77776574999734,270.77776574999734,271.7780348749948,272.530541084001,272.76402637499996,272.76402637499996,272.76402637499996,273.7777966249996,273.7777966249996,273.7777966249996,273.7777966249996,274.8023986669941,200006,003,2023-04-07_11h02.35.102,DMS_et_12-36,2022.2.4,None,
,,,,,,,,,,,,,,,,,,,,,,,,,,,,,,,,,,,2,0,2,0,,,,,,,,,274.8023986669941,286.8411308750001,,,,,,,,,,,,,200006,003,2023-04-07_11h02.35.102,DMS_et_12-36,2022.2.4,None,
32,UNPRED,12,0.9934113366693972,2,images/picture_3.png,images/picture_1.png,0,"[11.733433509789464, 11.733433509789462]",11.733433509789464,11.733433509789462,images/picture_2.png,1,"[11.733433509789462, -11.733433509789466]",11.733433509789462,-11.733433509789464,images/picture_3.png,2,"[-11.733433509789462, 11.733433509789464]",-11.733433509789462,11.733433509789464,0,1,1,0.9934113366693972,1.9934113366693973,1.0065886633306027,3.0,1,1.7434113366693973,0,4.0,3.0,1,2,3,0,3,0,0,0,0,5,,,,,,,286.8411308750001,286.8411308750001,287.84479341699625,288.5974995419965,288.81129029199656,288.81129029199656,288.81129029199656,289.8307904999965,289.8307904999965,289.8307904999965,289.8307904999965,290.8446654590007,200006,003,2023-04-07_11h02.35.102,DMS_et_12-36,2022.2.4,None,
31,UNPRED,12,0.9934113366693972,1,images/picture_2.png,images/picture_1.png,0,"[11.733433509789462, -11.733433509789466]",11.733433509789462,-11.733433509789464,images/picture_2.png,1,"[11.733433509789464, 11.733433509789462]",11.733433509789464,11.733433509789462,images/picture_3.png,2,"[-11.733433509789462, 11.733433509789464]",-11.733433509789462,11.733433509789464,0,1,1,0.9934113366693972,1.9934113366693973,1.0065886633306027,3.0,1,1.7434113366693973,0,4.0,3.0,1,2,3,0,3,0,0,1,1,4,,,,,,,290.8446654590007,290.8446654590007,291.8447853749967,292.5971280839949,292.8307010419958,292.8307010419958,292.8307010419958,293.84479683399695,293.84479683399695,293.84479683399695,293.84479683399695,294.8443825840004,200006,003,2023-04-07_11h02.35.102,DMS_et_12-36,2022.2.4,None,
34,UNPRED,12,0.9934113366693972,1,images/picture_2.png,images/picture_1.png,0,"[-11.733433509789462, 11.733433509789464]",-11.733433509789462,11.733433509789464,images/picture_2.png,1,"[-11.733433509789466, -11.733433509789462]",-11.733433509789464,-11.733433509789462,images/picture_3.png,2,"[11.733433509789464, 11.733433509789462]",11.733433509789464,11.733433509789462,0,1,1,0.9934113366693972,1.9934113366693973,1.0065886633306027,3.0,1,1.7434113366693973,0,4.0,3.0,1,2,3,0,3,0,0,2,2,7,,,,,,,294.8443825840004,294.8443825840004,295.84471579199453,296.59744183399744,296.8305838749948,296.8305838749948,296.8305838749948,297.84481112499634,297.84481112499634,297.84481112499634,297.84481112499634,298.86356316699676,200006,003,2023-04-07_11h02.35.102,DMS_et_12-36,2022.2.4,None,
30,UNPRED,12,0.9934113366693972,2,images/picture_3.png,images/picture_1.png,0,"[-11.733433509789462, 11.733433509789464]",-11.733433509789462,11.733433509789464,images/picture_2.png,1,"[11.733433509789464, 11.733433509789462]",11.733433509789464,11.733433509789462,images/picture_3.png,2,"[-11.733433509789466, -11.733433509789462]",-11.733433509789464,-11.733433509789462,0,1,1,0.9934113366693972,1.9934113366693973,1.0065886633306027,3.0,1,1.7434113366693973,0,4.0,3.0,1,2,3,0,3,0,0,3,3,3,,,,,,,298.86356316699676,298.86356316699676,299.87804770899675,300.6114570419959,300.8304228749985,300.8304228749985,300.8304228749985,301.84479433399974,301.84479433399974,301.84479433399974,301.84479433399974,302.84467991699785,200006,003,2023-04-07_11h02.35.102,DMS_et_12-36,2022.2.4,None,
27,UNPRED,12,0.9934113366693972,1,images/picture_2.png,images/picture_1.png,0,"[-11.733433509789466, -11.733433509789462]",-11.733433509789464,-11.733433509789462,images/picture_2.png,1,"[11.733433509789462, -11.733433509789466]",11.733433509789462,-11.733433509789464,images/picture_3.png,2,"[11.733433509789464, 11.733433509789462]",11.733433509789464,11.733433509789462,0,1,1,0.9934113366693972,1.9934113366693973,1.0065886633306027,3.0,1,1.7434113366693973,0,4.0,3.0,1,2,3,0,3,0,0,4,4,0,,,,,,,302.84467991699785,302.84467991699785,303.8447473339984,304.59654366700124,304.8297417089998,304.8297417089998,304.8297417089998,305.8447941669947,305.8447941669947,305.8447941669947,305.8447941669947,306.8633219589974,200006,003,2023-04-07_11h02.35.102,DMS_et_12-36,2022.2.4,None,
29,UNPRED,12,0.9934113366693972,2,images/picture_3.png,images/picture_1.png,0,"[11.733433509789462, -11.733433509789466]",11.733433509789462,-11.733433509789464,images/picture_2.png,1,"[11.733433509789464, 11.733433509789462]",11.733433509789464,11.733433509789462,images/picture_3.png,2,"[-11.733433509789462, 11.733433509789464]",-11.733433509789462,11.733433509789464,0,1,1,0.9934113366693972,1.9934113366693973,1.0065886633306027,3.0,1,1.7434113366693973,0,4.0,3.0,1,2,3,0,3,0,0,5,5,2,,,,,,,306.8633219589974,306.8633219589974,307.8781744589942,308.61152591699647,308.83053154200024,308.83053154200024,308.83053154200024,309.8448010419961,309.8448010419961,309.8448010419961,309.8448010419961,310.8459804169979,200006,003,2023-04-07_11h02.35.102,DMS_et_12-36,2022.2.4,None,
35,UNPRED,12,0.9934113366693972,1,images/picture_2.png,images/picture_1.png,0,"[-11.733433509789466, -11.733433509789462]",-11.733433509789464,-11.733433509789462,images/picture_2.png,1,"[11.733433509789464, 11.733433509789462]",11.733433509789464,11.733433509789462,images/picture_3.png,2,"[-11.733433509789462, 11.733433509789464]",-11.733433509789462,11.733433509789464,0,1,1,0.9934113366693972,1.9934113366693973,1.0065886633306027,3.0,1,1.7434113366693973,0,4.0,3.0,1,2,3,0,3,0,0,6,6,8,,,,,,,310.8459804169979,310.8459804169979,311.8448148749958,312.59725787500065,312.83071774999553,312.83071774999553,312.83071774999553,313.8447621669984,313.8447621669984,313.8447621669984,313.8447621669984,314.84443149999424,200006,003,2023-04-07_11h02.35.102,DMS_et_12-36,2022.2.4,None,
28,UNPRED,12,0.9934113366693972,1,images/picture_2.png,images/picture_1.png,0,"[11.733433509789464, 11.733433509789462]",11.733433509789464,11.733433509789462,images/picture_2.png,1,"[-11.733433509789466, -11.733433509789462]",-11.733433509789464,-11.733433509789462,images/picture_3.png,2,"[-11.733433509789462, 11.733433509789464]",-11.733433509789462,11.733433509789464,0,1,1,0.9934113366693972,1.9934113366693973,1.0065886633306027,3.0,1,1.7434113366693973,0,4.0,3.0,1,2,3,0,3,0,0,7,7,1,,,,,,,314.84443149999424,314.84443149999424,315.8449329169962,316.59725712499494,316.8308184589987,316.8308184589987,316.8308184589987,317.84477562499524,317.84477562499524,317.84477562499524,317.84477562499524,318.84441833399615,200006,003,2023-04-07_11h02.35.102,DMS_et_12-36,2022.2.4,None,
33,UNPRED,12,0.9934113366693972,0,images/picture_1.png,images/picture_1.png,0,"[-11.733433509789466, -11.733433509789462]",-11.733433509789464,-11.733433509789462,images/picture_2.png,1,"[-11.733433509789462, 11.733433509789464]",-11.733433509789462,11.733433509789464,images/picture_3.png,2,"[11.733433509789462, -11.733433509789466]",11.733433509789462,-11.733433509789464,0,1,1,0.9934113366693972,1.9934113366693973,1.0065886633306027,3.0,1,1.7434113366693973,0,4.0,3.0,1,2,3,0,3,0,0,8,8,6,,,,,,,318.84441833399615,318.84441833399615,319.84479612499854,320.59751754199533,320.83094645899837,320.83094645899837,320.83094645899837,321.84482641700015,321.84482641700015,321.84482641700015,321.84482641700015,322.8972569999969,200006,003,2023-04-07_11h02.35.102,DMS_et_12-36,2022.2.4,None,
,,,,,,,,,,,,,,,,,,,,,,,,,,,,,,,,,,,3,0,3,0,,,,,,,,,322.8972569999969,334.92959566699574,,,,,,,,,,,,,200006,003,2023-04-07_11h02.35.102,DMS_et_12-36,2022.2.4,None,
42,PRED,12,0.9934113366693972,1,images/picture_2.png,images/picture_1.png,0,"[-11.733433509789462, 11.733433509789464]",-11.733433509789462,11.733433509789464,images/picture_2.png,1,"[11.733433509789464, 11.733433509789462]",11.733433509789464,11.733433509789462,images/picture_3.png,2,"[-11.733433509789466, -11.733433509789462]",-11.733433509789464,-11.733433509789462,0,1,1,0.9934113366693972,1.9934113366693973,1.0065886633306027,3.0,1,1.7434113366693973,0,4.0,3.0,1,2,4,0,4,0,0,0,0,6,,,,,,,334.92959566699574,334.92959566699574,335.9445659999983,336.6782618340003,336.9115948339968,336.9115948339968,336.9115948339968,337.9310727089978,337.9310727089978,337.9310727089978,337.9310727089978,338.9442871669962,200006,003,2023-04-07_11h02.35.102,DMS_et_12-36,2022.2.4,None,
40,PRED,12,0.9934113366693972,1,images/picture_2.png,images/picture_1.png,0,"[-11.733433509789462, 11.733433509789464]",-11.733433509789462,11.733433509789464,images/picture_2.png,1,"[11.733433509789464, 11.733433509789462]",11.733433509789464,11.733433509789462,images/picture_3.png,2,"[11.733433509789462, -11.733433509789466]",11.733433509789462,-11.733433509789464,0,1,1,0.9934113366693972,1.9934113366693973,1.0065886633306027,3.0,1,1.7434113366693973,0,4.0,3.0,1,2,4,0,4,0,0,1,1,4,,,,,,,338.9442871669962,338.9442871669962,339.9446988749987,340.69779679199564,340.93079433399544,340.93079433399544,340.93079433399544,341.9449339999992,341.9449339999992,341.9449339999992,341.9449339999992,342.94440320899594,200006,003,2023-04-07_11h02.35.102,DMS_et_12-36,2022.2.4,None,
36,PRED,12,0.9934113366693972,1,images/picture_2.png,images/picture_1.png,0,"[11.733433509789464, 11.733433509789462]",11.733433509789464,11.733433509789462,images/picture_2.png,1,"[-11.733433509789462, 11.733433509789464]",-11.733433509789462,11.733433509789464,images/picture_3.png,2,"[11.733433509789462, -11.733433509789466]",11.733433509789462,-11.733433509789464,0,1,1,0.9934113366693972,1.9934113366693973,1.0065886633306027,3.0,1,1.7434113366693973,0,4.0,3.0,1,2,4,0,4,0,0,2,2,0,,,,,,,342.94440320899594,342.94440320899594,343.9446592919994,344.6975658339943,344.93075687500095,344.93075687500095,344.93075687500095,345.9445399999968,345.9445399999968,345.9445399999968,345.9445399999968,346.943937541997,200006,003,2023-04-07_11h02.35.102,DMS_et_12-36,2022.2.4,None,
44,PRED,12,0.9934113366693972,1,images/picture_2.png,images/picture_1.png,0,"[11.733433509789464, 11.733433509789462]",11.733433509789464,11.733433509789462,images/picture_2.png,1,"[-11.733433509789466, -11.733433509789462]",-11.733433509789464,-11.733433509789462,images/picture_3.png,2,"[-11.733433509789462, 11.733433509789464]",-11.733433509789462,11.733433509789464,0,1,1,0.9934113366693972,1.9934113366693973,1.0065886633306027,3.0,1,1.7434113366693973,0,4.0,3.0,1,2,4,0,4,0,0,3,3,8,,,,,,,346.943937541997,346.943937541997,347.94465616699745,348.69671395899786,348.9307337499995,348.9307337499995,348.9307337499995,349.94467024999904,349.94467024999904,349.94467024999904,349.94467024999904,350.9444000000003,200006,003,2023-04-07_11h02.35.102,DMS_et_12-36,2022.2.4,None,
43,PRED,12,0.9934113366693972,1,images/picture_2.png,images/picture_1.png,0,"[11.733433509789464, 11.733433509789462]",11.733433509789464,11.733433509789462,images/picture_2.png,1,"[-11.733433509789466, -11.733433509789462]",-11.733433509789464,-11.733433509789462,images/picture_3.png,2,"[11.733433509789462, -11.733433509789466]",11.733433509789462,-11.733433509789464,0,1,1,0.9934113366693972,1.9934113366693973,1.0065886633306027,3.0,1,1.7434113366693973,0,4.0,3.0,1,2,4,0,4,0,0,4,4,7,,,,,,,350.9444000000003,350.9444000000003,351.9447741249969,352.69776566699875,352.93103683400113,352.93103683400113,352.93103683400113,353.94481383400125,353.94481383400125,353.94481383400125,353.94481383400125,354.94418495900027,200006,003,2023-04-07_11h02.35.102,DMS_et_12-36,2022.2.4,None,
41,PRED,12,0.9934113366693972,1,images/picture_2.png,images/picture_1.png,0,"[-11.733433509789466, -11.733433509789462]",-11.733433509789464,-11.733433509789462,images/picture_2.png,1,"[11.733433509789462, -11.733433509789466]",11.733433509789462,-11.733433509789464,images/picture_3.png,2,"[11.733433509789464, 11.733433509789462]",11.733433509789464,11.733433509789462,0,1,1,0.9934113366693972,1.9934113366693973,1.0065886633306027,3.0,1,1.7434113366693973,0,4.0,3.0,1,2,4,0,4,0,0,5,5,5,,,,,,,354.94418495900027,354.94418495900027,355.94464116699965,356.6969475839942,356.930783333999,356.930783333999,356.930783333999,357.944791666996,357.944791666996,357.944791666996,357.944791666996,358.9445257499974,200006,003,2023-04-07_11h02.35.102,DMS_et_12-36,2022.2.4,None,
37,PRED,12,0.9934113366693972,1,images/picture_2.png,images/picture_1.png,0,"[-11.733433509789466, -11.733433509789462]",-11.733433509789464,-11.733433509789462,images/picture_2.png,1,"[11.733433509789462, -11.733433509789466]",11.733433509789462,-11.733433509789464,images/picture_3.png,2,"[-11.733433509789462, 11.733433509789464]",-11.733433509789462,11.733433509789464,0,1,1,0.9934113366693972,1.9934113366693973,1.0065886633306027,3.0,1,1.7434113366693973,0,4.0,3.0,1,2,4,0,4,0,0,6,6,1,,,,,,,358.9445257499974,358.9445257499974,359.9447713749978,360.6972899589964,360.93051508400094,360.93051508400094,360.93051508400094,361.9450108339952,361.9450108339952,361.9450108339952,361.9450108339952,362.94426558399573,200006,003,2023-04-07_11h02.35.102,DMS_et_12-36,2022.2.4,None,
39,PRED,12,0.9934113366693972,1,images/picture_2.png,images/picture_1.png,0,"[11.733433509789462, -11.733433509789466]",11.733433509789462,-11.733433509789464,images/picture_2.png,1,"[-11.733433509789462, 11.733433509789464]",-11.733433509789462,11.733433509789464,images/picture_3.png,2,"[11.733433509789464, 11.733433509789462]",11.733433509789464,11.733433509789462,0,1,1,0.9934113366693972,1.9934113366693973,1.0065886633306027,3.0,1,1.7434113366693973,0,4.0,3.0,1,2,4,0,4,0,0,7,7,3,,,,,,,362.94426558399573,362.94426558399573,363.9449838750006,364.69747454200115,364.93000395899435,364.93000395899435,364.93000395899435,365.94463995899423,365.94463995899423,365.94463995899423,365.94463995899423,366.9446530419955,200006,003,2023-04-07_11h02.35.102,DMS_et_12-36,2022.2.4,None,
38,PRED,12,0.9934113366693972,1,images/picture_2.png,images/picture_1.png,0,"[-11.733433509789466, -11.733433509789462]",-11.733433509789464,-11.733433509789462,images/picture_2.png,1,"[-11.733433509789462, 11.733433509789464]",-11.733433509789462,11.733433509789464,images/picture_3.png,2,"[11.733433509789464, 11.733433509789462]",11.733433509789464,11.733433509789462,0,1,1,0.9934113366693972,1.9934113366693973,1.0065886633306027,3.0,1,1.7434113366693973,0,4.0,3.0,1,2,4,0,4,0,0,8,8,2,,,,,,,366.9446530419955,366.9446530419955,367.94499229199573,368.697296792001,368.93083466700045,368.93083466700045,368.93083466700045,369.94511245899776,369.94511245899776,369.94511245899776,369.94511245899776,371.0542873749946,200006,003,2023-04-07_11h02.35.102,DMS_et_12-36,2022.2.4,None,
,,,,,,,,,,,,,,,,,,,,,,,,,,,,,,,,,,,4,0,4,0,,,,,,,,,371.0542873749946,383.07948100000067,,,,,,,,,,,,,200006,003,2023-04-07_11h02.35.102,DMS_et_12-36,2022.2.4,None,
51,UNPRED,12,0.9934113366693972,0,images/picture_1.png,images/picture_1.png,0,"[11.733433509789464, 11.733433509789462]",11.733433509789464,11.733433509789462,images/picture_2.png,1,"[-11.733433509789462, 11.733433509789464]",-11.733433509789462,11.733433509789464,images/picture_3.png,2,"[11.733433509789462, -11.733433509789466]",11.733433509789462,-11.733433509789464,0,1,1,0.9934113366693972,1.9934113366693973,1.0065886633306027,3.0,1,1.7434113366693973,0,4.0,3.0,1,2,5,0,5,0,0,0,0,6,,,,,,,383.07948100000067,383.07948100000067,384.0782801669993,384.8307827499957,385.0782771669983,385.0782771669983,385.0782771669983,386.0975691669955,386.0975691669955,386.0975691669955,386.0782892499992,387.07807599999796,200006,003,2023-04-07_11h02.35.102,DMS_et_12-36,2022.2.4,None,
50,UNPRED,12,0.9934113366693972,1,images/picture_2.png,images/picture_1.png,0,"[11.733433509789464, 11.733433509789462]",11.733433509789464,11.733433509789462,images/picture_2.png,1,"[11.733433509789462, -11.733433509789466]",11.733433509789462,-11.733433509789464,images/picture_3.png,2,"[-11.733433509789466, -11.733433509789462]",-11.733433509789464,-11.733433509789462,0,1,1,0.9934113366693972,1.9934113366693973,1.0065886633306027,3.0,1,1.7434113366693973,0,4.0,3.0,1,2,5,0,5,0,0,1,1,5,,,,,,,387.07807599999796,387.07807599999796,388.07824795899796,388.83078241699695,389.0642533749997,389.0642533749997,389.0642533749997,390.0782798750006,390.0782798750006,390.0782798750006,390.0782798750006,391.0779855419969,200006,003,2023-04-07_11h02.35.102,DMS_et_12-36,2022.2.4,None,
45,UNPRED,12,0.9934113366693972,0,images/picture_1.png,images/picture_1.png,0,"[-11.733433509789462, 11.733433509789464]",-11.733433509789462,11.733433509789464,images/picture_2.png,1,"[11.733433509789464, 11.733433509789462]",11.733433509789464,11.733433509789462,images/picture_3.png,2,"[11.733433509789462, -11.733433509789466]",11.733433509789462,-11.733433509789464,0,1,1,0.9934113366693972,1.9934113366693973,1.0065886633306027,3.0,1,1.7434113366693973,0,4.0,3.0,1,2,5,0,5,0,0,2,2,0,,,,,,,391.0779855419969,391.0779855419969,392.07827070899657,392.8313176669981,393.0645418339991,393.0645418339991,393.0645418339991,394.0782907920002,394.0782907920002,394.0782907920002,394.0782907920002,395.0776395419962,200006,003,2023-04-07_11h02.35.102,DMS_et_12-36,2022.2.4,None,
46,UNPRED,12,0.9934113366693972,1,images/picture_2.png,images/picture_1.png,0,"[11.733433509789462, -11.733433509789466]",11.733433509789462,-11.733433509789464,images/picture_2.png,1,"[-11.733433509789466, -11.733433509789462]",-11.733433509789464,-11.733433509789462,images/picture_3.png,2,"[-11.733433509789462, 11.733433509789464]",-11.733433509789462,11.733433509789464,0,1,1,0.9934113366693972,1.9934113366693973,1.0065886633306027,3.0,1,1.7434113366693973,0,4.0,3.0,1,2,5,0,5,0,0,3,3,1,,,,,,,395.0776395419962,395.0776395419962,396.0782648749955,396.8304895839974,397.0636351669964,397.0636351669964,397.0636351669964,398.0783052919942,398.0783052919942,398.0783052919942,398.0783052919942,399.07799770899874,200006,003,2023-04-07_11h02.35.102,DMS_et_12-36,2022.2.4,None,
48,UNPRED,12,0.9934113366693972,1,images/picture_2.png,images/picture_1.png,0,"[-11.733433509789466, -11.733433509789462]",-11.733433509789464,-11.733433509789462,images/picture_2.png,1,"[11.733433509789462, -11.733433509789466]",11.733433509789462,-11.733433509789464,images/picture_3.png,2,"[11.733433509789464, 11.733433509789462]",11.733433509789464,11.733433509789462,0,1,1,0.9934113366693972,1.9934113366693973,1.0065886633306027,3.0,1,1.7434113366693973,0,4.0,3.0,1,2,5,0,5,0,0,4,4,3,,,,,,,399.07799770899874,399.07799770899874,400.07829449999554,400.83067412499804,401.0641340840011,401.0641340840011,401.0641340840011,402.0782780839945,402.0782780839945,402.0782780839945,402.0782780839945,403.0773077919948,200006,003,2023-04-07_11h02.35.102,DMS_et_12-36,2022.2.4,None,
49,UNPRED,12,0.9934113366693972,1,images/picture_2.png,images/picture_1.png,0,"[-11.733433509789462, 11.733433509789464]",-11.733433509789462,11.733433509789464,images/picture_2.png,1,"[11.733433509789464, 11.733433509789462]",11.733433509789464,11.733433509789462,images/picture_3.png,2,"[11.733433509789462, -11.733433509789466]",11.733433509789462,-11.733433509789464,0,1,1,0.9934113366693972,1.9934113366693973,1.0065886633306027,3.0,1,1.7434113366693973,0,4.0,3.0,1,2,5,0,5,0,0,5,5,4,,,,,,,403.0773077919948,403.0773077919948,404.0782935839961,404.83069824999984,405.06434216699563,405.06434216699563,405.06434216699563,406.0783212919996,406.0783212919996,406.0783212919996,406.0783212919996,407.0779731250004,200006,003,2023-04-07_11h02.35.102,DMS_et_12-36,2022.2.4,None,
47,UNPRED,12,0.9934113366693972,1,images/picture_2.png,images/picture_1.png,0,"[-11.733433509789466, -11.733433509789462]",-11.733433509789464,-11.733433509789462,images/picture_2.png,1,"[-11.733433509789462, 11.733433509789464]",-11.733433509789462,11.733433509789464,images/picture_3.png,2,"[11.733433509789464, 11.733433509789462]",11.733433509789464,11.733433509789462,0,1,1,0.9934113366693972,1.9934113366693973,1.0065886633306027,3.0,1,1.7434113366693973,0,4.0,3.0,1,2,5,0,5,0,0,6,6,2,,,,,,,407.0779731250004,407.0779731250004,408.07827016699594,408.8307974999989,409.0649783339977,409.0649783339977,409.0649783339977,410.0783248750013,410.0783248750013,410.0783248750013,410.0783248750013,411.07825174999743,200006,003,2023-04-07_11h02.35.102,DMS_et_12-36,2022.2.4,None,
53,UNPRED,12,0.9934113366693972,1,images/picture_2.png,images/picture_1.png,0,"[11.733433509789462, -11.733433509789466]",11.733433509789462,-11.733433509789464,images/picture_2.png,1,"[-11.733433509789466, -11.733433509789462]",-11.733433509789464,-11.733433509789462,images/picture_3.png,2,"[11.733433509789464, 11.733433509789462]",11.733433509789464,11.733433509789462,0,1,1,0.9934113366693972,1.9934113366693973,1.0065886633306027,3.0,1,1.7434113366693973,0,4.0,3.0,1,2,5,0,5,0,0,7,7,8,,,,,,,411.07825174999743,411.07825174999743,412.07846824999433,412.8315078749947,413.0642641249942,413.0642641249942,413.0642641249942,414.07854241699533,414.07854241699533,414.07854241699533,414.07854241699533,415.09693170899845,200006,003,2023-04-07_11h02.35.102,DMS_et_12-36,2022.2.4,None,
52,UNPRED,12,0.9934113366693972,2,images/picture_3.png,images/picture_1.png,0,"[-11.733433509789466, -11.733433509789462]",-11.733433509789464,-11.733433509789462,images/picture_2.png,1,"[11.733433509789464, 11.733433509789462]",11.733433509789464,11.733433509789462,images/picture_3.png,2,"[11.733433509789462, -11.733433509789466]",11.733433509789462,-11.733433509789464,0,1,1,0.9934113366693972,1.9934113366693973,1.0065886633306027,3.0,1,1.7434113366693973,0,4.0,3.0,1,2,5,0,5,0,0,8,8,7,,,,,,,415.09693170899845,415.09693170899845,416.11172783399525,416.8450025419952,417.06419670899777,417.06419670899777,417.06419670899777,418.07819354199455,418.07819354199455,418.07819354199455,418.07819354199455,419.14887958399777,200006,003,2023-04-07_11h02.35.102,DMS_et_12-36,2022.2.4,None,
,,,,,,,,,,,,,,,,,,,,,,,,,,,,,,,,,,,5,0,5,0,,,,,,,,,419.14887958399777,431.16836466699897,,,,,,,,,,,,,200006,003,2023-04-07_11h02.35.102,DMS_et_12-36,2022.2.4,None,
57,PRED,12,0.9934113366693972,0,images/picture_1.png,images/picture_1.png,0,"[-11.733433509789462, 11.733433509789464]",-11.733433509789462,11.733433509789464,images/picture_2.png,1,"[11.733433509789462, -11.733433509789466]",11.733433509789462,-11.733433509789464,images/picture_3.png,2,"[11.733433509789464, 11.733433509789462]",11.733433509789464,11.733433509789462,0,1,1,0.9934113366693972,1.9934113366693973,1.0065886633306027,3.0,1,1.7434113366693973,0,4.0,3.0,1,2,6,0,6,0,0,0,0,3,,,,,,,431.16836466699897,431.16836466699897,432.17847279199486,432.91172899999947,433.1641116669998,433.1641116669998,433.1641116669998,434.17848958399554,434.17848958399554,434.17848958399554,434.16459737499827,435.17782979199546,200006,003,2023-04-07_11h02.35.102,DMS_et_12-36,2022.2.4,None,
56,PRED,12,0.9934113366693972,0,images/picture_1.png,images/picture_1.png,0,"[11.733433509789464, 11.733433509789462]",11.733433509789464,11.733433509789462,images/picture_2.png,1,"[-11.733433509789466, -11.733433509789462]",-11.733433509789464,-11.733433509789462,images/picture_3.png,2,"[11.733433509789462, -11.733433509789466]",11.733433509789462,-11.733433509789464,0,1,1,0.9934113366693972,1.9934113366693973,1.0065886633306027,3.0,1,1.7434113366693973,0,4.0,3.0,1,2,6,0,6,0,0,1,1,2,,,,,,,435.17782979199546,435.17782979199546,436.17849354200007,436.93097041700094,437.1642958339944,437.1642958339944,437.1642958339944,438.1781456669996,438.1781456669996,438.1781456669996,438.1781456669996,439.1780664170001,200006,003,2023-04-07_11h02.35.102,DMS_et_12-36,2022.2.4,None,
54,PRED,12,0.9934113366693972,0,images/picture_1.png,images/picture_1.png,0,"[11.733433509789464, 11.733433509789462]",11.733433509789464,11.733433509789462,images/picture_2.png,1,"[11.733433509789462, -11.733433509789466]",11.733433509789462,-11.733433509789464,images/picture_3.png,2,"[-11.733433509789462, 11.733433509789464]",-11.733433509789462,11.733433509789464,0,1,1,0.9934113366693972,1.9934113366693973,1.0065886633306027,3.0,1,1.7434113366693973,0,4.0,3.0,1,2,6,0,6,0,0,2,2,0,,,,,,,439.1780664170001,439.1780664170001,440.17849987500085,440.9312284999978,441.16452641700016,441.16452641700016,441.16452641700016,442.17807662500127,442.17807662500127,442.17807662500127,442.17807662500127,443.17791937499715,200006,003,2023-04-07_11h02.35.102,DMS_et_12-36,2022.2.4,None,
59,PRED,12,0.9934113366693972,0,images/picture_1.png,images/picture_1.png,0,"[11.733433509789462, -11.733433509789466]",11.733433509789462,-11.733433509789464,images/picture_2.png,1,"[-11.733433509789466, -11.733433509789462]",-11.733433509789464,-11.733433509789462,images/picture_3.png,2,"[-11.733433509789462, 11.733433509789464]",-11.733433509789462,11.733433509789464,0,1,1,0.9934113366693972,1.9934113366693973,1.0065886633306027,3.0,1,1.7434113366693973,0,4.0,3.0,1,2,6,0,6,0,0,3,3,5,,,,,,,443.17791937499715,443.17791937499715,444.17849666699476,444.93102091699984,445.16405212500104,445.16405212500104,445.16405212500104,446.1785045419965,446.1785045419965,446.1785045419965,446.1785045419965,447.1779308749974,200006,003,2023-04-07_11h02.35.102,DMS_et_12-36,2022.2.4,None,
61,PRED,12,0.9934113366693972,0,images/picture_1.png,images/picture_1.png,0,"[-11.733433509789466, -11.733433509789462]",-11.733433509789464,-11.733433509789462,images/picture_2.png,1,"[11.733433509789464, 11.733433509789462]",11.733433509789464,11.733433509789462,images/picture_3.png,2,"[-11.733433509789462, 11.733433509789464]",-11.733433509789462,11.733433509789464,0,1,1,0.9934113366693972,1.9934113366693973,1.0065886633306027,3.0,1,1.7434113366693973,0,4.0,3.0,1,2,6,0,6,0,0,4,4,7,,,,,,,447.1779308749974,447.1779308749974,448.17803516699496,448.93027962499764,449.1643358750007,449.1643358750007,449.1643358750007,450.17846320899844,450.17846320899844,450.17846320899844,450.17846320899844,451.1780269169976,200006,003,2023-04-07_11h02.35.102,DMS_et_12-36,2022.2.4,None,
55,PRED,12,0.9934113366693972,0,images/picture_1.png,images/picture_1.png,0,"[11.733433509789462, -11.733433509789466]",11.733433509789462,-11.733433509789464,images/picture_2.png,1,"[11.733433509789464, 11.733433509789462]",11.733433509789464,11.733433509789462,images/picture_3.png,2,"[-11.733433509789462, 11.733433509789464]",-11.733433509789462,11.733433509789464,0,1,1,0.9934113366693972,1.9934113366693973,1.0065886633306027,3.0,1,1.7434113366693973,0,4.0,3.0,1,2,6,0,6,0,0,5,5,1,,,,,,,451.1780269169976,451.1780269169976,452.1785144589958,452.93134862499574,453.16444516699994,453.16444516699994,453.16444516699994,454.1783073339975,454.1783073339975,454.1783073339975,454.1783073339975,455.17813483400096,200006,003,2023-04-07_11h02.35.102,DMS_et_12-36,2022.2.4,None,
60,PRED,12,0.9934113366693972,0,images/picture_1.png,images/picture_1.png,0,"[-11.733433509789462, 11.733433509789464]",-11.733433509789462,11.733433509789464,images/picture_2.png,1,"[-11.733433509789466, -11.733433509789462]",-11.733433509789464,-11.733433509789462,images/picture_3.png,2,"[11.733433509789464, 11.733433509789462]",11.733433509789464,11.733433509789462,0,1,1,0.9934113366693972,1.9934113366693973,1.0065886633306027,3.0,1,1.7434113366693973,0,4.0,3.0,1,2,6,0,6,0,0,6,6,6,,,,,,,455.17813483400096,455.17813483400096,456.1785335839959,456.9350392089982,457.1644789589991,457.1644789589991,457.1644789589991,458.1782449589955,458.1782449589955,458.1782449589955,458.1782449589955,459.1781133339973,200006,003,2023-04-07_11h02.35.102,DMS_et_12-36,2022.2.4,None,
62,PRED,12,0.9934113366693972,0,images/picture_1.png,images/picture_1.png,0,"[-11.733433509789466, -11.733433509789462]",-11.733433509789464,-11.733433509789462,images/picture_2.png,1,"[11.733433509789462, -11.733433509789466]",11.733433509789462,-11.733433509789464,images/picture_3.png,2,"[-11.733433509789462, 11.733433509789464]",-11.733433509789462,11.733433509789464,0,1,1,0.9934113366693972,1.9934113366693973,1.0065886633306027,3.0,1,1.7434113366693973,0,4.0,3.0,1,2,6,0,6,0,0,7,7,8,,,,,,,459.1781133339973,459.1781133339973,460.1781564589983,460.9311549999984,461.16440466699714,461.16440466699714,461.16440466699714,462.1785629590013,462.1785629590013,462.1785629590013,462.1785629590013,463.17784408399893,200006,003,2023-04-07_11h02.35.102,DMS_et_12-36,2022.2.4,None,
58,PRED,12,0.9934113366693972,0,images/picture_1.png,images/picture_1.png,0,"[11.733433509789462, -11.733433509789466]",11.733433509789462,-11.733433509789464,images/picture_2.png,1,"[-11.733433509789462, 11.733433509789464]",-11.733433509789462,11.733433509789464,images/picture_3.png,2,"[11.733433509789464, 11.733433509789462]",11.733433509789464,11.733433509789462,0,1,1,0.9934113366693972,1.9934113366693973,1.0065886633306027,3.0,1,1.7434113366693973,0,4.0,3.0,1,2,6,0,6,0,0,8,8,4,,,,,,,463.17784408399893,463.17784408399893,464.17823712500103,464.93065995899815,465.1641425419948,465.1641425419948,465.1641425419948,466.17784404199483,466.17784404199483,466.17784404199483,466.17784404199483,467.2584522920006,200006,003,2023-04-07_11h02.35.102,DMS_et_12-36,2022.2.4,None,
,,,,,,,,,,,,,,,,,,,,,,,,,,,,,,,,,,,6,0,6,0,,,,,,,,,467.2584522920006,479.2741958339975,,,,,,,,,,,,,200006,003,2023-04-07_11h02.35.102,DMS_et_12-36,2022.2.4,None,
68,UNPRED,12,0.9934113366693972,2,images/picture_3.png,images/picture_1.png,0,"[-11.733433509789462, 11.733433509789464]",-11.733433509789462,11.733433509789464,images/picture_2.png,1,"[-11.733433509789466, -11.733433509789462]",-11.733433509789464,-11.733433509789462,images/picture_3.png,2,"[11.733433509789464, 11.733433509789462]",11.733433509789464,11.733433509789462,0,1,1,0.9934113366693972,1.9934113366693973,1.0065886633306027,3.0,1,1.7434113366693973,0,4.0,3.0,1,2,7,0,7,0,0,0,0,5,,,,,,,479.2741958339975,479.2741958339975,480.2784460420007,481.03076924999914,481.26377041699743,481.26377041699743,481.26377041699743,482.27834120899934,482.27834120899934,482.27834120899934,482.2640931249989,483.297838874998,200006,003,2023-04-07_11h02.35.102,DMS_et_12-36,2022.2.4,None,
67,UNPRED,12,0.9934113366693972,2,images/picture_3.png,images/picture_1.png,0,"[11.733433509789462, -11.733433509789466]",11.733433509789462,-11.733433509789464,images/picture_2.png,1,"[11.733433509789464, 11.733433509789462]",11.733433509789464,11.733433509789462,images/picture_3.png,2,"[-11.733433509789466, -11.733433509789462]",-11.733433509789464,-11.733433509789462,0,1,1,0.9934113366693972,1.9934113366693973,1.0065886633306027,3.0,1,1.7434113366693973,0,4.0,3.0,1,2,7,0,7,0,0,1,1,4,,,,,,,483.297838874998,483.297838874998,484.31156570899475,485.0449766249949,485.26410479199694,485.26410479199694,485.26410479199694,486.27826758399897,486.27826758399897,486.27826758399897,486.27826758399897,487.277524541998,200006,003,2023-04-07_11h02.35.102,DMS_et_12-36,2022.2.4,None,
66,UNPRED,12,0.9934113366693972,0,images/picture_1.png,images/picture_1.png,0,"[11.733433509789462, -11.733433509789466]",11.733433509789462,-11.733433509789464,images/picture_2.png,1,"[-11.733433509789466, -11.733433509789462]",-11.733433509789464,-11.733433509789462,images/picture_3.png,2,"[-11.733433509789462, 11.733433509789464]",-11.733433509789462,11.733433509789464,0,1,1,0.9934113366693972,1.9934113366693973,1.0065886633306027,3.0,1,1.7434113366693973,0,4.0,3.0,1,2,7,0,7,0,0,2,2,3,,,,,,,487.277524541998,487.277524541998,488.27834033399995,489.03011562499887,489.2639659589986,489.2639659589986,489.2639659589986,490.2781737089972,490.2781737089972,490.2781737089972,490.2781737089972,491.278024291998,200006,003,2023-04-07_11h02.35.102,DMS_et_12-36,2022.2.4,None,
71,UNPRED,12,0.9934113366693972,0,images/picture_1.png,images/picture_1.png,0,"[11.733433509789462, -11.733433509789466]",11.733433509789462,-11.733433509789464,images/picture_2.png,1,"[-11.733433509789466, -11.733433509789462]",-11.733433509789464,-11.733433509789462,images/picture_3.png,2,"[11.733433509789464, 11.733433509789462]",11.733433509789464,11.733433509789462,0,1,1,0.9934113366693972,1.9934113366693973,1.0065886633306027,3.0,1,1.7434113366693973,0,4.0,3.0,1,2,7,0,7,0,0,3,3,8,,,,,,,491.278024291998,491.278024291998,492.27816924999934,493.0309022500005,493.2636743749972,493.2636743749972,493.2636743749972,494.2782329999973,494.2782329999973,494.2782329999973,494.2782329999973,495.2770828339999,200006,003,2023-04-07_11h02.35.102,DMS_et_12-36,2022.2.4,None,
64,UNPRED,12,0.9934113366693972,1,images/picture_2.png,images/picture_1.png,0,"[-11.733433509789462, 11.733433509789464]",-11.733433509789462,11.733433509789464,images/picture_2.png,1,"[11.733433509789464, 11.733433509789462]",11.733433509789464,11.733433509789462,images/picture_3.png,2,"[-11.733433509789466, -11.733433509789462]",-11.733433509789464,-11.733433509789462,0,1,1,0.9934113366693972,1.9934113366693973,1.0065886633306027,3.0,1,1.7434113366693973,0,4.0,3.0,1,2,7,0,7,0,0,4,4,1,,,,,,,495.2770828339999,495.2770828339999,496.2779997920006,497.03077266699984,497.2634307919943,497.2634307919943,497.2634307919943,498.2782970420012,498.2782970420012,498.2782970420012,498.2782970420012,499.27774249999493,200006,003,2023-04-07_11h02.35.102,DMS_et_12-36,2022.2.4,None,
69,UNPRED,12,0.9934113366693972,0,images/picture_1.png,images/picture_1.png,0,"[11.733433509789462, -11.733433509789466]",11.733433509789462,-11.733433509789464,images/picture_2.png,1,"[11.733433509789464, 11.733433509789462]",11.733433509789464,11.733433509789462,images/picture_3.png,2,"[-11.733433509789462, 11.733433509789464]",-11.733433509789462,11.733433509789464,0,1,1,0.9934113366693972,1.9934113366693973,1.0065886633306027,3.0,1,1.7434113366693973,0,4.0,3.0,1,2,7,0,7,0,0,5,5,6,,,,,,,499.27774249999493,499.27774249999493,500.2781357499989,501.03081679200113,501.26443099999597,501.26443099999597,501.26443099999597,502.2780897919947,502.2780897919947,502.2780897919947,502.2780897919947,503.27776299999823,200006,003,2023-04-07_11h02.35.102,DMS_et_12-36,2022.2.4,None,
70,UNPRED,12,0.9934113366693972,0,images/picture_1.png,images/picture_1.png,0,"[-11.733433509789462, 11.733433509789464]",-11.733433509789462,11.733433509789464,images/picture_2.png,1,"[11.733433509789464, 11.733433509789462]",11.733433509789464,11.733433509789462,images/picture_3.png,2,"[-11.733433509789466, -11.733433509789462]",-11.733433509789464,-11.733433509789462,0,1,1,0.9934113366693972,1.9934113366693973,1.0065886633306027,3.0,1,1.7434113366693973,0,4.0,3.0,1,2,7,0,7,0,0,6,6,7,,,,,,,503.27776299999823,503.27776299999823,504.27826391699637,505.03082483400067,505.26409204199445,505.26409204199445,505.26409204199445,506.27827779200015,506.27827779200015,506.27827779200015,506.27827779200015,507.2973492919991,200006,003,2023-04-07_11h02.35.102,DMS_et_12-36,2022.2.4,None,
65,UNPRED,12,0.9934113366693972,2,images/picture_3.png,images/picture_1.png,0,"[-11.733433509789466, -11.733433509789462]",-11.733433509789464,-11.733433509789462,images/picture_2.png,1,"[-11.733433509789462, 11.733433509789464]",-11.733433509789462,11.733433509789464,images/picture_3.png,2,"[11.733433509789464, 11.733433509789462]",11.733433509789464,11.733433509789462,0,1,1,0.9934113366693972,1.9934113366693973,1.0065886633306027,3.0,1,1.7434113366693973,0,4.0,3.0,1,2,7,0,7,0,0,7,7,2,,,,,,,507.2973492919991,507.2973492919991,508.31158504199993,509.04506799999945,509.26341720899654,509.26341720899654,509.26341720899654,510.27799145899917,510.27799145899917,510.27799145899917,510.27799145899917,511.2968154170012,200006,003,2023-04-07_11h02.35.102,DMS_et_12-36,2022.2.4,None,
63,UNPRED,12,0.9934113366693972,2,images/picture_3.png,images/picture_1.png,0,"[11.733433509789462, -11.733433509789466]",11.733433509789462,-11.733433509789464,images/picture_2.png,1,"[-11.733433509789462, 11.733433509789464]",-11.733433509789462,11.733433509789464,images/picture_3.png,2,"[-11.733433509789466, -11.733433509789462]",-11.733433509789464,-11.733433509789462,0,1,1,0.9934113366693972,1.9934113366693973,1.0065886633306027,3.0,1,1.7434113366693973,0,4.0,3.0,1,2,7,0,7,0,0,8,8,0,,,,,,,511.2968154170012,511.2968154170012,512.3115931669963,513.0449979170007,513.2641591249994,513.2641591249994,513.2641591249994,514.2781459589969,514.2781459589969,514.2781459589969,514.2781459589969,515.3669102919957,200006,003,2023-04-07_11h02.35.102,DMS_et_12-36,2022.2.4,None,
,,,,,,,,,,,,,,,,,,,,,,,,,,,,,,,,,,,7,0,7,0,,,,,,,,,515.3669102919957,527.4100862089981,,,,,,,,,,,,,200006,003,2023-04-07_11h02.35.102,DMS_et_12-36,2022.2.4,None,
75,PRED,12,0.9934113366693972,2,images/picture_3.png,images/picture_1.png,0,"[-11.733433509789462, 11.733433509789464]",-11.733433509789462,11.733433509789464,images/picture_2.png,1,"[11.733433509789462, -11.733433509789466]",11.733433509789462,-11.733433509789464,images/picture_3.png,2,"[-11.733433509789466, -11.733433509789462]",-11.733433509789464,-11.733433509789462,0,1,1,0.9934113366693972,1.9934113366693973,1.0065886633306027,3.0,1,1.7434113366693973,0,4.0,3.0,1,2,8,0,8,0,0,0,0,3,,,,,,,527.4100862089981,527.4100862089981,528.4119569589966,529.1640299589999,529.397872374997,529.397872374997,529.397872374997,530.4114535839981,530.4114535839981,530.4114535839981,530.3970432089991,531.4301565419955,200006,003,2023-04-07_11h02.35.102,DMS_et_12-36,2022.2.4,None,
77,PRED,12,0.9934113366693972,2,images/picture_3.png,images/picture_1.png,0,"[-11.733433509789462, 11.733433509789464]",-11.733433509789462,11.733433509789464,images/picture_2.png,1,"[11.733433509789464, 11.733433509789462]",11.733433509789464,11.733433509789462,images/picture_3.png,2,"[-11.733433509789466, -11.733433509789462]",-11.733433509789464,-11.733433509789462,0,1,1,0.9934113366693972,1.9934113366693973,1.0065886633306027,3.0,1,1.7434113366693973,0,4.0,3.0,1,2,8,0,8,0,0,1,1,5,,,,,,,531.4301565419955,531.4301565419955,532.4450244170002,533.1783092499973,533.3975142919953,533.3975142919953,533.3975142919953,534.4117579999947,534.4117579999947,534.4117579999947,534.4117579999947,535.4303820839996,200006,003,2023-04-07_11h02.35.102,DMS_et_12-36,2022.2.4,None,
72,PRED,12,0.9934113366693972,2,images/picture_3.png,images/picture_1.png,0,"[11.733433509789462, -11.733433509789466]",11.733433509789462,-11.733433509789464,images/picture_2.png,1,"[-11.733433509789466, -11.733433509789462]",-11.733433509789464,-11.733433509789462,images/picture_3.png,2,"[-11.733433509789462, 11.733433509789464]",-11.733433509789462,11.733433509789464,0,1,1,0.9934113366693972,1.9934113366693973,1.0065886633306027,3.0,1,1.7434113366693973,0,4.0,3.0,1,2,8,0,8,0,0,2,2,0,,,,,,,535.4303820839996,535.4303820839996,536.4450223339954,537.1782314589946,537.3974872499966,537.3974872499966,537.3974872499966,538.4117302919985,538.4117302919985,538.4117302919985,538.4117302919985,539.4307990419984,200006,003,2023-04-07_11h02.35.102,DMS_et_12-36,2022.2.4,None,
79,PRED,12,0.9934113366693972,2,images/picture_3.png,images/picture_1.png,0,"[-11.733433509789462, 11.733433509789464]",-11.733433509789462,11.733433509789464,images/picture_2.png,1,"[11.733433509789462, -11.733433509789466]",11.733433509789462,-11.733433509789464,images/picture_3.png,2,"[11.733433509789464, 11.733433509789462]",11.733433509789464,11.733433509789462,0,1,1,0.9934113366693972,1.9934113366693973,1.0065886633306027,3.0,1,1.7434113366693973,0,4.0,3.0,1,2,8,0,8,0,0,3,3,7,,,,,,,539.4307990419984,539.4307990419984,540.4445721250013,541.1778510000004,541.3977082089987,541.3977082089987,541.3977082089987,542.4117247920003,542.4117247920003,542.4117247920003,542.4117247920003,543.4304927089979,200006,003,2023-04-07_11h02.35.102,DMS_et_12-36,2022.2.4,None,
78,PRED,12,0.9934113366693972,2,images/picture_3.png,images/picture_1.png,0,"[11.733433509789464, 11.733433509789462]",11.733433509789464,11.733433509789462,images/picture_2.png,1,"[11.733433509789462, -11.733433509789466]",11.733433509789462,-11.733433509789464,images/picture_3.png,2,"[-11.733433509789462, 11.733433509789464]",-11.733433509789462,11.733433509789464,0,1,1,0.9934113366693972,1.9934113366693973,1.0065886633306027,3.0,1,1.7434113366693973,0,4.0,3.0,1,2,8,0,8,0,0,4,4,6,,,,,,,543.4304927089979,543.4304927089979,544.4449719999975,545.1783449590002,545.3974316669992,545.3974316669992,545.3974316669992,546.4117677089962,546.4117677089962,546.4117677089962,546.4117677089962,547.4302471249975,200006,003,2023-04-07_11h02.35.102,DMS_et_12-36,2022.2.4,None,
80,PRED,12,0.9934113366693972,2,images/picture_3.png,images/picture_1.png,0,"[11.733433509789464, 11.733433509789462]",11.733433509789464,11.733433509789462,images/picture_2.png,1,"[-11.733433509789462, 11.733433509789464]",-11.733433509789462,11.733433509789464,images/picture_3.png,2,"[11.733433509789462, -11.733433509789466]",11.733433509789462,-11.733433509789464,0,1,1,0.9934113366693972,1.9934113366693973,1.0065886633306027,3.0,1,1.7434113366693973,0,4.0,3.0,1,2,8,0,8,0,0,5,5,8,,,,,,,547.4302471249975,547.4302471249975,548.4450062089963,549.1782792499944,549.3977704169956,549.3977704169956,549.3977704169956,550.4114144169944,550.4114144169944,550.4114144169944,550.4114144169944,551.4124137089966,200006,003,2023-04-07_11h02.35.102,DMS_et_12-36,2022.2.4,None,
76,PRED,12,0.9934113366693972,2,images/picture_3.png,images/picture_1.png,0,"[11.733433509789464, 11.733433509789462]",11.733433509789464,11.733433509789462,images/picture_2.png,1,"[11.733433509789462, -11.733433509789466]",11.733433509789462,-11.733433509789464,images/picture_3.png,2,"[-11.733433509789462, 11.733433509789464]",-11.733433509789462,11.733433509789464,0,1,1,0.9934113366693972,1.9934113366693973,1.0065886633306027,3.0,1,1.7434113366693973,0,4.0,3.0,1,2,8,0,8,0,0,6,6,4,,,,,,,551.4124137089966,551.4124137089966,552.411716208997,553.1636759169996,553.3971354169989,553.3971354169989,553.3971354169989,554.4118012920007,554.4118012920007,554.4118012920007,554.4118012920007,555.4304167919981,200006,003,2023-04-07_11h02.35.102,DMS_et_12-36,2022.2.4,None,
73,PRED,12,0.9934113366693972,2,images/picture_3.png,images/picture_1.png,0,"[11.733433509789462, -11.733433509789466]",11.733433509789462,-11.733433509789464,images/picture_2.png,1,"[-11.733433509789462, 11.733433509789464]",-11.733433509789462,11.733433509789464,images/picture_3.png,2,"[-11.733433509789466, -11.733433509789462]",-11.733433509789464,-11.733433509789462,0,1,1,0.9934113366693972,1.9934113366693973,1.0065886633306027,3.0,1,1.7434113366693973,0,4.0,3.0,1,2,8,0,8,0,0,7,7,1,,,,,,,555.4304167919981,555.4304167919981,556.4450776249942,557.1782717919996,557.3975470419973,557.3975470419973,557.3975470419973,558.4117439170004,558.4117439170004,558.4117439170004,558.4117439170004,559.4309867919947,200006,003,2023-04-07_11h02.35.102,DMS_et_12-36,2022.2.4,None,
74,PRED,12,0.9934113366693972,2,images/picture_3.png,images/picture_1.png,0,"[11.733433509789462, -11.733433509789466]",11.733433509789462,-11.733433509789464,images/picture_2.png,1,"[11.733433509789464, 11.733433509789462]",11.733433509789464,11.733433509789462,images/picture_3.png,2,"[-11.733433509789462, 11.733433509789464]",-11.733433509789462,11.733433509789464,0,1,1,0.9934113366693972,1.9934113366693973,1.0065886633306027,3.0,1,1.7434113366693973,0,4.0,3.0,1,2,8,0,8,0,0,8,8,2,,,,,,,559.4309867919947,559.4309867919947,560.4451279589994,561.1782976670002,561.3967574589988,561.3967574589988,561.3967574589988,562.4117233750003,562.4117233750003,562.4117233750003,562.4117233750003,563.5078047499992,200006,003,2023-04-07_11h02.35.102,DMS_et_12-36,2022.2.4,None,
,,,,,,,,,,,,,,,,,,,,,,,,,,,,,,,,,,,8,0,8,0,,,,,,,,,563.5078047499992,575.5322973340008,,,,,,,,,,,,,200006,003,2023-04-07_11h02.35.102,DMS_et_12-36,2022.2.4,None,
89,UNPRED,12,0.9934113366693972,0,images/picture_1.png,images/picture_1.png,0,"[11.733433509789464, 11.733433509789462]",11.733433509789464,11.733433509789462,images/picture_2.png,1,"[11.733433509789462, -11.733433509789466]",11.733433509789462,-11.733433509789464,images/picture_3.png,2,"[-11.733433509789462, 11.733433509789464]",-11.733433509789462,11.733433509789464,0,1,1,0.9934113366693972,1.9934113366693973,1.0065886633306027,3.0,1,1.7434113366693973,0,4.0,3.0,1,2,9,0,9,0,0,0,0,8,,,,,,,575.5322973340008,575.5322973340008,576.545036042,577.278128209,577.5310247919988,577.5310247919988,577.5310247919988,578.5450545839994,578.5450545839994,578.5450545839994,578.5311122089988,579.5444248749991,200006,003,2023-04-07_11h02.35.102,DMS_et_12-36,2022.2.4,None,
82,UNPRED,12,0.9934113366693972,0,images/picture_1.png,images/picture_1.png,0,"[-11.733433509789462, 11.733433509789464]",-11.733433509789462,11.733433509789464,images/picture_2.png,1,"[11.733433509789462, -11.733433509789466]",11.733433509789462,-11.733433509789464,images/picture_3.png,2,"[-11.733433509789466, -11.733433509789462]",-11.733433509789464,-11.733433509789462,0,1,1,0.9934113366693972,1.9934113366693973,1.0065886633306027,3.0,1,1.7434113366693973,0,4.0,3.0,1,2,9,0,9,0,0,1,1,1,,,,,,,579.5444248749991,579.5444248749991,580.5449847499985,581.2970571670012,581.530305041997,581.530305041997,581.530305041997,582.5450650419953,582.5450650419953,582.5450650419953,582.5450650419953,583.5444527919972,200006,003,2023-04-07_11h02.35.102,DMS_et_12-36,2022.2.4,None,
81,UNPRED,12,0.9934113366693972,0,images/picture_1.png,images/picture_1.png,0,"[11.733433509789462, -11.733433509789466]",11.733433509789462,-11.733433509789464,images/picture_2.png,1,"[11.733433509789464, 11.733433509789462]",11.733433509789464,11.733433509789462,images/picture_3.png,2,"[-11.733433509789462, 11.733433509789464]",-11.733433509789462,11.733433509789464,0,1,1,0.9934113366693972,1.9934113366693973,1.0065886633306027,3.0,1,1.7434113366693973,0,4.0,3.0,1,2,9,0,9,0,0,2,2,0,,,,,,,583.5444527919972,583.5444527919972,584.5450434589948,585.2980777919947,585.5307965419997,585.5307965419997,585.5307965419997,586.5450143749986,586.5450143749986,586.5450143749986,586.5450143749986,587.5633665419955,200006,003,2023-04-07_11h02.35.102,DMS_et_12-36,2022.2.4,None,
85,UNPRED,12,0.9934113366693972,2,images/picture_3.png,images/picture_1.png,0,"[11.733433509789464, 11.733433509789462]",11.733433509789464,11.733433509789462,images/picture_2.png,1,"[-11.733433509789462, 11.733433509789464]",-11.733433509789462,11.733433509789464,images/picture_3.png,2,"[-11.733433509789466, -11.733433509789462]",-11.733433509789464,-11.733433509789462,0,1,1,0.9934113366693972,1.9934113366693973,1.0065886633306027,3.0,1,1.7434113366693973,0,4.0,3.0,1,2,9,0,9,0,0,3,3,4,,,,,,,587.5633665419955,587.5633665419955,588.5783131669959,589.3117778339947,589.5311521249969,589.5311521249969,589.5311521249969,590.5450373339991,590.5450373339991,590.5450373339991,590.5450373339991,591.5452767499955,200006,003,2023-04-07_11h02.35.102,DMS_et_12-36,2022.2.4,None,
87,UNPRED,12,0.9934113366693972,2,images/picture_3.png,images/picture_1.png,0,"[-11.733433509789462, 11.733433509789464]",-11.733433509789462,11.733433509789464,images/picture_2.png,1,"[11.733433509789464, 11.733433509789462]",11.733433509789464,11.733433509789462,images/picture_3.png,2,"[11.733433509789462, -11.733433509789466]",11.733433509789462,-11.733433509789464,0,1,1,0.9934113366693972,1.9934113366693973,1.0065886633306027,3.0,1,1.7434113366693973,0,4.0,3.0,1,2,9,0,9,0,0,4,4,6,,,,,,,591.5452767499955,591.5452767499955,592.5450599169999,593.2974036669984,593.5310471669945,593.5310471669945,593.5310471669945,594.5450249169953,594.5450249169953,594.5450249169953,594.5450249169953,595.5444067499993,200006,003,2023-04-07_11h02.35.102,DMS_et_12-36,2022.2.4,None,
88,UNPRED,12,0.9934113366693972,1,images/picture_2.png,images/picture_1.png,0,"[11.733433509789464, 11.733433509789462]",11.733433509789464,11.733433509789462,images/picture_2.png,1,"[-11.733433509789462, 11.733433509789464]",-11.733433509789462,11.733433509789464,images/picture_3.png,2,"[-11.733433509789466, -11.733433509789462]",-11.733433509789464,-11.733433509789462,0,1,1,0.9934113366693972,1.9934113366693973,1.0065886633306027,3.0,1,1.7434113366693973,0,4.0,3.0,1,2,9,0,9,0,0,5,5,7,,,,,,,595.5444067499993,595.5444067499993,596.5451051669952,597.2973783339985,597.5309689589994,597.5309689589994,597.5309689589994,598.545041708996,598.545041708996,598.545041708996,598.545041708996,599.5441299999948,200006,003,2023-04-07_11h02.35.102,DMS_et_12-36,2022.2.4,None,
86,UNPRED,12,0.9934113366693972,0,images/picture_1.png,images/picture_1.png,0,"[11.733433509789464, 11.733433509789462]",11.733433509789464,11.733433509789462,images/picture_2.png,1,"[11.733433509789462, -11.733433509789466]",11.733433509789462,-11.733433509789464,images/picture_3.png,2,"[-11.733433509789466, -11.733433509789462]",-11.733433509789464,-11.733433509789462,0,1,1,0.9934113366693972,1.9934113366693973,1.0065886633306027,3.0,1,1.7434113366693973,0,4.0,3.0,1,2,9,0,9,0,0,6,6,5,,,,,,,599.5441299999948,599.5441299999948,600.5449937919984,601.29754675,601.5304448749957,601.5304448749957,601.5304448749957,602.5447172089989,602.5447172089989,602.5447172089989,602.5447172089989,603.5641645840005,200006,003,2023-04-07_11h02.35.102,DMS_et_12-36,2022.2.4,None,
84,UNPRED,12,0.9934113366693972,2,images/picture_3.png,images/picture_1.png,0,"[11.733433509789464, 11.733433509789462]",11.733433509789464,11.733433509789462,images/picture_2.png,1,"[-11.733433509789462, 11.733433509789464]",-11.733433509789462,11.733433509789464,images/picture_3.png,2,"[11.733433509789462, -11.733433509789466]",11.733433509789462,-11.733433509789464,0,1,1,0.9934113366693972,1.9934113366693973,1.0065886633306027,3.0,1,1.7434113366693973,0,4.0,3.0,1,2,9,0,9,0,0,7,7,3,,,,,,,603.5641645840005,603.5641645840005,604.578476374998,605.3117374590001,605.5308184999958,605.5308184999958,605.5308184999958,606.5450452500008,606.5450452500008,606.5450452500008,606.5450452500008,607.563420749997,200006,003,2023-04-07_11h02.35.102,DMS_et_12-36,2022.2.4,None,
83,UNPRED,12,0.9934113366693972,2,images/picture_3.png,images/picture_1.png,0,"[-11.733433509789466, -11.733433509789462]",-11.733433509789464,-11.733433509789462,images/picture_2.png,1,"[-11.733433509789462, 11.733433509789464]",-11.733433509789462,11.733433509789464,images/picture_3.png,2,"[11.733433509789462, -11.733433509789466]",11.733433509789462,-11.733433509789464,0,1,1,0.9934113366693972,1.9934113366693973,1.0065886633306027,3.0,1,1.7434113366693973,0,4.0,3.0,1,2,9,0,9,0,0,8,8,2,,,,,,,607.563420749997,607.563420749997,608.5783888340011,609.3117959589945,609.5311825419994,609.5311825419994,609.5311825419994,610.5450562089973,610.5450562089973,610.5450562089973,610.5450562089973,611.6456679589974,200006,003,2023-04-07_11h02.35.102,DMS_et_12-36,2022.2.4,None,
,,,,,,,,,,,,,,,,,,,,,,,,,,,,,,,,,,,9,0,9,0,,,,,,,,,611.6456679589974,623.67822075,,,,,,,,,,,,,200006,003,2023-04-07_11h02.35.102,DMS_et_12-36,2022.2.4,None,
93,PRED,12,0.9934113366693972,2,images/picture_3.png,images/picture_1.png,0,"[11.733433509789462, -11.733433509789466]",11.733433509789462,-11.733433509789464,images/picture_2.png,1,"[11.733433509789464, 11.733433509789462]",11.733433509789464,11.733433509789462,images/picture_3.png,2,"[-11.733433509789462, 11.733433509789464]",-11.733433509789462,11.733433509789464,0,1,1,0.9934113366693972,1.9934113366693973,1.0065886633306027,3.0,1,1.7434113366693973,0,4.0,3.0,1,2,10,0,10,0,0,0,0,3,,,,,,,623.67822075,623.67822075,624.6783015420006,625.431044459001,625.6641980419954,625.6641980419954,625.6641980419954,626.6785397919957,626.6785397919957,626.6785397919957,626.6645212090007,627.6969393339969,200006,003,2023-04-07_11h02.35.102,DMS_et_12-36,2022.2.4,None,
98,PRED,12,0.9934113366693972,2,images/picture_3.png,images/picture_1.png,0,"[11.733433509789462, -11.733433509789466]",11.733433509789462,-11.733433509789464,images/picture_2.png,1,"[-11.733433509789462, 11.733433509789464]",-11.733433509789462,11.733433509789464,images/picture_3.png,2,"[11.733433509789464, 11.733433509789462]",11.733433509789464,11.733433509789462,0,1,1,0.9934113366693972,1.9934113366693973,1.0065886633306027,3.0,1,1.7434113366693973,0,4.0,3.0,1,2,10,0,10,0,0,1,1,8,,,,,,,627.6969393339969,627.6969393339969,628.7117624589955,629.4450507500005,629.6642879589999,629.6642879589999,629.6642879589999,630.6783115419967,630.6783115419967,630.6783115419967,630.6783115419967,631.6970424169995,200006,003,2023-04-07_11h02.35.102,DMS_et_12-36,2022.2.4,None,
97,PRED,12,0.9934113366693972,2,images/picture_3.png,images/picture_1.png,0,"[-11.733433509789462, 11.733433509789464]",-11.733433509789462,11.733433509789464,images/picture_2.png,1,"[-11.733433509789466, -11.733433509789462]",-11.733433509789464,-11.733433509789462,images/picture_3.png,2,"[11.733433509789464, 11.733433509789462]",11.733433509789464,11.733433509789462,0,1,1,0.9934113366693972,1.9934113366693973,1.0065886633306027,3.0,1,1.7434113366693973,0,4.0,3.0,1,2,10,0,10,0,0,2,2,7,,,,,,,631.6970424169995,631.6970424169995,632.7114888340002,633.4450475419944,633.6645627089965,633.6645627089965,633.6645627089965,634.6785046250006,634.6785046250006,634.6785046250006,634.6785046250006,635.6967989589975,200006,003,2023-04-07_11h02.35.102,DMS_et_12-36,2022.2.4,None,
95,PRED,12,0.9934113366693972,2,images/picture_3.png,images/picture_1.png,0,"[11.733433509789464, 11.733433509789462]",11.733433509789464,11.733433509789462,images/picture_2.png,1,"[11.733433509789462, -11.733433509789466]",11.733433509789462,-11.733433509789464,images/picture_3.png,2,"[-11.733433509789466, -11.733433509789462]",-11.733433509789464,-11.733433509789462,0,1,1,0.9934113366693972,1.9934113366693973,1.0065886633306027,3.0,1,1.7434113366693973,0,4.0,3.0,1,2,10,0,10,0,0,3,3,5,,,,,,,635.6967989589975,635.6967989589975,636.7117980839976,637.4450303749982,637.6642517090004,637.6642517090004,637.6642517090004,638.6784461669959,638.6784461669959,638.6784461669959,638.6784461669959,639.6974514589965,200006,003,2023-04-07_11h02.35.102,DMS_et_12-36,2022.2.4,None,
90,PRED,12,0.9934113366693972,2,images/picture_3.png,images/picture_1.png,0,"[11.733433509789464, 11.733433509789462]",11.733433509789464,11.733433509789462,images/picture_2.png,1,"[-11.733433509789462, 11.733433509789464]",-11.733433509789462,11.733433509789464,images/picture_3.png,2,"[11.733433509789462, -11.733433509789466]",11.733433509789462,-11.733433509789464,0,1,1,0.9934113366693972,1.9934113366693973,1.0065886633306027,3.0,1,1.7434113366693973,0,4.0,3.0,1,2,10,0,10,0,0,4,4,0,,,,,,,639.6974514589965,639.6974514589965,640.7117653749956,641.4452046250008,641.6641486669978,641.6641486669978,641.6641486669978,642.6781466249959,642.6781466249959,642.6781466249959,642.6781466249959,643.6971172919948,200006,003,2023-04-07_11h02.35.102,DMS_et_12-36,2022.2.4,None,
92,PRED,12,0.9934113366693972,2,images/picture_3.png,images/picture_1.png,0,"[11.733433509789464, 11.733433509789462]",11.733433509789464,11.733433509789462,images/picture_2.png,1,"[11.733433509789462, -11.733433509789466]",11.733433509789462,-11.733433509789464,images/picture_3.png,2,"[-11.733433509789466, -11.733433509789462]",-11.733433509789464,-11.733433509789462,0,1,1,0.9934113366693972,1.9934113366693973,1.0065886633306027,3.0,1,1.7434113366693973,0,4.0,3.0,1,2,10,0,10,0,0,5,5,2,,,,,,,643.6971172919948,643.6971172919948,644.7118185419968,645.4452682499978,645.6643762499953,645.6643762499953,645.6643762499953,646.6784837089945,646.6784837089945,646.6784837089945,646.6784837089945,647.6972312090002,200006,003,2023-04-07_11h02.35.102,DMS_et_12-36,2022.2.4,None,
91,PRED,12,0.9934113366693972,2,images/picture_3.png,images/picture_1.png,0,"[11.733433509789464, 11.733433509789462]",11.733433509789464,11.733433509789462,images/picture_2.png,1,"[-11.733433509789466, -11.733433509789462]",-11.733433509789464,-11.733433509789462,images/picture_3.png,2,"[-11.733433509789462, 11.733433509789464]",-11.733433509789462,11.733433509789464,0,1,1,0.9934113366693972,1.9934113366693973,1.0065886633306027,3.0,1,1.7434113366693973,0,4.0,3.0,1,2,10,0,10,0,0,6,6,1,,,,,,,647.6972312090002,647.6972312090002,648.7117299169986,649.4450473749966,649.6643064999953,649.6643064999953,649.6643064999953,650.6785016669965,650.6785016669965,650.6785016669965,650.6785016669965,651.6975169169964,200006,003,2023-04-07_11h02.35.102,DMS_et_12-36,2022.2.4,None,
94,PRED,12,0.9934113366693972,2,images/picture_3.png,images/picture_1.png,0,"[11.733433509789464, 11.733433509789462]",11.733433509789464,11.733433509789462,images/picture_2.png,1,"[-11.733433509789462, 11.733433509789464]",-11.733433509789462,11.733433509789464,images/picture_3.png,2,"[11.733433509789462, -11.733433509789466]",11.733433509789462,-11.733433509789464,0,1,1,0.9934113366693972,1.9934113366693973,1.0065886633306027,3.0,1,1.7434113366693973,0,4.0,3.0,1,2,10,0,10,0,0,7,7,4,,,,,,,651.6975169169964,651.6975169169964,652.7118045419993,653.445163958997,653.6636664999969,653.6636664999969,653.6636664999969,654.6785777499972,654.6785777499972,654.6785777499972,654.6785777499972,655.6970639589999,200006,003,2023-04-07_11h02.35.102,DMS_et_12-36,2022.2.4,None,
96,PRED,12,0.9934113366693972,2,images/picture_3.png,images/picture_1.png,0,"[-11.733433509789462, 11.733433509789464]",-11.733433509789462,11.733433509789464,images/picture_2.png,1,"[11.733433509789464, 11.733433509789462]",11.733433509789464,11.733433509789462,images/picture_3.png,2,"[11.733433509789462, -11.733433509789466]",11.733433509789462,-11.733433509789464,0,1,1,0.9934113366693972,1.9934113366693973,1.0065886633306027,3.0,1,1.7434113366693973,0,4.0,3.0,1,2,10,0,10,0,0,8,8,6,,,,,,,655.6970639589999,655.6970639589999,656.7119985839963,657.4451722499944,657.6651224169982,657.6651224169982,657.6651224169982,658.6786131669942,658.6786131669942,658.6786131669942,658.6786131669942,659.7872757090008,200006,003,2023-04-07_11h02.35.102,DMS_et_12-36,2022.2.4,None,
,,,,,,,,,,,,,,,,,,,,,,,,,,,,,,,,,,,10,0,10,0,,,,,,,,,659.7872757090008,671.8244928749991,,,,,,,,,,,,,200006,003,2023-04-07_11h02.35.102,DMS_et_12-36,2022.2.4,None,
99,UNPRED,12,0.9934113366693972,2,images/picture_3.png,images/picture_1.png,0,"[-11.733433509789462, 11.733433509789464]",-11.733433509789462,11.733433509789464,images/picture_2.png,1,"[11.733433509789464, 11.733433509789462]",11.733433509789464,11.733433509789462,images/picture_3.png,2,"[11.733433509789462, -11.733433509789466]",11.733433509789462,-11.733433509789464,0,1,1,0.9934113366693972,1.9934113366693973,1.0065886633306027,3.0,1,1.7434113366693973,0,4.0,3.0,1,2,11,0,11,0,0,0,0,0,,,,,,,671.8244928749991,671.8244928749991,672.831090833999,673.5782149590013,673.8116113750002,673.8116113750002,673.8116113750002,674.8308884169965,674.8308884169965,674.8308884169965,674.8117691669977,675.8122446249981,200006,003,2023-04-07_11h02.35.102,DMS_et_12-36,2022.2.4,None,
101,UNPRED,12,0.9934113366693972,1,images/picture_2.png,images/picture_1.png,0,"[11.733433509789464, 11.733433509789462]",11.733433509789464,11.733433509789462,images/picture_2.png,1,"[-11.733433509789462, 11.733433509789464]",-11.733433509789462,11.733433509789464,images/picture_3.png,2,"[11.733433509789462, -11.733433509789466]",11.733433509789462,-11.733433509789464,0,1,1,0.9934113366693972,1.9934113366693973,1.0065886633306027,3.0,1,1.7434113366693973,0,4.0,3.0,1,2,11,0,11,0,0,1,1,2,,,,,,,675.8122446249981,675.8122446249981,676.8117725419943,677.5642624169996,677.7977548339986,677.7977548339986,677.7977548339986,678.8117512919998,678.8117512919998,678.8117512919998,678.8117512919998,679.8115342919991,200006,003,2023-04-07_11h02.35.102,DMS_et_12-36,2022.2.4,None,
100,UNPRED,12,0.9934113366693972,0,images/picture_1.png,images/picture_1.png,0,"[-11.733433509789462, 11.733433509789464]",-11.733433509789462,11.733433509789464,images/picture_2.png,1,"[11.733433509789462, -11.733433509789466]",11.733433509789462,-11.733433509789464,images/picture_3.png,2,"[-11.733433509789466, -11.733433509789462]",-11.733433509789464,-11.733433509789462,0,1,1,0.9934113366693972,1.9934113366693973,1.0065886633306027,3.0,1,1.7434113366693973,0,4.0,3.0,1,2,11,0,11,0,0,2,2,1,,,,,,,679.8115342919991,679.8115342919991,680.8117978339942,681.5644410839959,681.7977780000001,681.7977780000001,681.7977780000001,682.8118238749958,682.8118238749958,682.8118238749958,682.8118238749958,683.8115736249965,200006,003,2023-04-07_11h02.35.102,DMS_et_12-36,2022.2.4,None,
102,UNPRED,12,0.9934113366693972,0,images/picture_1.png,images/picture_1.png,0,"[11.733433509789462, -11.733433509789466]",11.733433509789462,-11.733433509789464,images/picture_2.png,1,"[-11.733433509789466, -11.733433509789462]",-11.733433509789464,-11.733433509789462,images/picture_3.png,2,"[-11.733433509789462, 11.733433509789464]",-11.733433509789462,11.733433509789464,0,1,1,0.9934113366693972,1.9934113366693973,1.0065886633306027,3.0,1,1.7434113366693973,0,4.0,3.0,1,2,11,0,11,0,0,3,3,3,,,,,,,683.8115736249965,683.8115736249965,684.8119745419972,685.5645099169997,685.7977834999983,685.7977834999983,685.7977834999983,686.8119757499953,686.8119757499953,686.8119757499953,686.8119757499953,687.8112889170006,200006,003,2023-04-07_11h02.35.102,DMS_et_12-36,2022.2.4,None,
104,UNPRED,12,0.9934113366693972,1,images/picture_2.png,images/picture_1.png,0,"[11.733433509789464, 11.733433509789462]",11.733433509789464,11.733433509789462,images/picture_2.png,1,"[-11.733433509789462, 11.733433509789464]",-11.733433509789462,11.733433509789464,images/picture_3.png,2,"[-11.733433509789466, -11.733433509789462]",-11.733433509789464,-11.733433509789462,0,1,1,0.9934113366693972,1.9934113366693973,1.0065886633306027,3.0,1,1.7434113366693973,0,4.0,3.0,1,2,11,0,11,0,0,4,4,5,,,,,,,687.8112889170006,687.8112889170006,688.8118212089976,689.5644280839988,689.7978363340007,689.7978363340007,689.7978363340007,690.8119853749959,690.8119853749959,690.8119853749959,690.8119853749959,691.8112942500011,200006,003,2023-04-07_11h02.35.102,DMS_et_12-36,2022.2.4,None,
103,UNPRED,12,0.9934113366693972,0,images/picture_1.png,images/picture_1.png,0,"[-11.733433509789462, 11.733433509789464]",-11.733433509789462,11.733433509789464,images/picture_2.png,1,"[11.733433509789464, 11.733433509789462]",11.733433509789464,11.733433509789462,images/picture_3.png,2,"[11.733433509789462, -11.733433509789466]",11.733433509789462,-11.733433509789464,0,1,1,0.9934113366693972,1.9934113366693973,1.0065886633306027,3.0,1,1.7434113366693973,0,4.0,3.0,1,2,11,0,11,0,0,5,5,4,,,,,,,691.8112942500011,691.8112942500011,692.8117927499989,693.5642925840002,693.7977071669957,693.7977071669957,693.7977071669957,694.8116240419986,694.8116240419986,694.8116240419986,694.8116240419986,695.8309707500011,200006,003,2023-04-07_11h02.35.102,DMS_et_12-36,2022.2.4,None,
107,UNPRED,12,0.9934113366693972,2,images/picture_3.png,images/picture_1.png,0,"[-11.733433509789466, -11.733433509789462]",-11.733433509789464,-11.733433509789462,images/picture_2.png,1,"[11.733433509789464, 11.733433509789462]",11.733433509789464,11.733433509789462,images/picture_3.png,2,"[11.733433509789462, -11.733433509789466]",11.733433509789462,-11.733433509789464,0,1,1,0.9934113366693972,1.9934113366693973,1.0065886633306027,3.0,1,1.7434113366693973,0,4.0,3.0,1,2,11,0,11,0,0,6,6,8,,,,,,,695.8309707500011,695.8309707500011,696.8450794169985,697.578548958998,697.7977902089988,697.7977902089988,697.7977902089988,698.8118695839948,698.8118695839948,698.8118695839948,698.8118695839948,699.830435584001,200006,003,2023-04-07_11h02.35.102,DMS_et_12-36,2022.2.4,None,
106,UNPRED,12,0.9934113366693972,2,images/picture_3.png,images/picture_1.png,0,"[-11.733433509789466, -11.733433509789462]",-11.733433509789464,-11.733433509789462,images/picture_2.png,1,"[11.733433509789462, -11.733433509789466]",11.733433509789462,-11.733433509789464,images/picture_3.png,2,"[11.733433509789464, 11.733433509789462]",11.733433509789464,11.733433509789462,0,1,1,0.9934113366693972,1.9934113366693973,1.0065886633306027,3.0,1,1.7434113366693973,0,4.0,3.0,1,2,11,0,11,0,0,7,7,7,,,,,,,699.830435584001,699.830435584001,700.8452508339979,701.5785686249947,701.7977807089992,701.7977807089992,701.7977807089992,702.811808583996,702.811808583996,702.811808583996,702.811808583996,703.8113489169991,200006,003,2023-04-07_11h02.35.102,DMS_et_12-36,2022.2.4,None,
105,UNPRED,12,0.9934113366693972,0,images/picture_1.png,images/picture_1.png,0,"[-11.733433509789462, 11.733433509789464]",-11.733433509789462,11.733433509789464,images/picture_2.png,1,"[-11.733433509789466, -11.733433509789462]",-11.733433509789464,-11.733433509789462,images/picture_3.png,2,"[11.733433509789462, -11.733433509789466]",11.733433509789462,-11.733433509789464,0,1,1,0.9934113366693972,1.9934113366693973,1.0065886633306027,3.0,1,1.7434113366693973,0,4.0,3.0,1,2,11,0,11,0,0,8,8,6,,,,,,,703.8113489169991,703.8113489169991,704.8116822919983,705.5646362499974,705.7977258339961,705.7977258339961,705.7977258339961,706.8118259170005,706.8118259170005,706.8118259170005,706.8118259170005,707.9792432920003,200006,003,2023-04-07_11h02.35.102,DMS_et_12-36,2022.2.4,None,
,,,,,,,,,,,,,,,,,,,,,,,,,,,,,,,,,,,11,0,11,0,,,,,,,,,707.9792432920003,720.1076168750005,,,,,,,,,,,,,200006,003,2023-04-07_11h02.35.102,DMS_et_12-36,2022.2.4,None,
,,,,,,,,,,,,,,,,,,,,,,,,,,,,,,,,,,,,,,,,,,,,,,,720.1076168750005,732.6396354999961,,,,,,,,,,,,,,,,,,,
