trial_count,blockType,blockNum,delay_time,stimImage_i,stimImage,responseImage1,responseImage1_i,responseImage1_pos,responseImage1_X,responseImage1_Y,responseImage2,responseImage2_i,responseImage2_pos,responseImage2_X,responseImage2_Y,responseImage3,responseImage3_i,responseImage3_pos,responseImage3_X,responseImage3_Y,cue_onset,cue_dur,delay_onset,delay_dur,resp_onset,resp_dur,rest_onset,rest_dur,circle_dur,circle_onset,total_dur,cross_onset,cross_dur,delay_resp_period,blocks.thisRepN,blocks.thisTrialN,blocks.thisN,blocks.thisIndex,trials.thisRepN,trials.thisTrialN,trials.thisN,trials.thisIndex,key_resp.started,text.started,key_resp.keys,key_resp.rt,text_2.started,text_2.stopped,sample.started,Delay.started,sample.stopped,Delay.stopped,Response_1.started,Response_2.started,Response_3.started,Response_1.stopped,Response_2.stopped,Response_3.stopped,polygon.started,polygon.stopped,participant,session,date,expName,psychopyVersion,frameRate,
,,,,,,,,,,,,,,,,,,,,,,,,,,,,,,,,,,,,,,,,,,,197.87489154189825,197.87489154189825,t,70.76119437487796,,,,,,,,,,,,,,,200005,003,2023-04-04_11h08.51.945,DMS_et_12-36,2022.2.4,None,
7,PRED,12,0.8187389996895809,0,images/picture_1.png,images/picture_1.png,0,"[11.733433509789462, -11.733433509789466]",11.733433509789462,-11.733433509789464,images/picture_2.png,1,"[11.733433509789464, 11.733433509789462]",11.733433509789464,11.733433509789462,images/picture_3.png,2,"[-11.733433509789462, 11.733433509789464]",-11.733433509789462,11.733433509789464,0,1,1,0.8187389996895809,1.8187389996895809,1.1812610003104191,3.0,1,1.5687389996895809,0,4.0,3.0,1,2,0,0,0,0,0,0,0,7,,,,,269.153864833992,281.18959395890124,281.18959395890124,281.18959395890124,282.19860149989836,282.76514216698706,282.9985084589571,282.9985084589571,282.9985084589571,284.1787174998317,284.1787174998317,284.1787174998317,284.1787174998317,285.1785130419303,200005,003,2023-04-04_11h08.51.945,DMS_et_12-36,2022.2.4,None,
6,PRED,12,0.8187389996895809,0,images/picture_1.png,images/picture_1.png,0,"[11.733433509789464, 11.733433509789462]",11.733433509789464,11.733433509789462,images/picture_2.png,1,"[-11.733433509789462, 11.733433509789464]",-11.733433509789462,11.733433509789464,images/picture_3.png,2,"[11.733433509789462, -11.733433509789466]",11.733433509789462,-11.733433509789464,0,1,1,0.8187389996895809,1.8187389996895809,1.1812610003104191,3.0,1,1.5687389996895809,0,4.0,3.0,1,2,0,0,0,0,0,1,1,6,,,,,,,285.1785130419303,285.1785130419303,286.178949666908,286.7457215418108,286.99851787486114,286.99851787486114,286.99851787486114,288.17896837485023,288.17896837485023,288.17896837485023,288.17896837485023,289.17861033394,200005,003,2023-04-04_11h08.51.945,DMS_et_12-36,2022.2.4,None,
2,PRED,12,0.8187389996895809,0,images/picture_1.png,images/picture_1.png,0,"[-11.733433509789466, -11.733433509789462]",-11.733433509789464,-11.733433509789462,images/picture_2.png,1,"[11.733433509789462, -11.733433509789466]",11.733433509789462,-11.733433509789464,images/picture_3.png,2,"[11.733433509789464, 11.733433509789462]",11.733433509789464,11.733433509789462,0,1,1,0.8187389996895809,1.8187389996895809,1.1812610003104191,3.0,1,1.5687389996895809,0,4.0,3.0,1,2,0,0,0,0,0,2,2,2,,,,,,,289.17861033394,289.17861033394,290.17895199987106,290.7455740419682,290.9987166249193,290.9987166249193,290.9987166249193,292.17897441680543,292.17897441680543,292.17897441680543,292.17897441680543,293.17869654181413,200005,003,2023-04-04_11h08.51.945,DMS_et_12-36,2022.2.4,None,
8,PRED,12,0.8187389996895809,0,images/picture_1.png,images/picture_1.png,0,"[11.733433509789462, -11.733433509789466]",11.733433509789462,-11.733433509789464,images/picture_2.png,1,"[-11.733433509789462, 11.733433509789464]",-11.733433509789462,11.733433509789464,images/picture_3.png,2,"[-11.733433509789466, -11.733433509789462]",-11.733433509789464,-11.733433509789462,0,1,1,0.8187389996895809,1.8187389996895809,1.1812610003104191,3.0,1,1.5687389996895809,0,4.0,3.0,1,2,0,0,0,0,0,3,3,8,,,,,,,293.17869654181413,293.17869654181413,294.1794528339524,294.7467642498668,294.9985694589559,294.9985694589559,294.9985694589559,296.17913733399473,296.17913733399473,296.17913733399473,296.17913733399473,297.17875874997117,200005,003,2023-04-04_11h08.51.945,DMS_et_12-36,2022.2.4,None,
4,PRED,12,0.8187389996895809,0,images/picture_1.png,images/picture_1.png,0,"[-11.733433509789462, 11.733433509789464]",-11.733433509789462,11.733433509789464,images/picture_2.png,1,"[11.733433509789464, 11.733433509789462]",11.733433509789464,11.733433509789462,images/picture_3.png,2,"[11.733433509789462, -11.733433509789466]",11.733433509789462,-11.733433509789464,0,1,1,0.8187389996895809,1.8187389996895809,1.1812610003104191,3.0,1,1.5687389996895809,0,4.0,3.0,1,2,0,0,0,0,0,4,4,4,,,,,,,297.17875874997117,297.17875874997117,298.1790473749861,298.74598141689785,298.99880912480876,298.99880912480876,298.99880912480876,300.17898308392614,300.17898308392614,300.17898308392614,300.17898308392614,301.1785220839083,200005,003,2023-04-04_11h08.51.945,DMS_et_12-36,2022.2.4,None,
3,PRED,12,0.8187389996895809,0,images/picture_1.png,images/picture_1.png,0,"[11.733433509789462, -11.733433509789466]",11.733433509789462,-11.733433509789464,images/picture_2.png,1,"[-11.733433509789462, 11.733433509789464]",-11.733433509789462,11.733433509789464,images/picture_3.png,2,"[11.733433509789464, 11.733433509789462]",11.733433509789464,11.733433509789462,0,1,1,0.8187389996895809,1.8187389996895809,1.1812610003104191,3.0,1,1.5687389996895809,0,4.0,3.0,1,2,0,0,0,0,0,5,5,3,,,,,,,301.1785220839083,301.1785220839083,302.1791376248002,302.7458792498801,302.9988721248228,302.9988721248228,302.9988721248228,304.17861824994907,304.17861824994907,304.17861824994907,304.17861824994907,305.178786666831,200005,003,2023-04-04_11h08.51.945,DMS_et_12-36,2022.2.4,None,
1,PRED,12,0.8187389996895809,0,images/picture_1.png,images/picture_1.png,0,"[11.733433509789464, 11.733433509789462]",11.733433509789464,11.733433509789462,images/picture_2.png,1,"[-11.733433509789466, -11.733433509789462]",-11.733433509789464,-11.733433509789462,images/picture_3.png,2,"[11.733433509789462, -11.733433509789466]",11.733433509789462,-11.733433509789464,0,1,1,0.8187389996895809,1.8187389996895809,1.1812610003104191,3.0,1,1.5687389996895809,0,4.0,3.0,1,2,0,0,0,0,0,6,6,1,,,,,,,305.178786666831,305.178786666831,306.1791731668636,306.7453749589622,306.9985282497946,306.9985282497946,306.9985282497946,308.1791340839118,308.1791340839118,308.1791340839118,308.1791340839118,309.1788074169308,200005,003,2023-04-04_11h08.51.945,DMS_et_12-36,2022.2.4,None,
0,PRED,12,0.8187389996895809,0,images/picture_1.png,images/picture_1.png,0,"[-11.733433509789466, -11.733433509789462]",-11.733433509789464,-11.733433509789462,images/picture_2.png,1,"[-11.733433509789462, 11.733433509789464]",-11.733433509789462,11.733433509789464,images/picture_3.png,2,"[11.733433509789464, 11.733433509789462]",11.733433509789464,11.733433509789462,0,1,1,0.8187389996895809,1.8187389996895809,1.1812610003104191,3.0,1,1.5687389996895809,0,4.0,3.0,1,2,0,0,0,0,0,7,7,0,,,,,,,309.1788074169308,309.1788074169308,310.17899929196574,310.74586020899005,310.9985938749742,310.9985938749742,310.9985938749742,312.1789644998498,312.1789644998498,312.1789644998498,312.1789644998498,313.1784178339876,200005,003,2023-04-04_11h08.51.945,DMS_et_12-36,2022.2.4,None,
5,PRED,12,0.8187389996895809,0,images/picture_1.png,images/picture_1.png,0,"[-11.733433509789462, 11.733433509789464]",-11.733433509789462,11.733433509789464,images/picture_2.png,1,"[-11.733433509789466, -11.733433509789462]",-11.733433509789464,-11.733433509789462,images/picture_3.png,2,"[11.733433509789464, 11.733433509789462]",11.733433509789464,11.733433509789462,0,1,1,0.8187389996895809,1.8187389996895809,1.1812610003104191,3.0,1,1.5687389996895809,0,4.0,3.0,1,2,0,0,0,0,0,8,8,5,,,,,,,313.1784178339876,313.1784178339876,314.17891033389606,314.7455319999717,314.97883295896463,314.97883295896463,314.97883295896463,316.16517220879905,316.16517220879905,316.16517220879905,316.1792046248447,317.20150158391334,200005,003,2023-04-04_11h08.51.945,DMS_et_12-36,2022.2.4,None,
,,,,,,,,,,,,,,,,,,,,,,,,,,,,,,,,,,,0,0,0,0,,,,,,,,,317.20150158391334,329.2313387088943,,,,,,,,,,,,,200005,003,2023-04-04_11h08.51.945,DMS_et_12-36,2022.2.4,None,
14,UNPRED,12,0.8187389996895809,0,images/picture_1.png,images/picture_1.png,0,"[11.733433509789464, 11.733433509789462]",11.733433509789464,11.733433509789462,images/picture_2.png,1,"[11.733433509789462, -11.733433509789466]",11.733433509789462,-11.733433509789464,images/picture_3.png,2,"[-11.733433509789466, -11.733433509789462]",-11.733433509789464,-11.733433509789462,0,1,1,0.8187389996895809,1.8187389996895809,1.1812610003104191,3.0,1,1.5687389996895809,0,4.0,3.0,1,2,1,0,1,0,0,0,0,5,,,,,,,329.2313387088943,329.2313387088943,330.24575383379124,330.8124958339613,331.04577716696076,331.04577716696076,331.04577716696076,332.2319485838525,332.2319485838525,332.2319485838525,332.2319485838525,333.24537145881914,200005,003,2023-04-04_11h08.51.945,DMS_et_12-36,2022.2.4,None,
11,UNPRED,12,0.8187389996895809,0,images/picture_1.png,images/picture_1.png,0,"[-11.733433509789466, -11.733433509789462]",-11.733433509789464,-11.733433509789462,images/picture_2.png,1,"[11.733433509789464, 11.733433509789462]",11.733433509789464,11.733433509789462,images/picture_3.png,2,"[11.733433509789462, -11.733433509789466]",11.733433509789462,-11.733433509789464,0,1,1,0.8187389996895809,1.8187389996895809,1.1812610003104191,3.0,1,1.5687389996895809,0,4.0,3.0,1,2,1,0,1,0,0,1,1,2,,,,,,,333.24537145881914,333.24537145881914,334.2457447918132,334.81235329201445,335.0645977498498,335.0645977498498,335.0645977498498,336.2462092919741,336.2462092919741,336.2462092919741,336.2462092919741,337.24539175000973,200005,003,2023-04-04_11h08.51.945,DMS_et_12-36,2022.2.4,None,
13,UNPRED,12,0.8187389996895809,0,images/picture_1.png,images/picture_1.png,0,"[-11.733433509789466, -11.733433509789462]",-11.733433509789464,-11.733433509789462,images/picture_2.png,1,"[-11.733433509789462, 11.733433509789464]",-11.733433509789462,11.733433509789464,images/picture_3.png,2,"[11.733433509789462, -11.733433509789466]",11.733433509789462,-11.733433509789464,0,1,1,0.8187389996895809,1.8187389996895809,1.1812610003104191,3.0,1,1.5687389996895809,0,4.0,3.0,1,2,1,0,1,0,0,2,2,4,,,,,,,337.24539175000973,337.24539175000973,338.24595208396204,338.81247516698204,339.06537874997593,339.06537874997593,339.06537874997593,340.24572074995376,340.24572074995376,340.24572074995376,340.24572074995376,341.2646838747896,200005,003,2023-04-04_11h08.51.945,DMS_et_12-36,2022.2.4,None,
9,UNPRED,12,0.8187389996895809,2,images/picture_3.png,images/picture_1.png,0,"[11.733433509789464, 11.733433509789462]",11.733433509789464,11.733433509789462,images/picture_2.png,1,"[-11.733433509789462, 11.733433509789464]",-11.733433509789462,11.733433509789464,images/picture_3.png,2,"[-11.733433509789466, -11.733433509789462]",-11.733433509789464,-11.733433509789462,0,1,1,0.8187389996895809,1.8187389996895809,1.1812610003104191,3.0,1,1.5687389996895809,0,4.0,3.0,1,2,1,0,1,0,0,3,3,0,,,,,,,341.2646838747896,341.2646838747896,342.2791795840021,342.84600779181346,343.06515820883214,343.06515820883214,343.06515820883214,344.24594370881096,344.24594370881096,344.24594370881096,344.24594370881096,345.24543587490916,200005,003,2023-04-04_11h08.51.945,DMS_et_12-36,2022.2.4,None,
12,UNPRED,12,0.8187389996895809,1,images/picture_2.png,images/picture_1.png,0,"[11.733433509789462, -11.733433509789466]",11.733433509789462,-11.733433509789464,images/picture_2.png,1,"[-11.733433509789466, -11.733433509789462]",-11.733433509789464,-11.733433509789462,images/picture_3.png,2,"[11.733433509789464, 11.733433509789462]",11.733433509789464,11.733433509789462,0,1,1,0.8187389996895809,1.8187389996895809,1.1812610003104191,3.0,1,1.5687389996895809,0,4.0,3.0,1,2,1,0,1,0,0,4,4,3,,,,,,,345.24543587490916,345.24543587490916,346.2455963748507,346.8125128338579,347.0654129588511,347.0654129588511,347.0654129588511,348.2457752497867,348.2457752497867,348.2457752497867,348.2457752497867,349.26503866701387,200005,003,2023-04-04_11h08.51.945,DMS_et_12-36,2022.2.4,None,
10,UNPRED,12,0.8187389996895809,2,images/picture_3.png,images/picture_1.png,0,"[-11.733433509789462, 11.733433509789464]",-11.733433509789462,11.733433509789464,images/picture_2.png,1,"[11.733433509789464, 11.733433509789462]",11.733433509789464,11.733433509789462,images/picture_3.png,2,"[11.733433509789462, -11.733433509789466]",11.733433509789462,-11.733433509789464,0,1,1,0.8187389996895809,1.8187389996895809,1.1812610003104191,3.0,1,1.5687389996895809,0,4.0,3.0,1,2,1,0,1,0,0,5,5,1,,,,,,,349.26503866701387,349.26503866701387,350.27922449982725,350.84587399987504,351.0654051247984,351.0654051247984,351.0654051247984,352.24584933393635,352.24584933393635,352.24584933393635,352.24584933393635,353.2466210417915,200005,003,2023-04-04_11h08.51.945,DMS_et_12-36,2022.2.4,None,
16,UNPRED,12,0.8187389996895809,1,images/picture_2.png,images/picture_1.png,0,"[-11.733433509789462, 11.733433509789464]",-11.733433509789462,11.733433509789464,images/picture_2.png,1,"[-11.733433509789466, -11.733433509789462]",-11.733433509789464,-11.733433509789462,images/picture_3.png,2,"[11.733433509789464, 11.733433509789462]",11.733433509789464,11.733433509789462,0,1,1,0.8187389996895809,1.8187389996895809,1.1812610003104191,3.0,1,1.5687389996895809,0,4.0,3.0,1,2,1,0,1,0,0,6,6,7,,,,,,,353.2466210417915,353.2466210417915,354.24576887488365,354.81246891687624,355.0656475839205,355.0656475839205,355.0656475839205,356.24579912493937,356.24579912493937,356.24579912493937,356.24579912493937,357.24486624985,200005,003,2023-04-04_11h08.51.945,DMS_et_12-36,2022.2.4,None,
17,UNPRED,12,0.8187389996895809,0,images/picture_1.png,images/picture_1.png,0,"[11.733433509789462, -11.733433509789466]",11.733433509789462,-11.733433509789464,images/picture_2.png,1,"[11.733433509789464, 11.733433509789462]",11.733433509789464,11.733433509789462,images/picture_3.png,2,"[-11.733433509789462, 11.733433509789464]",-11.733433509789462,11.733433509789464,0,1,1,0.8187389996895809,1.8187389996895809,1.1812610003104191,3.0,1,1.5687389996895809,0,4.0,3.0,1,2,1,0,1,0,0,7,7,8,,,,,,,357.24486624985,357.24486624985,358.24593024980277,358.8125114168506,359.0654050000012,359.0654050000012,359.0654050000012,360.2457486668136,360.2457486668136,360.2457486668136,360.2457486668136,361.2470015420113,200005,003,2023-04-04_11h08.51.945,DMS_et_12-36,2022.2.4,None,
15,UNPRED,12,0.8187389996895809,1,images/picture_2.png,images/picture_1.png,0,"[-11.733433509789466, -11.733433509789462]",-11.733433509789464,-11.733433509789462,images/picture_2.png,1,"[11.733433509789462, -11.733433509789466]",11.733433509789462,-11.733433509789464,images/picture_3.png,2,"[11.733433509789464, 11.733433509789462]",11.733433509789464,11.733433509789462,0,1,1,0.8187389996895809,1.8187389996895809,1.1812610003104191,3.0,1,1.5687389996895809,0,4.0,3.0,1,2,1,0,1,0,0,8,8,6,,,,,,,361.2470015420113,361.2470015420113,362.24598066695035,362.8125114168506,363.0654325839132,363.0654325839132,363.0654325839132,364.2459358340129,364.2459358340129,364.2459358340129,364.2459358340129,365.2787055419758,200005,003,2023-04-04_11h08.51.945,DMS_et_12-36,2022.2.4,None,
,,,,,,,,,,,,,,,,,,,,,,,,,,,,,,,,,,,1,0,1,0,,,,,,,,,365.2787055419758,377.2988759588916,,,,,,,,,,,,,200005,003,2023-04-04_11h08.51.945,DMS_et_12-36,2022.2.4,None,
18,PRED,12,0.8187389996895809,1,images/picture_2.png,images/picture_1.png,0,"[11.733433509789464, 11.733433509789462]",11.733433509789464,11.733433509789462,images/picture_2.png,1,"[11.733433509789462, -11.733433509789466]",11.733433509789462,-11.733433509789464,images/picture_3.png,2,"[-11.733433509789466, -11.733433509789462]",-11.733433509789464,-11.733433509789462,0,1,1,0.8187389996895809,1.8187389996895809,1.1812610003104191,3.0,1,1.5687389996895809,0,4.0,3.0,1,2,2,0,2,0,0,0,0,0,,,,,,,377.2988759588916,377.2988759588916,378.3125527498778,378.8792704588268,379.1124783749692,379.1124783749692,379.1124783749692,380.2987657089252,380.2987657089252,380.2987657089252,380.2987657089252,381.31196779198945,200005,003,2023-04-04_11h08.51.945,DMS_et_12-36,2022.2.4,None,
21,PRED,12,0.8187389996895809,1,images/picture_2.png,images/picture_1.png,0,"[11.733433509789464, 11.733433509789462]",11.733433509789464,11.733433509789462,images/picture_2.png,1,"[-11.733433509789462, 11.733433509789464]",-11.733433509789462,11.733433509789464,images/picture_3.png,2,"[11.733433509789462, -11.733433509789466]",11.733433509789462,-11.733433509789464,0,1,1,0.8187389996895809,1.8187389996895809,1.1812610003104191,3.0,1,1.5687389996895809,0,4.0,3.0,1,2,2,0,2,0,0,1,1,3,,,,,,,381.31196779198945,381.31196779198945,382.3127253749408,382.8792890419718,383.1321921669878,383.1321921669878,383.1321921669878,384.3125028749928,384.3125028749928,384.3125028749928,384.3125028749928,385.3122529168613,200005,003,2023-04-04_11h08.51.945,DMS_et_12-36,2022.2.4,None,
20,PRED,12,0.8187389996895809,1,images/picture_2.png,images/picture_1.png,0,"[11.733433509789462, -11.733433509789466]",11.733433509789462,-11.733433509789464,images/picture_2.png,1,"[-11.733433509789462, 11.733433509789464]",-11.733433509789462,11.733433509789464,images/picture_3.png,2,"[11.733433509789464, 11.733433509789462]",11.733433509789464,11.733433509789462,0,1,1,0.8187389996895809,1.8187389996895809,1.1812610003104191,3.0,1,1.5687389996895809,0,4.0,3.0,1,2,2,0,2,0,0,2,2,2,,,,,,,385.3122529168613,385.3122529168613,386.3123606669251,386.8790429998189,387.13130516698584,387.13130516698584,387.13130516698584,388.31267420900986,388.31267420900986,388.31267420900986,388.31267420900986,389.3121019168757,200005,003,2023-04-04_11h08.51.945,DMS_et_12-36,2022.2.4,None,
19,PRED,12,0.8187389996895809,1,images/picture_2.png,images/picture_1.png,0,"[11.733433509789462, -11.733433509789466]",11.733433509789462,-11.733433509789464,images/picture_2.png,1,"[-11.733433509789466, -11.733433509789462]",-11.733433509789464,-11.733433509789462,images/picture_3.png,2,"[-11.733433509789462, 11.733433509789464]",-11.733433509789462,11.733433509789464,0,1,1,0.8187389996895809,1.8187389996895809,1.1812610003104191,3.0,1,1.5687389996895809,0,4.0,3.0,1,2,2,0,2,0,0,3,3,1,,,,,,,389.3121019168757,389.3121019168757,390.3125604589004,390.8793638339266,391.1318840838503,391.1318840838503,391.1318840838503,392.312742666807,392.312742666807,392.312742666807,392.312742666807,393.3121723749209,200005,003,2023-04-04_11h08.51.945,DMS_et_12-36,2022.2.4,None,
26,PRED,12,0.8187389996895809,1,images/picture_2.png,images/picture_1.png,0,"[-11.733433509789462, 11.733433509789464]",-11.733433509789462,11.733433509789464,images/picture_2.png,1,"[11.733433509789464, 11.733433509789462]",11.733433509789464,11.733433509789462,images/picture_3.png,2,"[-11.733433509789466, -11.733433509789462]",-11.733433509789464,-11.733433509789462,0,1,1,0.8187389996895809,1.8187389996895809,1.1812610003104191,3.0,1,1.5687389996895809,0,4.0,3.0,1,2,2,0,2,0,0,4,4,8,,,,,,,393.3121723749209,393.3121723749209,394.31271037482657,394.8792537089903,395.1319945838768,395.1319945838768,395.1319945838768,396.3124859589152,396.3124859589152,396.3124859589152,396.3124859589152,397.31230649980716,200005,003,2023-04-04_11h08.51.945,DMS_et_12-36,2022.2.4,None,
22,PRED,12,0.8187389996895809,1,images/picture_2.png,images/picture_1.png,0,"[-11.733433509789462, 11.733433509789464]",-11.733433509789462,11.733433509789464,images/picture_2.png,1,"[11.733433509789462, -11.733433509789466]",11.733433509789462,-11.733433509789464,images/picture_3.png,2,"[-11.733433509789466, -11.733433509789462]",-11.733433509789464,-11.733433509789462,0,1,1,0.8187389996895809,1.8187389996895809,1.1812610003104191,3.0,1,1.5687389996895809,0,4.0,3.0,1,2,2,0,2,0,0,5,5,4,,,,,,,397.31230649980716,397.31230649980716,398.3126847499516,398.87926387484185,399.1319728749804,399.1319728749804,399.1319728749804,400.31268954183906,400.31268954183906,400.31268954183906,400.31268954183906,401.3120801670011,200005,003,2023-04-04_11h08.51.945,DMS_et_12-36,2022.2.4,None,
23,PRED,12,0.8187389996895809,1,images/picture_2.png,images/picture_1.png,0,"[-11.733433509789466, -11.733433509789462]",-11.733433509789464,-11.733433509789462,images/picture_2.png,1,"[11.733433509789462, -11.733433509789466]",11.733433509789462,-11.733433509789464,images/picture_3.png,2,"[-11.733433509789462, 11.733433509789464]",-11.733433509789462,11.733433509789464,0,1,1,0.8187389996895809,1.8187389996895809,1.1812610003104191,3.0,1,1.5687389996895809,0,4.0,3.0,1,2,2,0,2,0,0,6,6,5,,,,,,,401.3120801670011,401.3120801670011,402.3127875418868,402.8792700418271,403.13225929182954,403.13225929182954,403.13225929182954,404.31266579194926,404.31266579194926,404.31266579194926,404.31266579194926,405.31207691691816,200005,003,2023-04-04_11h08.51.945,DMS_et_12-36,2022.2.4,None,
25,PRED,12,0.8187389996895809,1,images/picture_2.png,images/picture_1.png,0,"[11.733433509789464, 11.733433509789462]",11.733433509789464,11.733433509789462,images/picture_2.png,1,"[-11.733433509789462, 11.733433509789464]",-11.733433509789462,11.733433509789464,images/picture_3.png,2,"[11.733433509789462, -11.733433509789466]",11.733433509789462,-11.733433509789464,0,1,1,0.8187389996895809,1.8187389996895809,1.1812610003104191,3.0,1,1.5687389996895809,0,4.0,3.0,1,2,2,0,2,0,0,7,7,7,,,,,,,405.31207691691816,405.31207691691816,406.3126843338832,406.87901766691357,407.13207549997605,407.13207549997605,407.13207549997605,408.3126988748554,408.3126988748554,408.3126988748554,408.3126988748554,409.31225729198195,200005,003,2023-04-04_11h08.51.945,DMS_et_12-36,2022.2.4,None,
24,PRED,12,0.8187389996895809,1,images/picture_2.png,images/picture_1.png,0,"[11.733433509789464, 11.733433509789462]",11.733433509789464,11.733433509789462,images/picture_2.png,1,"[11.733433509789462, -11.733433509789466]",11.733433509789462,-11.733433509789464,images/picture_3.png,2,"[-11.733433509789466, -11.733433509789462]",-11.733433509789464,-11.733433509789462,0,1,1,0.8187389996895809,1.8187389996895809,1.1812610003104191,3.0,1,1.5687389996895809,0,4.0,3.0,1,2,2,0,2,0,0,8,8,6,,,,,,,409.31225729198195,409.31225729198195,410.3126823748462,410.87926991679706,411.13234274997376,411.13234274997376,411.13234274997376,412.3127353338059,412.3127353338059,412.3127353338059,412.3127353338059,413.3513034170028,200005,003,2023-04-04_11h08.51.945,DMS_et_12-36,2022.2.4,None,
,,,,,,,,,,,,,,,,,,,,,,,,,,,,,,,,,,,2,0,2,0,,,,,,,,,413.3513034170028,425.3789454170037,,,,,,,,,,,,,200005,003,2023-04-04_11h08.51.945,DMS_et_12-36,2022.2.4,None,
30,UNPRED,12,0.8187389996895809,1,images/picture_2.png,images/picture_1.png,0,"[11.733433509789464, 11.733433509789462]",11.733433509789464,11.733433509789462,images/picture_2.png,1,"[-11.733433509789462, 11.733433509789464]",-11.733433509789462,11.733433509789464,images/picture_3.png,2,"[11.733433509789462, -11.733433509789466]",11.733433509789462,-11.733433509789464,0,1,1,0.8187389996895809,1.8187389996895809,1.1812610003104191,3.0,1,1.5687389996895809,0,4.0,3.0,1,2,3,0,3,0,0,0,0,3,,,,,,,425.3789454170037,425.3789454170037,426.37910354183987,426.9457673749421,427.1978528748732,427.1978528748732,427.1978528748732,428.3791718338616,428.3791718338616,428.3791718338616,428.3791718338616,429.37855066685006,200005,003,2023-04-04_11h08.51.945,DMS_et_12-36,2022.2.4,None,
31,UNPRED,12,0.8187389996895809,1,images/picture_2.png,images/picture_1.png,0,"[11.733433509789464, 11.733433509789462]",11.733433509789464,11.733433509789462,images/picture_2.png,1,"[-11.733433509789466, -11.733433509789462]",-11.733433509789464,-11.733433509789462,images/picture_3.png,2,"[11.733433509789462, -11.733433509789466]",11.733433509789462,-11.733433509789464,0,1,1,0.8187389996895809,1.8187389996895809,1.1812610003104191,3.0,1,1.5687389996895809,0,4.0,3.0,1,2,3,0,3,0,0,1,1,4,,,,,,,429.37855066685006,429.37855066685006,430.3791623339057,430.94573745899834,431.19881883380003,431.19881883380003,431.19881883380003,432.37900933390483,432.37900933390483,432.37900933390483,432.37900933390483,433.39778737490997,200005,003,2023-04-04_11h08.51.945,DMS_et_12-36,2022.2.4,None,
27,UNPRED,12,0.8187389996895809,2,images/picture_3.png,images/picture_1.png,0,"[11.733433509789464, 11.733433509789462]",11.733433509789464,11.733433509789462,images/picture_2.png,1,"[-11.733433509789462, 11.733433509789464]",-11.733433509789462,11.733433509789464,images/picture_3.png,2,"[11.733433509789462, -11.733433509789466]",11.733433509789462,-11.733433509789464,0,1,1,0.8187389996895809,1.8187389996895809,1.1812610003104191,3.0,1,1.5687389996895809,0,4.0,3.0,1,2,3,0,3,0,0,2,2,0,,,,,,,433.39778737490997,433.39778737490997,434.4125087088905,434.9788087089546,435.19882424990647,435.19882424990647,435.19882424990647,436.3792985419277,436.3792985419277,436.3792985419277,436.3792985419277,437.3782071250025,200005,003,2023-04-04_11h08.51.945,DMS_et_12-36,2022.2.4,None,
35,UNPRED,12,0.8187389996895809,1,images/picture_2.png,images/picture_1.png,0,"[11.733433509789464, 11.733433509789462]",11.733433509789464,11.733433509789462,images/picture_2.png,1,"[-11.733433509789462, 11.733433509789464]",-11.733433509789462,11.733433509789464,images/picture_3.png,2,"[11.733433509789462, -11.733433509789466]",11.733433509789462,-11.733433509789464,0,1,1,0.8187389996895809,1.8187389996895809,1.1812610003104191,3.0,1,1.5687389996895809,0,4.0,3.0,1,2,3,0,3,0,0,3,3,8,,,,,,,437.3782071250025,437.3782071250025,438.3788747917861,438.94575933390297,439.1988593749702,439.1988593749702,439.1988593749702,440.37918162485585,440.37918162485585,440.37918162485585,440.37918162485585,441.3786301249638,200005,003,2023-04-04_11h08.51.945,DMS_et_12-36,2022.2.4,None,
32,UNPRED,12,0.8187389996895809,1,images/picture_2.png,images/picture_1.png,0,"[-11.733433509789462, 11.733433509789464]",-11.733433509789462,11.733433509789464,images/picture_2.png,1,"[11.733433509789462, -11.733433509789466]",11.733433509789462,-11.733433509789464,images/picture_3.png,2,"[11.733433509789464, 11.733433509789462]",11.733433509789464,11.733433509789462,0,1,1,0.8187389996895809,1.8187389996895809,1.1812610003104191,3.0,1,1.5687389996895809,0,4.0,3.0,1,2,3,0,3,0,0,4,4,5,,,,,,,441.3786301249638,441.3786301249638,442.37920054188,442.9457094168756,443.1986457919702,443.1986457919702,443.1986457919702,444.3790319589898,444.3790319589898,444.3790319589898,444.3790319589898,445.39781491691247,200005,003,2023-04-04_11h08.51.945,DMS_et_12-36,2022.2.4,None,
28,UNPRED,12,0.8187389996895809,2,images/picture_3.png,images/picture_1.png,0,"[11.733433509789462, -11.733433509789466]",11.733433509789462,-11.733433509789464,images/picture_2.png,1,"[11.733433509789464, 11.733433509789462]",11.733433509789464,11.733433509789462,images/picture_3.png,2,"[-11.733433509789462, 11.733433509789464]",-11.733433509789462,11.733433509789464,0,1,1,0.8187389996895809,1.8187389996895809,1.1812610003104191,3.0,1,1.5687389996895809,0,4.0,3.0,1,2,3,0,3,0,0,5,5,1,,,,,,,445.39781491691247,445.39781491691247,446.4124519589823,446.9792129169218,447.19834770890884,447.19834770890884,447.19834770890884,448.37884037499316,448.37884037499316,448.37884037499316,448.37884037499316,449.39869204186834,200005,003,2023-04-04_11h08.51.945,DMS_et_12-36,2022.2.4,None,
29,UNPRED,12,0.8187389996895809,1,images/picture_2.png,images/picture_1.png,0,"[-11.733433509789466, -11.733433509789462]",-11.733433509789464,-11.733433509789462,images/picture_2.png,1,"[11.733433509789462, -11.733433509789466]",11.733433509789462,-11.733433509789464,images/picture_3.png,2,"[11.733433509789464, 11.733433509789462]",11.733433509789464,11.733433509789462,0,1,1,0.8187389996895809,1.8187389996895809,1.1812610003104191,3.0,1,1.5687389996895809,0,4.0,3.0,1,2,3,0,3,0,0,6,6,2,,,,,,,449.39869204186834,449.39869204186834,450.4125274589751,450.9789773749653,451.1984862089157,451.1984862089157,451.1984862089157,452.3789972499944,452.3789972499944,452.3789972499944,452.3789972499944,453.37851704191417,200005,003,2023-04-04_11h08.51.945,DMS_et_12-36,2022.2.4,None,
34,UNPRED,12,0.8187389996895809,1,images/picture_2.png,images/picture_1.png,0,"[-11.733433509789462, 11.733433509789464]",-11.733433509789462,11.733433509789464,images/picture_2.png,1,"[11.733433509789464, 11.733433509789462]",11.733433509789464,11.733433509789462,images/picture_3.png,2,"[-11.733433509789466, -11.733433509789462]",-11.733433509789464,-11.733433509789462,0,1,1,0.8187389996895809,1.8187389996895809,1.1812610003104191,3.0,1,1.5687389996895809,0,4.0,3.0,1,2,3,0,3,0,0,7,7,7,,,,,,,453.37851704191417,453.37851704191417,454.37922583380714,454.9457952918019,455.19853945891373,455.19853945891373,455.19853945891373,456.37921937485225,456.37921937485225,456.37921937485225,456.37921937485225,457.3791795838624,200005,003,2023-04-04_11h08.51.945,DMS_et_12-36,2022.2.4,None,
33,UNPRED,12,0.8187389996895809,0,images/picture_1.png,images/picture_1.png,0,"[11.733433509789462, -11.733433509789466]",11.733433509789462,-11.733433509789464,images/picture_2.png,1,"[11.733433509789464, 11.733433509789462]",11.733433509789464,11.733433509789462,images/picture_3.png,2,"[-11.733433509789462, 11.733433509789464]",-11.733433509789462,11.733433509789464,0,1,1,0.8187389996895809,1.8187389996895809,1.1812610003104191,3.0,1,1.5687389996895809,0,4.0,3.0,1,2,3,0,3,0,0,8,8,6,,,,,,,457.3791795838624,457.3791795838624,458.3786769169383,458.94539249991067,459.1984561670106,459.1984561670106,459.1984561670106,460.3789863749407,460.3789863749407,460.3789863749407,460.3789863749407,461.43149470887147,200005,003,2023-04-04_11h08.51.945,DMS_et_12-36,2022.2.4,None,
,,,,,,,,,,,,,,,,,,,,,,,,,,,,,,,,,,,3,0,3,0,,,,,,,,,461.43149470887147,473.4654089999385,,,,,,,,,,,,,200005,003,2023-04-04_11h08.51.945,DMS_et_12-36,2022.2.4,None,
39,PRED,12,0.8187389996895809,0,images/picture_1.png,images/picture_1.png,0,"[-11.733433509789466, -11.733433509789462]",-11.733433509789464,-11.733433509789462,images/picture_2.png,1,"[-11.733433509789462, 11.733433509789464]",-11.733433509789462,11.733433509789464,images/picture_3.png,2,"[11.733433509789462, -11.733433509789466]",11.733433509789462,-11.733433509789464,0,1,1,0.8187389996895809,1.8187389996895809,1.1812610003104191,3.0,1,1.5687389996895809,0,4.0,3.0,1,2,4,0,4,0,0,0,0,3,,,,,,,473.4654089999385,473.4654089999385,474.4792462498881,475.04579358384944,475.2792269589845,475.2792269589845,475.2792269589845,476.4652681669686,476.4652681669686,476.4652681669686,476.4652681669686,477.4784401250072,200005,003,2023-04-04_11h08.51.945,DMS_et_12-36,2022.2.4,None,
41,PRED,12,0.8187389996895809,0,images/picture_1.png,images/picture_1.png,0,"[11.733433509789464, 11.733433509789462]",11.733433509789464,11.733433509789462,images/picture_2.png,1,"[-11.733433509789466, -11.733433509789462]",-11.733433509789464,-11.733433509789462,images/picture_3.png,2,"[-11.733433509789462, 11.733433509789464]",-11.733433509789462,11.733433509789464,0,1,1,0.8187389996895809,1.8187389996895809,1.1812610003104191,3.0,1,1.5687389996895809,0,4.0,3.0,1,2,4,0,4,0,0,1,1,5,,,,,,,477.4784401250072,477.4784401250072,478.47917354200035,479.0455511249602,479.2976462917868,479.2976462917868,479.2976462917868,480.47921666689217,480.47921666689217,480.47921666689217,480.47921666689217,481.4788682498038,200005,003,2023-04-04_11h08.51.945,DMS_et_12-36,2022.2.4,None,
42,PRED,12,0.8187389996895809,0,images/picture_1.png,images/picture_1.png,0,"[11.733433509789464, 11.733433509789462]",11.733433509789464,11.733433509789462,images/picture_2.png,1,"[11.733433509789462, -11.733433509789466]",11.733433509789462,-11.733433509789464,images/picture_3.png,2,"[-11.733433509789466, -11.733433509789462]",-11.733433509789464,-11.733433509789462,0,1,1,0.8187389996895809,1.8187389996895809,1.1812610003104191,3.0,1,1.5687389996895809,0,4.0,3.0,1,2,4,0,4,0,0,2,2,6,,,,,,,481.4788682498038,481.4788682498038,482.47899629198946,483.04591699992307,483.29837791691534,483.29837791691534,483.29837791691534,484.4792210420128,484.4792210420128,484.4792210420128,484.4792210420128,485.47848983388394,200005,003,2023-04-04_11h08.51.945,DMS_et_12-36,2022.2.4,None,
44,PRED,12,0.8187389996895809,0,images/picture_1.png,images/picture_1.png,0,"[-11.733433509789462, 11.733433509789464]",-11.733433509789462,11.733433509789464,images/picture_2.png,1,"[-11.733433509789466, -11.733433509789462]",-11.733433509789464,-11.733433509789462,images/picture_3.png,2,"[11.733433509789462, -11.733433509789466]",11.733433509789462,-11.733433509789464,0,1,1,0.8187389996895809,1.8187389996895809,1.1812610003104191,3.0,1,1.5687389996895809,0,4.0,3.0,1,2,4,0,4,0,0,3,3,8,,,,,,,485.47848983388394,485.47848983388394,486.47915741684847,487.04569587484,487.2985638747923,487.2985638747923,487.2985638747923,488.47897058399394,488.47897058399394,488.47897058399394,488.47897058399394,489.47875062492676,200005,003,2023-04-04_11h08.51.945,DMS_et_12-36,2022.2.4,None,
37,PRED,12,0.8187389996895809,0,images/picture_1.png,images/picture_1.png,0,"[11.733433509789464, 11.733433509789462]",11.733433509789464,11.733433509789462,images/picture_2.png,1,"[-11.733433509789462, 11.733433509789464]",-11.733433509789462,11.733433509789464,images/picture_3.png,2,"[-11.733433509789466, -11.733433509789462]",-11.733433509789464,-11.733433509789462,0,1,1,0.8187389996895809,1.8187389996895809,1.1812610003104191,3.0,1,1.5687389996895809,0,4.0,3.0,1,2,4,0,4,0,0,4,4,1,,,,,,,489.47875062492676,489.47875062492676,490.4789596667979,491.0456827918533,491.2984179169871,491.2984179169871,491.2984179169871,492.4793163749855,492.4793163749855,492.4793163749855,492.4793163749855,493.47872758400626,200005,003,2023-04-04_11h08.51.945,DMS_et_12-36,2022.2.4,None,
38,PRED,12,0.8187389996895809,0,images/picture_1.png,images/picture_1.png,0,"[-11.733433509789466, -11.733433509789462]",-11.733433509789464,-11.733433509789462,images/picture_2.png,1,"[11.733433509789464, 11.733433509789462]",11.733433509789464,11.733433509789462,images/picture_3.png,2,"[11.733433509789462, -11.733433509789466]",11.733433509789462,-11.733433509789464,0,1,1,0.8187389996895809,1.8187389996895809,1.1812610003104191,3.0,1,1.5687389996895809,0,4.0,3.0,1,2,4,0,4,0,0,5,5,2,,,,,,,493.47872758400626,493.47872758400626,494.4787741668988,495.0457306248136,495.3779665417969,495.3779665417969,495.3779665417969,496.5651346668601,496.5651346668601,496.5651346668601,496.47897041682154,497.47869908390567,200005,003,2023-04-04_11h08.51.945,DMS_et_12-36,2022.2.4,None,
40,PRED,12,0.8187389996895809,0,images/picture_1.png,images/picture_1.png,0,"[11.733433509789464, 11.733433509789462]",11.733433509789464,11.733433509789462,images/picture_2.png,1,"[-11.733433509789462, 11.733433509789464]",-11.733433509789462,11.733433509789464,images/picture_3.png,2,"[-11.733433509789466, -11.733433509789462]",-11.733433509789464,-11.733433509789462,0,1,1,0.8187389996895809,1.8187389996895809,1.1812610003104191,3.0,1,1.5687389996895809,0,4.0,3.0,1,2,4,0,4,0,0,6,6,4,,,,,,,497.47869908390567,497.47869908390567,498.4792034588754,499.045884499792,499.29838929185644,499.29838929185644,499.29838929185644,500.4788902918808,500.4788902918808,500.4788902918808,500.4788902918808,501.47864512493834,200005,003,2023-04-04_11h08.51.945,DMS_et_12-36,2022.2.4,None,
36,PRED,12,0.8187389996895809,0,images/picture_1.png,images/picture_1.png,0,"[-11.733433509789466, -11.733433509789462]",-11.733433509789464,-11.733433509789462,images/picture_2.png,1,"[11.733433509789462, -11.733433509789466]",11.733433509789462,-11.733433509789464,images/picture_3.png,2,"[11.733433509789464, 11.733433509789462]",11.733433509789464,11.733433509789462,0,1,1,0.8187389996895809,1.8187389996895809,1.1812610003104191,3.0,1,1.5687389996895809,0,4.0,3.0,1,2,4,0,4,0,0,7,7,0,,,,,,,501.47864512493834,501.47864512493834,502.47896174993366,503.04572245897725,503.29861237481236,503.29861237481236,503.29861237481236,504.4792120838538,504.4792120838538,504.4792120838538,504.4792120838538,505.4785371669568,200005,003,2023-04-04_11h08.51.945,DMS_et_12-36,2022.2.4,None,
43,PRED,12,0.8187389996895809,0,images/picture_1.png,images/picture_1.png,0,"[-11.733433509789462, 11.733433509789464]",-11.733433509789462,11.733433509789464,images/picture_2.png,1,"[11.733433509789462, -11.733433509789466]",11.733433509789462,-11.733433509789464,images/picture_3.png,2,"[11.733433509789464, 11.733433509789462]",11.733433509789464,11.733433509789462,0,1,1,0.8187389996895809,1.8187389996895809,1.1812610003104191,3.0,1,1.5687389996895809,0,4.0,3.0,1,2,4,0,4,0,0,8,8,7,,,,,,,505.4785371669568,505.4785371669568,506.4791587498039,507.0457399589941,507.2984649168793,507.2984649168793,507.2984649168793,508.479012374999,508.479012374999,508.479012374999,508.479012374999,509.5371848340146,200005,003,2023-04-04_11h08.51.945,DMS_et_12-36,2022.2.4,None,
,,,,,,,,,,,,,,,,,,,,,,,,,,,,,,,,,,,4,0,4,0,,,,,,,,,509.5371848340146,521.5750267920084,,,,,,,,,,,,,200005,003,2023-04-04_11h08.51.945,DMS_et_12-36,2022.2.4,None,
52,UNPRED,12,0.8187389996895809,2,images/picture_3.png,images/picture_1.png,0,"[-11.733433509789466, -11.733433509789462]",-11.733433509789464,-11.733433509789462,images/picture_2.png,1,"[11.733433509789464, 11.733433509789462]",11.733433509789464,11.733433509789462,images/picture_3.png,2,"[11.733433509789462, -11.733433509789466]",11.733433509789462,-11.733433509789464,0,1,1,0.8187389996895809,1.8187389996895809,1.1812610003104191,3.0,1,1.5687389996895809,0,4.0,3.0,1,2,5,0,5,0,0,0,0,7,,,,,,,521.5750267920084,521.5750267920084,522.5791667918675,523.1455244999379,523.3788973749615,523.3788973749615,523.3788973749615,524.5651367499959,524.5651367499959,524.5651367499959,524.5651367499959,525.5986292918678,200005,003,2023-04-04_11h08.51.945,DMS_et_12-36,2022.2.4,None,
45,UNPRED,12,0.8187389996895809,1,images/picture_2.png,images/picture_1.png,0,"[11.733433509789462, -11.733433509789466]",11.733433509789462,-11.733433509789464,images/picture_2.png,1,"[-11.733433509789466, -11.733433509789462]",-11.733433509789464,-11.733433509789462,images/picture_3.png,2,"[-11.733433509789462, 11.733433509789464]",-11.733433509789462,11.733433509789464,0,1,1,0.8187389996895809,1.8187389996895809,1.1812610003104191,3.0,1,1.5687389996895809,0,4.0,3.0,1,2,5,0,5,0,0,1,1,0,,,,,,,525.5986292918678,525.5986292918678,526.6125589588191,527.1790612919722,527.3989705839194,527.3989705839194,527.3989705839194,528.5792016249616,528.5792016249616,528.5792016249616,528.5792016249616,529.5980404589791,200005,003,2023-04-04_11h08.51.945,DMS_et_12-36,2022.2.4,None,
47,UNPRED,12,0.8187389996895809,2,images/picture_3.png,images/picture_1.png,0,"[-11.733433509789466, -11.733433509789462]",-11.733433509789464,-11.733433509789462,images/picture_2.png,1,"[11.733433509789464, 11.733433509789462]",11.733433509789464,11.733433509789462,images/picture_3.png,2,"[-11.733433509789462, 11.733433509789464]",-11.733433509789462,11.733433509789464,0,1,1,0.8187389996895809,1.8187389996895809,1.1812610003104191,3.0,1,1.5687389996895809,0,4.0,3.0,1,2,5,0,5,0,0,2,2,2,,,,,,,529.5980404589791,529.5980404589791,530.6120680419262,531.1788993747905,531.398600583896,531.398600583896,531.398600583896,532.5789979589172,532.5789979589172,532.5789979589172,532.5789979589172,533.5796593748964,200005,003,2023-04-04_11h08.51.945,DMS_et_12-36,2022.2.4,None,
49,UNPRED,12,0.8187389996895809,0,images/picture_1.png,images/picture_1.png,0,"[-11.733433509789466, -11.733433509789462]",-11.733433509789464,-11.733433509789462,images/picture_2.png,1,"[-11.733433509789462, 11.733433509789464]",-11.733433509789462,11.733433509789464,images/picture_3.png,2,"[11.733433509789464, 11.733433509789462]",11.733433509789464,11.733433509789462,0,1,1,0.8187389996895809,1.8187389996895809,1.1812610003104191,3.0,1,1.5687389996895809,0,4.0,3.0,1,2,5,0,5,0,0,3,3,4,,,,,,,533.5796593748964,533.5796593748964,534.5789418749046,535.145763249835,535.3986008339562,535.3986008339562,535.3986008339562,536.5791836248245,536.5791836248245,536.5791836248245,536.5791836248245,537.5977878749836,200005,003,2023-04-04_11h08.51.945,DMS_et_12-36,2022.2.4,None,
50,UNPRED,12,0.8187389996895809,2,images/picture_3.png,images/picture_1.png,0,"[11.733433509789462, -11.733433509789466]",11.733433509789462,-11.733433509789464,images/picture_2.png,1,"[11.733433509789464, 11.733433509789462]",11.733433509789464,11.733433509789462,images/picture_3.png,2,"[-11.733433509789466, -11.733433509789462]",-11.733433509789464,-11.733433509789462,0,1,1,0.8187389996895809,1.8187389996895809,1.1812610003104191,3.0,1,1.5687389996895809,0,4.0,3.0,1,2,5,0,5,0,0,4,4,5,,,,,,,537.5977878749836,537.5977878749836,538.6125749999192,539.1789653748274,539.3985980839934,539.3985980839934,539.3985980839934,540.5787727090064,540.5787727090064,540.5787727090064,540.5787727090064,541.5981435838621,200005,003,2023-04-04_11h08.51.945,DMS_et_12-36,2022.2.4,None,
51,UNPRED,12,0.8187389996895809,2,images/picture_3.png,images/picture_1.png,0,"[-11.733433509789466, -11.733433509789462]",-11.733433509789464,-11.733433509789462,images/picture_2.png,1,"[-11.733433509789462, 11.733433509789464]",-11.733433509789462,11.733433509789464,images/picture_3.png,2,"[11.733433509789462, -11.733433509789466]",11.733433509789462,-11.733433509789464,0,1,1,0.8187389996895809,1.8187389996895809,1.1812610003104191,3.0,1,1.5687389996895809,0,4.0,3.0,1,2,5,0,5,0,0,5,5,6,,,,,,,541.5981435838621,541.5981435838621,542.6123171669897,543.179163249908,543.3985901668202,543.3985901668202,543.3985901668202,544.5791865838692,544.5791865838692,544.5791865838692,544.5791865838692,545.5798357089516,200005,003,2023-04-04_11h08.51.945,DMS_et_12-36,2022.2.4,None,
46,UNPRED,12,0.8187389996895809,1,images/picture_2.png,images/picture_1.png,0,"[-11.733433509789462, 11.733433509789464]",-11.733433509789462,11.733433509789464,images/picture_2.png,1,"[11.733433509789464, 11.733433509789462]",11.733433509789464,11.733433509789462,images/picture_3.png,2,"[-11.733433509789466, -11.733433509789462]",-11.733433509789464,-11.733433509789462,0,1,1,0.8187389996895809,1.8187389996895809,1.1812610003104191,3.0,1,1.5687389996895809,0,4.0,3.0,1,2,5,0,5,0,0,6,6,1,,,,,,,545.5798357089516,545.5798357089516,546.5789970417973,547.1457598339766,547.3985776668414,547.3985776668414,547.3985776668414,548.579168249853,548.579168249853,548.579168249853,548.579168249853,549.5786246249918,200005,003,2023-04-04_11h08.51.945,DMS_et_12-36,2022.2.4,None,
48,UNPRED,12,0.8187389996895809,1,images/picture_2.png,images/picture_1.png,0,"[-11.733433509789466, -11.733433509789462]",-11.733433509789464,-11.733433509789462,images/picture_2.png,1,"[11.733433509789462, -11.733433509789466]",11.733433509789462,-11.733433509789464,images/picture_3.png,2,"[11.733433509789464, 11.733433509789462]",11.733433509789464,11.733433509789462,0,1,1,0.8187389996895809,1.8187389996895809,1.1812610003104191,3.0,1,1.5687389996895809,0,4.0,3.0,1,2,5,0,5,0,0,7,7,3,,,,,,,549.5786246249918,549.5786246249918,550.5790628339164,551.1456031668931,551.3979047918692,551.3979047918692,551.3979047918692,552.5790575419087,552.5790575419087,552.5790575419087,552.5790575419087,553.5780908339657,200005,003,2023-04-04_11h08.51.945,DMS_et_12-36,2022.2.4,None,
53,UNPRED,12,0.8187389996895809,0,images/picture_1.png,images/picture_1.png,0,"[-11.733433509789466, -11.733433509789462]",-11.733433509789464,-11.733433509789462,images/picture_2.png,1,"[11.733433509789462, -11.733433509789466]",11.733433509789462,-11.733433509789464,images/picture_3.png,2,"[-11.733433509789462, 11.733433509789464]",-11.733433509789462,11.733433509789464,0,1,1,0.8187389996895809,1.8187389996895809,1.1812610003104191,3.0,1,1.5687389996895809,0,4.0,3.0,1,2,5,0,5,0,0,8,8,8,,,,,,,553.5780908339657,553.5780908339657,554.5790644998197,555.1457479589153,555.3989482498728,555.3989482498728,555.3989482498728,556.5790193339344,556.5790193339344,556.5790193339344,556.5790193339344,557.6322499997914,200005,003,2023-04-04_11h08.51.945,DMS_et_12-36,2022.2.4,None,
,,,,,,,,,,,,,,,,,,,,,,,,,,,,,,,,,,,5,0,5,0,,,,,,,,,557.6322499997914,569.6654729589354,,,,,,,,,,,,,200005,003,2023-04-04_11h08.51.945,DMS_et_12-36,2022.2.4,None,
57,PRED,12,0.8187389996895809,0,images/picture_1.png,images/picture_1.png,0,"[-11.733433509789466, -11.733433509789462]",-11.733433509789464,-11.733433509789462,images/picture_2.png,1,"[11.733433509789462, -11.733433509789466]",11.733433509789462,-11.733433509789464,images/picture_3.png,2,"[-11.733433509789462, 11.733433509789464]",-11.733433509789462,11.733433509789464,0,1,1,0.8187389996895809,1.8187389996895809,1.1812610003104191,3.0,1,1.5687389996895809,0,4.0,3.0,1,2,6,0,6,0,0,0,0,3,,,,,,,569.6654729589354,569.6654729589354,570.6790005418006,571.2457703338005,571.4792936670128,571.4792936670128,571.4792936670128,572.6650801668875,572.6650801668875,572.6650801668875,572.6650801668875,573.6784371668473,200005,003,2023-04-04_11h08.51.945,DMS_et_12-36,2022.2.4,None,
55,PRED,12,0.8187389996895809,0,images/picture_1.png,images/picture_1.png,0,"[11.733433509789464, 11.733433509789462]",11.733433509789464,11.733433509789462,images/picture_2.png,1,"[11.733433509789462, -11.733433509789466]",11.733433509789462,-11.733433509789464,images/picture_3.png,2,"[-11.733433509789462, 11.733433509789464]",-11.733433509789462,11.733433509789464,0,1,1,0.8187389996895809,1.8187389996895809,1.1812610003104191,3.0,1,1.5687389996895809,0,4.0,3.0,1,2,6,0,6,0,0,1,1,1,,,,,,,573.6784371668473,573.6784371668473,574.6792140838224,575.2457125838846,575.4988970838021,575.4988970838021,575.4988970838021,576.6789994169958,576.6789994169958,576.6789994169958,576.6789994169958,577.679057666799,200005,003,2023-04-04_11h08.51.945,DMS_et_12-36,2022.2.4,None,
59,PRED,12,0.8187389996895809,0,images/picture_1.png,images/picture_1.png,0,"[11.733433509789464, 11.733433509789462]",11.733433509789464,11.733433509789462,images/picture_2.png,1,"[11.733433509789462, -11.733433509789466]",11.733433509789462,-11.733433509789464,images/picture_3.png,2,"[-11.733433509789462, 11.733433509789464]",-11.733433509789462,11.733433509789464,0,1,1,0.8187389996895809,1.8187389996895809,1.1812610003104191,3.0,1,1.5687389996895809,0,4.0,3.0,1,2,6,0,6,0,0,2,2,5,,,,,,,577.679057666799,577.679057666799,578.6789638749324,579.2457821669523,579.4985811249353,579.4985811249353,579.4985811249353,580.6788474589121,580.6788474589121,580.6788474589121,580.6788474589121,581.6787252498325,200005,003,2023-04-04_11h08.51.945,DMS_et_12-36,2022.2.4,None,
56,PRED,12,0.8187389996895809,0,images/picture_1.png,images/picture_1.png,0,"[-11.733433509789462, 11.733433509789464]",-11.733433509789462,11.733433509789464,images/picture_2.png,1,"[11.733433509789462, -11.733433509789466]",11.733433509789462,-11.733433509789464,images/picture_3.png,2,"[11.733433509789464, 11.733433509789462]",11.733433509789464,11.733433509789462,0,1,1,0.8187389996895809,1.8187389996895809,1.1812610003104191,3.0,1,1.5687389996895809,0,4.0,3.0,1,2,6,0,6,0,0,3,3,2,,,,,,,581.6787252498325,581.6787252498325,582.6790242919233,583.2455846248195,583.4979415838607,583.4979415838607,583.4979415838607,584.6790919587947,584.6790919587947,584.6790919587947,584.6790919587947,585.6786797919776,200005,003,2023-04-04_11h08.51.945,DMS_et_12-36,2022.2.4,None,
54,PRED,12,0.8187389996895809,0,images/picture_1.png,images/picture_1.png,0,"[11.733433509789462, -11.733433509789466]",11.733433509789462,-11.733433509789464,images/picture_2.png,1,"[-11.733433509789462, 11.733433509789464]",-11.733433509789462,11.733433509789464,images/picture_3.png,2,"[-11.733433509789466, -11.733433509789462]",-11.733433509789464,-11.733433509789462,0,1,1,0.8187389996895809,1.8187389996895809,1.1812610003104191,3.0,1,1.5687389996895809,0,4.0,3.0,1,2,6,0,6,0,0,4,4,0,,,,,,,585.6786797919776,585.6786797919776,586.6791394997854,587.2457467089407,587.4987754169852,587.4987754169852,587.4987754169852,588.6791644589975,588.6791644589975,588.6791644589975,588.6791644589975,589.6788570419885,200005,003,2023-04-04_11h08.51.945,DMS_et_12-36,2022.2.4,None,
60,PRED,12,0.8187389996895809,0,images/picture_1.png,images/picture_1.png,0,"[-11.733433509789466, -11.733433509789462]",-11.733433509789464,-11.733433509789462,images/picture_2.png,1,"[11.733433509789462, -11.733433509789466]",11.733433509789462,-11.733433509789464,images/picture_3.png,2,"[11.733433509789464, 11.733433509789462]",11.733433509789464,11.733433509789462,0,1,1,0.8187389996895809,1.8187389996895809,1.1812610003104191,3.0,1,1.5687389996895809,0,4.0,3.0,1,2,6,0,6,0,0,5,5,6,,,,,,,589.6788570419885,589.6788570419885,590.6791666669305,591.2457658748608,591.4986914589535,591.4986914589535,591.4986914589535,592.6787733749952,592.6787733749952,592.6787733749952,592.6787733749952,593.6787010419648,200005,003,2023-04-04_11h08.51.945,DMS_et_12-36,2022.2.4,None,
62,PRED,12,0.8187389996895809,0,images/picture_1.png,images/picture_1.png,0,"[11.733433509789464, 11.733433509789462]",11.733433509789464,11.733433509789462,images/picture_2.png,1,"[11.733433509789462, -11.733433509789466]",11.733433509789462,-11.733433509789464,images/picture_3.png,2,"[-11.733433509789466, -11.733433509789462]",-11.733433509789464,-11.733433509789462,0,1,1,0.8187389996895809,1.8187389996895809,1.1812610003104191,3.0,1,1.5687389996895809,0,4.0,3.0,1,2,6,0,6,0,0,6,6,8,,,,,,,593.6787010419648,593.6787010419648,594.6791951667983,595.2456997497939,595.498527708929,595.498527708929,595.498527708929,596.6791849168949,596.6791849168949,596.6791849168949,596.6791849168949,597.6786762089469,200005,003,2023-04-04_11h08.51.945,DMS_et_12-36,2022.2.4,None,
61,PRED,12,0.8187389996895809,0,images/picture_1.png,images/picture_1.png,0,"[11.733433509789462, -11.733433509789466]",11.733433509789462,-11.733433509789464,images/picture_2.png,1,"[-11.733433509789466, -11.733433509789462]",-11.733433509789464,-11.733433509789462,images/picture_3.png,2,"[11.733433509789464, 11.733433509789462]",11.733433509789464,11.733433509789462,0,1,1,0.8187389996895809,1.8187389996895809,1.1812610003104191,3.0,1,1.5687389996895809,0,4.0,3.0,1,2,6,0,6,0,0,7,7,7,,,,,,,597.6786762089469,597.6786762089469,598.6789003338199,599.2457279169466,599.4984444999136,599.4984444999136,599.4984444999136,600.6792979589663,600.6792979589663,600.6792979589663,600.6792979589663,601.678644791944,200005,003,2023-04-04_11h08.51.945,DMS_et_12-36,2022.2.4,None,
58,PRED,12,0.8187389996895809,0,images/picture_1.png,images/picture_1.png,0,"[-11.733433509789462, 11.733433509789464]",-11.733433509789462,11.733433509789464,images/picture_2.png,1,"[11.733433509789462, -11.733433509789466]",11.733433509789462,-11.733433509789464,images/picture_3.png,2,"[11.733433509789464, 11.733433509789462]",11.733433509789464,11.733433509789462,0,1,1,0.8187389996895809,1.8187389996895809,1.1812610003104191,3.0,1,1.5687389996895809,0,4.0,3.0,1,2,6,0,6,0,0,8,8,4,,,,,,,601.678644791944,601.678644791944,602.67882391694,603.2456362498924,603.4986319169402,603.4986319169402,603.4986319169402,604.6790114999749,604.6790114999749,604.6790114999749,604.6790114999749,605.7586899169255,200005,003,2023-04-04_11h08.51.945,DMS_et_12-36,2022.2.4,None,
,,,,,,,,,,,,,,,,,,,,,,,,,,,,,,,,,,,6,0,6,0,,,,,,,,,605.7586899169255,617.7795519588981,,,,,,,,,,,,,200005,003,2023-04-04_11h08.51.945,DMS_et_12-36,2022.2.4,None,
66,UNPRED,12,0.8187389996895809,0,images/picture_1.png,images/picture_1.png,0,"[11.733433509789462, -11.733433509789466]",11.733433509789462,-11.733433509789464,images/picture_2.png,1,"[-11.733433509789462, 11.733433509789464]",-11.733433509789462,11.733433509789464,images/picture_3.png,2,"[11.733433509789464, 11.733433509789462]",11.733433509789464,11.733433509789462,0,1,1,0.8187389996895809,1.8187389996895809,1.1812610003104191,3.0,1,1.5687389996895809,0,4.0,3.0,1,2,7,0,7,0,0,0,0,3,,,,,,,617.7795519588981,617.7795519588981,618.7790248747915,619.3455711249262,619.5985887087882,619.5985887087882,619.5985887087882,620.7790073337965,620.7790073337965,620.7790073337965,620.7790073337965,621.7784957918338,200005,003,2023-04-04_11h08.51.945,DMS_et_12-36,2022.2.4,None,
64,UNPRED,12,0.8187389996895809,0,images/picture_1.png,images/picture_1.png,0,"[-11.733433509789466, -11.733433509789462]",-11.733433509789464,-11.733433509789462,images/picture_2.png,1,"[-11.733433509789462, 11.733433509789464]",-11.733433509789462,11.733433509789464,images/picture_3.png,2,"[11.733433509789462, -11.733433509789466]",11.733433509789462,-11.733433509789464,0,1,1,0.8187389996895809,1.8187389996895809,1.1812610003104191,3.0,1,1.5687389996895809,0,4.0,3.0,1,2,7,0,7,0,0,1,1,1,,,,,,,621.7784957918338,621.7784957918338,622.7787675419822,623.3455652089324,623.597811124986,623.597811124986,623.597811124986,624.7791899167933,624.7791899167933,624.7791899167933,624.7791899167933,625.7777714168187,200005,003,2023-04-04_11h08.51.945,DMS_et_12-36,2022.2.4,None,
63,UNPRED,12,0.8187389996895809,1,images/picture_2.png,images/picture_1.png,0,"[-11.733433509789462, 11.733433509789464]",-11.733433509789462,11.733433509789464,images/picture_2.png,1,"[11.733433509789462, -11.733433509789466]",11.733433509789462,-11.733433509789464,images/picture_3.png,2,"[11.733433509789464, 11.733433509789462]",11.733433509789464,11.733433509789462,0,1,1,0.8187389996895809,1.8187389996895809,1.1812610003104191,3.0,1,1.5687389996895809,0,4.0,3.0,1,2,7,0,7,0,0,2,2,0,,,,,,,625.7777714168187,625.7777714168187,626.779222958954,627.345698249992,627.598543333821,627.598543333821,627.598543333821,628.7788774168584,628.7788774168584,628.7788774168584,628.7788774168584,629.7979259588756,200005,003,2023-04-04_11h08.51.945,DMS_et_12-36,2022.2.4,None,
71,UNPRED,12,0.8187389996895809,2,images/picture_3.png,images/picture_1.png,0,"[11.733433509789462, -11.733433509789466]",11.733433509789462,-11.733433509789464,images/picture_2.png,1,"[-11.733433509789466, -11.733433509789462]",-11.733433509789464,-11.733433509789462,images/picture_3.png,2,"[-11.733433509789462, 11.733433509789464]",-11.733433509789462,11.733433509789464,0,1,1,0.8187389996895809,1.8187389996895809,1.1812610003104191,3.0,1,1.5687389996895809,0,4.0,3.0,1,2,7,0,7,0,0,3,3,8,,,,,,,629.7979259588756,629.7979259588756,630.8124232499395,631.3791733749676,631.5993568338454,631.5993568338454,631.5993568338454,632.7789877918549,632.7789877918549,632.7789877918549,632.7789877918549,633.7797108339146,200005,003,2023-04-04_11h08.51.945,DMS_et_12-36,2022.2.4,None,
65,UNPRED,12,0.8187389996895809,2,images/picture_3.png,images/picture_1.png,0,"[11.733433509789462, -11.733433509789466]",11.733433509789462,-11.733433509789464,images/picture_2.png,1,"[-11.733433509789462, 11.733433509789464]",-11.733433509789462,11.733433509789464,images/picture_3.png,2,"[-11.733433509789466, -11.733433509789462]",-11.733433509789464,-11.733433509789462,0,1,1,0.8187389996895809,1.8187389996895809,1.1812610003104191,3.0,1,1.5687389996895809,0,4.0,3.0,1,2,7,0,7,0,0,4,4,2,,,,,,,633.7797108339146,633.7797108339146,634.7789406247903,635.3459099999163,635.5986662500072,635.5986662500072,635.5986662500072,636.7791856247932,636.7791856247932,636.7791856247932,636.7791856247932,637.778469374869,200005,003,2023-04-04_11h08.51.945,DMS_et_12-36,2022.2.4,None,
67,UNPRED,12,0.8187389996895809,0,images/picture_1.png,images/picture_1.png,0,"[-11.733433509789466, -11.733433509789462]",-11.733433509789464,-11.733433509789462,images/picture_2.png,1,"[-11.733433509789462, 11.733433509789464]",-11.733433509789462,11.733433509789464,images/picture_3.png,2,"[11.733433509789462, -11.733433509789466]",11.733433509789462,-11.733433509789464,0,1,1,0.8187389996895809,1.8187389996895809,1.1812610003104191,3.0,1,1.5687389996895809,0,4.0,3.0,1,2,7,0,7,0,0,5,5,4,,,,,,,637.778469374869,637.778469374869,638.7790292499121,639.345771541819,639.5981001670007,639.5981001670007,639.5981001670007,640.7792349169031,640.7792349169031,640.7792349169031,640.7792349169031,641.7785101667978,200005,003,2023-04-04_11h08.51.945,DMS_et_12-36,2022.2.4,None,
69,UNPRED,12,0.8187389996895809,0,images/picture_1.png,images/picture_1.png,0,"[11.733433509789462, -11.733433509789466]",11.733433509789462,-11.733433509789464,images/picture_2.png,1,"[-11.733433509789462, 11.733433509789464]",-11.733433509789462,11.733433509789464,images/picture_3.png,2,"[11.733433509789464, 11.733433509789462]",11.733433509789464,11.733433509789462,0,1,1,0.8187389996895809,1.8187389996895809,1.1812610003104191,3.0,1,1.5687389996895809,0,4.0,3.0,1,2,7,0,7,0,0,6,6,6,,,,,,,641.7785101667978,641.7785101667978,642.7789766248316,643.3457172918133,643.5983316248748,643.5983316248748,643.5983316248748,644.7789406247903,644.7789406247903,644.7789406247903,644.7789406247903,645.7982979170047,200005,003,2023-04-04_11h08.51.945,DMS_et_12-36,2022.2.4,None,
70,UNPRED,12,0.8187389996895809,2,images/picture_3.png,images/picture_1.png,0,"[11.733433509789464, 11.733433509789462]",11.733433509789464,11.733433509789462,images/picture_2.png,1,"[11.733433509789462, -11.733433509789466]",11.733433509789462,-11.733433509789464,images/picture_3.png,2,"[-11.733433509789466, -11.733433509789462]",-11.733433509789464,-11.733433509789462,0,1,1,0.8187389996895809,1.8187389996895809,1.1812610003104191,3.0,1,1.5687389996895809,0,4.0,3.0,1,2,7,0,7,0,0,7,7,7,,,,,,,645.7982979170047,645.7982979170047,646.812634791946,647.3790758748073,647.5984224169515,647.5984224169515,647.5984224169515,648.7791542499326,648.7791542499326,648.7791542499326,648.7791542499326,649.7788757088128,200005,003,2023-04-04_11h08.51.945,DMS_et_12-36,2022.2.4,None,
68,UNPRED,12,0.8187389996895809,1,images/picture_2.png,images/picture_1.png,0,"[11.733433509789464, 11.733433509789462]",11.733433509789464,11.733433509789462,images/picture_2.png,1,"[11.733433509789462, -11.733433509789466]",11.733433509789462,-11.733433509789464,images/picture_3.png,2,"[-11.733433509789466, -11.733433509789462]",-11.733433509789464,-11.733433509789462,0,1,1,0.8187389996895809,1.8187389996895809,1.1812610003104191,3.0,1,1.5687389996895809,0,4.0,3.0,1,2,7,0,7,0,0,8,8,5,,,,,,,649.7788757088128,649.7788757088128,650.7792704589665,651.3457297089044,651.5989078748971,651.5989078748971,651.5989078748971,652.7789822497871,652.7789822497871,652.7789822497871,652.7789822497871,653.8489597088192,200005,003,2023-04-04_11h08.51.945,DMS_et_12-36,2022.2.4,None,
,,,,,,,,,,,,,,,,,,,,,,,,,,,,,,,,,,,7,0,7,0,,,,,,,,,653.8489597088192,665.8754955839831,,,,,,,,,,,,,200005,003,2023-04-04_11h08.51.945,DMS_et_12-36,2022.2.4,None,
78,PRED,12,0.8187389996895809,2,images/picture_3.png,images/picture_1.png,0,"[11.733433509789462, -11.733433509789466]",11.733433509789462,-11.733433509789464,images/picture_2.png,1,"[-11.733433509789466, -11.733433509789462]",-11.733433509789464,-11.733433509789462,images/picture_3.png,2,"[-11.733433509789462, 11.733433509789464]",-11.733433509789462,11.733433509789464,0,1,1,0.8187389996895809,1.8187389996895809,1.1812610003104191,3.0,1,1.5687389996895809,0,4.0,3.0,1,2,8,0,8,0,0,0,0,6,,,,,,,665.8754955839831,665.8754955839831,666.8792384169064,667.4457307499833,667.678857666906,667.678857666906,667.678857666906,668.8653023338411,668.8653023338411,668.8653023338411,668.8653023338411,669.8980309588369,200005,003,2023-04-04_11h08.51.945,DMS_et_12-36,2022.2.4,None,
76,PRED,12,0.8187389996895809,2,images/picture_3.png,images/picture_1.png,0,"[-11.733433509789466, -11.733433509789462]",-11.733433509789464,-11.733433509789462,images/picture_2.png,1,"[11.733433509789462, -11.733433509789466]",11.733433509789462,-11.733433509789464,images/picture_3.png,2,"[-11.733433509789462, 11.733433509789464]",-11.733433509789462,11.733433509789464,0,1,1,0.8187389996895809,1.8187389996895809,1.1812610003104191,3.0,1,1.5687389996895809,0,4.0,3.0,1,2,8,0,8,0,0,1,1,4,,,,,,,669.8980309588369,669.8980309588369,670.912397417007,671.478993666824,671.6986257089302,671.6986257089302,671.6986257089302,672.8791892498266,672.8791892498266,672.8791892498266,672.8791892498266,673.8978413338773,200005,003,2023-04-04_11h08.51.945,DMS_et_12-36,2022.2.4,None,
72,PRED,12,0.8187389996895809,2,images/picture_3.png,images/picture_1.png,0,"[-11.733433509789462, 11.733433509789464]",-11.733433509789462,11.733433509789464,images/picture_2.png,1,"[11.733433509789464, 11.733433509789462]",11.733433509789464,11.733433509789462,images/picture_3.png,2,"[11.733433509789462, -11.733433509789466]",11.733433509789462,-11.733433509789464,0,1,1,0.8187389996895809,1.8187389996895809,1.1812610003104191,3.0,1,1.5687389996895809,0,4.0,3.0,1,2,8,0,8,0,0,2,2,0,,,,,,,673.8978413338773,673.8978413338773,674.9122512917966,675.4792407918721,675.6986736669205,675.6986736669205,675.6986736669205,676.8789765418041,676.8789765418041,676.8789765418041,676.8789765418041,677.8983709998429,200005,003,2023-04-04_11h08.51.945,DMS_et_12-36,2022.2.4,None,
77,PRED,12,0.8187389996895809,2,images/picture_3.png,images/picture_1.png,0,"[-11.733433509789466, -11.733433509789462]",-11.733433509789464,-11.733433509789462,images/picture_2.png,1,"[11.733433509789464, 11.733433509789462]",11.733433509789464,11.733433509789462,images/picture_3.png,2,"[11.733433509789462, -11.733433509789466]",11.733433509789462,-11.733433509789464,0,1,1,0.8187389996895809,1.8187389996895809,1.1812610003104191,3.0,1,1.5687389996895809,0,4.0,3.0,1,2,8,0,8,0,0,3,3,5,,,,,,,677.8983709998429,677.8983709998429,678.9124406247865,679.4791594168637,679.6988305419218,679.6988305419218,679.6988305419218,680.8791493338067,680.8791493338067,680.8791493338067,680.8791493338067,681.8984614589717,200005,003,2023-04-04_11h08.51.945,DMS_et_12-36,2022.2.4,None,
73,PRED,12,0.8187389996895809,2,images/picture_3.png,images/picture_1.png,0,"[11.733433509789462, -11.733433509789466]",11.733433509789462,-11.733433509789464,images/picture_2.png,1,"[-11.733433509789466, -11.733433509789462]",-11.733433509789464,-11.733433509789462,images/picture_3.png,2,"[11.733433509789464, 11.733433509789462]",11.733433509789464,11.733433509789462,0,1,1,0.8187389996895809,1.8187389996895809,1.1812610003104191,3.0,1,1.5687389996895809,0,4.0,3.0,1,2,8,0,8,0,0,4,4,1,,,,,,,681.8984614589717,681.8984614589717,682.9124451668467,683.4790025840048,683.6985900839791,683.6985900839791,683.6985900839791,684.8788421249483,684.8788421249483,684.8788421249483,684.8788421249483,685.8981216668617,200005,003,2023-04-04_11h08.51.945,DMS_et_12-36,2022.2.4,None,
75,PRED,12,0.8187389996895809,2,images/picture_3.png,images/picture_1.png,0,"[11.733433509789464, 11.733433509789462]",11.733433509789464,11.733433509789462,images/picture_2.png,1,"[11.733433509789462, -11.733433509789466]",11.733433509789462,-11.733433509789464,images/picture_3.png,2,"[-11.733433509789462, 11.733433509789464]",-11.733433509789462,11.733433509789464,0,1,1,0.8187389996895809,1.8187389996895809,1.1812610003104191,3.0,1,1.5687389996895809,0,4.0,3.0,1,2,8,0,8,0,0,5,5,3,,,,,,,685.8981216668617,685.8981216668617,686.9124479168095,687.4791950418148,687.6977533749305,687.6977533749305,687.6977533749305,688.8791779589374,688.8791779589374,688.8791779589374,688.8791779589374,689.8985545418691,200005,003,2023-04-04_11h08.51.945,DMS_et_12-36,2022.2.4,None,
74,PRED,12,0.8187389996895809,2,images/picture_3.png,images/picture_1.png,0,"[-11.733433509789466, -11.733433509789462]",-11.733433509789464,-11.733433509789462,images/picture_2.png,1,"[11.733433509789464, 11.733433509789462]",11.733433509789464,11.733433509789462,images/picture_3.png,2,"[-11.733433509789462, 11.733433509789464]",-11.733433509789462,11.733433509789464,0,1,1,0.8187389996895809,1.8187389996895809,1.1812610003104191,3.0,1,1.5687389996895809,0,4.0,3.0,1,2,8,0,8,0,0,6,6,2,,,,,,,689.8985545418691,689.8985545418691,690.9125035419129,691.4790404587984,691.698519666912,691.698519666912,691.698519666912,692.8793687499128,692.8793687499128,692.8793687499128,692.8793687499128,693.8981112919282,200005,003,2023-04-04_11h08.51.945,DMS_et_12-36,2022.2.4,None,
80,PRED,12,0.8187389996895809,2,images/picture_3.png,images/picture_1.png,0,"[11.733433509789462, -11.733433509789466]",11.733433509789462,-11.733433509789464,images/picture_2.png,1,"[-11.733433509789462, 11.733433509789464]",-11.733433509789462,11.733433509789464,images/picture_3.png,2,"[-11.733433509789466, -11.733433509789462]",-11.733433509789464,-11.733433509789462,0,1,1,0.8187389996895809,1.8187389996895809,1.1812610003104191,3.0,1,1.5687389996895809,0,4.0,3.0,1,2,8,0,8,0,0,7,7,8,,,,,,,693.8981112919282,693.8981112919282,694.9120483750012,695.4788951249793,695.6977943337988,695.6977943337988,695.6977943337988,696.8791034168098,696.8791034168098,696.8791034168098,696.8791034168098,697.8978858748451,200005,003,2023-04-04_11h08.51.945,DMS_et_12-36,2022.2.4,None,
79,PRED,12,0.8187389996895809,2,images/picture_3.png,images/picture_1.png,0,"[-11.733433509789462, 11.733433509789464]",-11.733433509789462,11.733433509789464,images/picture_2.png,1,"[11.733433509789462, -11.733433509789466]",11.733433509789462,-11.733433509789464,images/picture_3.png,2,"[11.733433509789464, 11.733433509789462]",11.733433509789464,11.733433509789462,0,1,1,0.8187389996895809,1.8187389996895809,1.1812610003104191,3.0,1,1.5687389996895809,0,4.0,3.0,1,2,8,0,8,0,0,8,8,7,,,,,,,697.8978858748451,697.8978858748451,698.9122172920033,699.4793394168373,699.699050291907,699.699050291907,699.699050291907,700.8791054999456,700.8791054999456,700.8791054999456,700.8791054999456,701.9782599587925,200005,003,2023-04-04_11h08.51.945,DMS_et_12-36,2022.2.4,None,
,,,,,,,,,,,,,,,,,,,,,,,,,,,,,,,,,,,8,0,8,0,,,,,,,,,701.9782599587925,714.0082922498696,,,,,,,,,,,,,200005,003,2023-04-04_11h08.51.945,DMS_et_12-36,2022.2.4,None,
87,UNPRED,12,0.8187389996895809,2,images/picture_3.png,images/picture_1.png,0,"[-11.733433509789466, -11.733433509789462]",-11.733433509789464,-11.733433509789462,images/picture_2.png,1,"[11.733433509789464, 11.733433509789462]",11.733433509789464,11.733433509789462,images/picture_3.png,2,"[11.733433509789462, -11.733433509789466]",11.733433509789462,-11.733433509789464,0,1,1,0.8187389996895809,1.8187389996895809,1.1812610003104191,3.0,1,1.5687389996895809,0,4.0,3.0,1,2,9,0,9,0,0,0,0,6,,,,,,,714.0082922498696,714.0082922498696,715.012625125004,715.5788363339379,715.8121867089067,715.8121867089067,715.8121867089067,716.9988725839648,716.9988725839648,716.9988725839648,716.9988725839648,718.0317922919057,200005,003,2023-04-04_11h08.51.945,DMS_et_12-36,2022.2.4,None,
83,UNPRED,12,0.8187389996895809,1,images/picture_2.png,images/picture_1.png,0,"[-11.733433509789466, -11.733433509789462]",-11.733433509789464,-11.733433509789462,images/picture_2.png,1,"[11.733433509789462, -11.733433509789466]",11.733433509789462,-11.733433509789464,images/picture_3.png,2,"[11.733433509789464, 11.733433509789462]",11.733433509789464,11.733433509789462,0,1,1,0.8187389996895809,1.8187389996895809,1.1812610003104191,3.0,1,1.5687389996895809,0,4.0,3.0,1,2,9,0,9,0,0,1,1,2,,,,,,,718.0317922919057,718.0317922919057,719.0457520838827,719.6125543338712,719.8318437088747,719.8318437088747,719.8318437088747,721.0126052089036,721.0126052089036,721.0126052089036,721.0126052089036,722.0118376668543,200005,003,2023-04-04_11h08.51.945,DMS_et_12-36,2022.2.4,None,
89,UNPRED,12,0.8187389996895809,1,images/picture_2.png,images/picture_1.png,0,"[11.733433509789462, -11.733433509789466]",11.733433509789462,-11.733433509789464,images/picture_2.png,1,"[11.733433509789464, 11.733433509789462]",11.733433509789464,11.733433509789462,images/picture_3.png,2,"[-11.733433509789462, 11.733433509789464]",-11.733433509789462,11.733433509789464,0,1,1,0.8187389996895809,1.8187389996895809,1.1812610003104191,3.0,1,1.5687389996895809,0,4.0,3.0,1,2,9,0,9,0,0,2,2,8,,,,,,,722.0118376668543,722.0118376668543,723.0123882498592,723.5791501668282,723.8321102918126,723.8321102918126,723.8321102918126,725.0124641249422,725.0124641249422,725.0124641249422,725.0124641249422,726.0310748748016,200005,003,2023-04-04_11h08.51.945,DMS_et_12-36,2022.2.4,None,
88,UNPRED,12,0.8187389996895809,2,images/picture_3.png,images/picture_1.png,0,"[11.733433509789462, -11.733433509789466]",11.733433509789462,-11.733433509789464,images/picture_2.png,1,"[-11.733433509789466, -11.733433509789462]",-11.733433509789464,-11.733433509789462,images/picture_3.png,2,"[-11.733433509789462, 11.733433509789464]",-11.733433509789462,11.733433509789464,0,1,1,0.8187389996895809,1.8187389996895809,1.1812610003104191,3.0,1,1.5687389996895809,0,4.0,3.0,1,2,9,0,9,0,0,3,3,7,,,,,,,726.0310748748016,726.0310748748016,727.0456067919731,727.612698291894,727.8315529997926,727.8315529997926,727.8315529997926,729.0124404169619,729.0124404169619,729.0124404169619,729.0124404169619,730.0310279999394,200005,003,2023-04-04_11h08.51.945,DMS_et_12-36,2022.2.4,None,
86,UNPRED,12,0.8187389996895809,2,images/picture_3.png,images/picture_1.png,0,"[11.733433509789462, -11.733433509789466]",11.733433509789462,-11.733433509789464,images/picture_2.png,1,"[-11.733433509789466, -11.733433509789462]",-11.733433509789464,-11.733433509789462,images/picture_3.png,2,"[11.733433509789464, 11.733433509789462]",11.733433509789464,11.733433509789462,0,1,1,0.8187389996895809,1.8187389996895809,1.1812610003104191,3.0,1,1.5687389996895809,0,4.0,3.0,1,2,9,0,9,0,0,4,4,5,,,,,,,730.0310279999394,730.0310279999394,731.0457456668373,731.6125318747945,731.8319850838743,731.8319850838743,731.8319850838743,733.0124359999318,733.0124359999318,733.0124359999318,733.0124359999318,734.0127374588046,200005,003,2023-04-04_11h08.51.945,DMS_et_12-36,2022.2.4,None,
85,UNPRED,12,0.8187389996895809,0,images/picture_1.png,images/picture_1.png,0,"[-11.733433509789462, 11.733433509789464]",-11.733433509789462,11.733433509789464,images/picture_2.png,1,"[11.733433509789464, 11.733433509789462]",11.733433509789464,11.733433509789462,images/picture_3.png,2,"[-11.733433509789466, -11.733433509789462]",-11.733433509789464,-11.733433509789462,0,1,1,0.8187389996895809,1.8187389996895809,1.1812610003104191,3.0,1,1.5687389996895809,0,4.0,3.0,1,2,9,0,9,0,0,5,5,4,,,,,,,734.0127374588046,734.0127374588046,735.0124188337941,735.5790738340002,735.8312580839265,735.8312580839265,735.8312580839265,737.0125827088486,737.0125827088486,737.0125827088486,737.0125827088486,738.0117003337946,200005,003,2023-04-04_11h08.51.945,DMS_et_12-36,2022.2.4,None,
84,UNPRED,12,0.8187389996895809,1,images/picture_2.png,images/picture_1.png,0,"[-11.733433509789462, 11.733433509789464]",-11.733433509789462,11.733433509789464,images/picture_2.png,1,"[-11.733433509789466, -11.733433509789462]",-11.733433509789464,-11.733433509789462,images/picture_3.png,2,"[11.733433509789464, 11.733433509789462]",11.733433509789464,11.733433509789462,0,1,1,0.8187389996895809,1.8187389996895809,1.1812610003104191,3.0,1,1.5687389996895809,0,4.0,3.0,1,2,9,0,9,0,0,6,6,3,,,,,,,738.0117003337946,738.0117003337946,739.0125397918746,739.5791779169813,739.8317203340121,739.8317203340121,739.8317203340121,741.0124401669018,741.0124401669018,741.0124401669018,741.0124401669018,742.0119148339145,200005,003,2023-04-04_11h08.51.945,DMS_et_12-36,2022.2.4,None,
82,UNPRED,12,0.8187389996895809,0,images/picture_1.png,images/picture_1.png,0,"[11.733433509789464, 11.733433509789462]",11.733433509789464,11.733433509789462,images/picture_2.png,1,"[11.733433509789462, -11.733433509789466]",11.733433509789462,-11.733433509789464,images/picture_3.png,2,"[-11.733433509789462, 11.733433509789464]",-11.733433509789462,11.733433509789464,0,1,1,0.8187389996895809,1.8187389996895809,1.1812610003104191,3.0,1,1.5687389996895809,0,4.0,3.0,1,2,9,0,9,0,0,7,7,1,,,,,,,742.0119148339145,742.0119148339145,743.0124150838237,743.5789782919455,743.8317192499526,743.8317192499526,743.8317192499526,745.0124699589796,745.0124699589796,745.0124699589796,745.0124699589796,746.0121472917963,200005,003,2023-04-04_11h08.51.945,DMS_et_12-36,2022.2.4,None,
81,UNPRED,12,0.8187389996895809,0,images/picture_1.png,images/picture_1.png,0,"[11.733433509789462, -11.733433509789466]",11.733433509789462,-11.733433509789464,images/picture_2.png,1,"[-11.733433509789466, -11.733433509789462]",-11.733433509789464,-11.733433509789462,images/picture_3.png,2,"[11.733433509789464, 11.733433509789462]",11.733433509789464,11.733433509789462,0,1,1,0.8187389996895809,1.8187389996895809,1.1812610003104191,3.0,1,1.5687389996895809,0,4.0,3.0,1,2,9,0,9,0,0,8,8,0,,,,,,,746.0121472917963,746.0121472917963,747.0121710838284,747.5791789169889,747.8320484999567,747.8320484999567,747.8320484999567,749.0124326248188,749.0124326248188,749.0124326248188,749.0124326248188,750.118484208826,200005,003,2023-04-04_11h08.51.945,DMS_et_12-36,2022.2.4,None,
,,,,,,,,,,,,,,,,,,,,,,,,,,,,,,,,,,,9,0,9,0,,,,,,,,,750.118484208826,762.1665772499982,,,,,,,,,,,,,200005,003,2023-04-04_11h08.51.945,DMS_et_12-36,2022.2.4,None,
98,PRED,12,0.8187389996895809,2,images/picture_3.png,images/picture_1.png,0,"[11.733433509789464, 11.733433509789462]",11.733433509789464,11.733433509789462,images/picture_2.png,1,"[-11.733433509789466, -11.733433509789462]",-11.733433509789464,-11.733433509789462,images/picture_3.png,2,"[11.733433509789462, -11.733433509789466]",11.733433509789462,-11.733433509789464,0,1,1,0.8187389996895809,1.8187389996895809,1.1812610003104191,3.0,1,1.5687389996895809,0,4.0,3.0,1,2,10,0,10,0,0,0,0,8,,,,,,,762.1665772499982,762.1665772499982,763.1793027089443,763.7455592087936,763.978948083939,763.978948083939,763.978948083939,765.1654302917887,765.1654302917887,765.1654302917887,765.1458795838989,766.1645969999954,200005,003,2023-04-04_11h08.51.945,DMS_et_12-36,2022.2.4,None,
91,PRED,12,0.8187389996895809,2,images/picture_3.png,images/picture_1.png,0,"[-11.733433509789466, -11.733433509789462]",-11.733433509789464,-11.733433509789462,images/picture_2.png,1,"[11.733433509789462, -11.733433509789466]",11.733433509789462,-11.733433509789464,images/picture_3.png,2,"[-11.733433509789462, 11.733433509789464]",-11.733433509789462,11.733433509789464,0,1,1,0.8187389996895809,1.8187389996895809,1.1812610003104191,3.0,1,1.5687389996895809,0,4.0,3.0,1,2,10,0,10,0,0,1,1,1,,,,,,,766.1645969999954,766.1645969999954,767.1787372918334,767.7455849167891,767.9656983339228,767.9656983339228,767.9656983339228,769.1457195838448,769.1457195838448,769.1457195838448,769.1457195838448,770.1646076668985,200005,003,2023-04-04_11h08.51.945,DMS_et_12-36,2022.2.4,None,
90,PRED,12,0.8187389996895809,2,images/picture_3.png,images/picture_1.png,0,"[-11.733433509789462, 11.733433509789464]",-11.733433509789462,11.733433509789464,images/picture_2.png,1,"[-11.733433509789466, -11.733433509789462]",-11.733433509789464,-11.733433509789462,images/picture_3.png,2,"[11.733433509789462, -11.733433509789466]",11.733433509789462,-11.733433509789464,0,1,1,0.8187389996895809,1.8187389996895809,1.1812610003104191,3.0,1,1.5687389996895809,0,4.0,3.0,1,2,10,0,10,0,0,2,2,0,,,,,,,770.1646076668985,770.1646076668985,771.1791992089711,771.7457337088417,771.9646644589957,771.9646644589957,771.9646644589957,773.145695624873,773.145695624873,773.145695624873,773.145695624873,774.1646757498384,200005,003,2023-04-04_11h08.51.945,DMS_et_12-36,2022.2.4,None,
96,PRED,12,0.8187389996895809,2,images/picture_3.png,images/picture_1.png,0,"[-11.733433509789466, -11.733433509789462]",-11.733433509789464,-11.733433509789462,images/picture_2.png,1,"[11.733433509789464, 11.733433509789462]",11.733433509789464,11.733433509789462,images/picture_3.png,2,"[-11.733433509789462, 11.733433509789464]",-11.733433509789462,11.733433509789464,0,1,1,0.8187389996895809,1.8187389996895809,1.1812610003104191,3.0,1,1.5687389996895809,0,4.0,3.0,1,2,10,0,10,0,0,3,3,6,,,,,,,774.1646757498384,774.1646757498384,775.1789879167918,775.7458828338422,775.9654569998384,775.9654569998384,775.9654569998384,777.1454398748465,777.1454398748465,777.1454398748465,777.1454398748465,778.164862458827,200005,003,2023-04-04_11h08.51.945,DMS_et_12-36,2022.2.4,None,
97,PRED,12,0.8187389996895809,2,images/picture_3.png,images/picture_1.png,0,"[11.733433509789462, -11.733433509789466]",11.733433509789462,-11.733433509789464,images/picture_2.png,1,"[-11.733433509789462, 11.733433509789464]",-11.733433509789462,11.733433509789464,images/picture_3.png,2,"[11.733433509789464, 11.733433509789462]",11.733433509789464,11.733433509789462,0,1,1,0.8187389996895809,1.8187389996895809,1.1812610003104191,3.0,1,1.5687389996895809,0,4.0,3.0,1,2,10,0,10,0,0,4,4,7,,,,,,,778.164862458827,778.164862458827,779.1791129999328,779.745746291941,779.9654204999097,779.9654204999097,779.9654204999097,781.1457244169433,781.1457244169433,781.1457244169433,781.1457244169433,782.1647861669771,200005,003,2023-04-04_11h08.51.945,DMS_et_12-36,2022.2.4,None,
95,PRED,12,0.8187389996895809,2,images/picture_3.png,images/picture_1.png,0,"[-11.733433509789466, -11.733433509789462]",-11.733433509789464,-11.733433509789462,images/picture_2.png,1,"[11.733433509789462, -11.733433509789466]",11.733433509789462,-11.733433509789464,images/picture_3.png,2,"[11.733433509789464, 11.733433509789462]",11.733433509789464,11.733433509789462,0,1,1,0.8187389996895809,1.8187389996895809,1.1812610003104191,3.0,1,1.5687389996895809,0,4.0,3.0,1,2,10,0,10,0,0,5,5,5,,,,,,,782.1647861669771,782.1647861669771,783.1790157498326,783.7457020839211,783.9655432498548,783.9655432498548,783.9655432498548,785.1457080838736,785.1457080838736,785.1457080838736,785.1457080838736,786.1645232499577,200005,003,2023-04-04_11h08.51.945,DMS_et_12-36,2022.2.4,None,
92,PRED,12,0.8187389996895809,2,images/picture_3.png,images/picture_1.png,0,"[11.733433509789464, 11.733433509789462]",11.733433509789464,11.733433509789462,images/picture_2.png,1,"[11.733433509789462, -11.733433509789466]",11.733433509789462,-11.733433509789464,images/picture_3.png,2,"[-11.733433509789462, 11.733433509789464]",-11.733433509789462,11.733433509789464,0,1,1,0.8187389996895809,1.8187389996895809,1.1812610003104191,3.0,1,1.5687389996895809,0,4.0,3.0,1,2,10,0,10,0,0,6,6,2,,,,,,,786.1645232499577,786.1645232499577,787.1788574589882,787.7455118338112,787.9650127498899,787.9650127498899,787.9650127498899,789.1469425419345,789.1469425419345,789.1469425419345,789.1469425419345,790.1648752919864,200005,003,2023-04-04_11h08.51.945,DMS_et_12-36,2022.2.4,None,
94,PRED,12,0.8187389996895809,2,images/picture_3.png,images/picture_1.png,0,"[11.733433509789464, 11.733433509789462]",11.733433509789464,11.733433509789462,images/picture_2.png,1,"[-11.733433509789462, 11.733433509789464]",-11.733433509789462,11.733433509789464,images/picture_3.png,2,"[-11.733433509789466, -11.733433509789462]",-11.733433509789464,-11.733433509789462,0,1,1,0.8187389996895809,1.8187389996895809,1.1812610003104191,3.0,1,1.5687389996895809,0,4.0,3.0,1,2,10,0,10,0,0,7,7,4,,,,,,,790.1648752919864,790.1648752919864,791.1792048749048,791.7458771669772,791.9654759168625,791.9654759168625,791.9654759168625,793.145799083868,793.145799083868,793.145799083868,793.145799083868,794.1644766249228,200005,003,2023-04-04_11h08.51.945,DMS_et_12-36,2022.2.4,None,
93,PRED,12,0.8187389996895809,2,images/picture_3.png,images/picture_1.png,0,"[-11.733433509789466, -11.733433509789462]",-11.733433509789464,-11.733433509789462,images/picture_2.png,1,"[-11.733433509789462, 11.733433509789464]",-11.733433509789462,11.733433509789464,images/picture_3.png,2,"[11.733433509789462, -11.733433509789466]",11.733433509789462,-11.733433509789464,0,1,1,0.8187389996895809,1.8187389996895809,1.1812610003104191,3.0,1,1.5687389996895809,0,4.0,3.0,1,2,10,0,10,0,0,8,8,3,,,,,,,794.1644766249228,794.1644766249228,795.1789940840099,795.7457517918665,795.9652627499308,795.9652627499308,795.9652627499308,797.1457636249252,797.1457636249252,797.1457636249252,797.1457636249252,798.2442941248883,200005,003,2023-04-04_11h08.51.945,DMS_et_12-36,2022.2.4,None,
,,,,,,,,,,,,,,,,,,,,,,,,,,,,,,,,,,,10,0,10,0,,,,,,,,,798.2442941248883,810.2706349999644,,,,,,,,,,,,,200005,003,2023-04-04_11h08.51.945,DMS_et_12-36,2022.2.4,None,
105,UNPRED,12,0.8187389996895809,1,images/picture_2.png,images/picture_1.png,0,"[-11.733433509789466, -11.733433509789462]",-11.733433509789464,-11.733433509789462,images/picture_2.png,1,"[11.733433509789464, 11.733433509789462]",11.733433509789464,11.733433509789462,images/picture_3.png,2,"[11.733433509789462, -11.733433509789466]",11.733433509789462,-11.733433509789464,0,1,1,0.8187389996895809,1.8187389996895809,1.1812610003104191,3.0,1,1.5687389996895809,0,4.0,3.0,1,2,11,0,11,0,0,0,0,6,,,,,,,810.2706349999644,810.2706349999644,811.2790869169403,811.8457931249868,812.0790607919917,812.0790607919917,812.0790607919917,813.2651719998103,813.2651719998103,813.2651719998103,813.2651719998103,814.2797138339374,200005,003,2023-04-04_11h08.51.945,DMS_et_12-36,2022.2.4,None,
107,UNPRED,12,0.8187389996895809,0,images/picture_1.png,images/picture_1.png,0,"[-11.733433509789462, 11.733433509789464]",-11.733433509789462,11.733433509789464,images/picture_2.png,1,"[-11.733433509789466, -11.733433509789462]",-11.733433509789464,-11.733433509789462,images/picture_3.png,2,"[11.733433509789464, 11.733433509789462]",11.733433509789464,11.733433509789462,0,1,1,0.8187389996895809,1.8187389996895809,1.1812610003104191,3.0,1,1.5687389996895809,0,4.0,3.0,1,2,11,0,11,0,0,1,1,8,,,,,,,814.2797138339374,814.2797138339374,815.279229916865,815.8458024999127,816.0986806668807,816.0986806668807,816.0986806668807,817.2791569170076,817.2791569170076,817.2791569170076,817.2791569170076,818.2789078748319,200005,003,2023-04-04_11h08.51.945,DMS_et_12-36,2022.2.4,None,
103,UNPRED,12,0.8187389996895809,1,images/picture_2.png,images/picture_1.png,0,"[11.733433509789462, -11.733433509789466]",11.733433509789462,-11.733433509789464,images/picture_2.png,1,"[-11.733433509789466, -11.733433509789462]",-11.733433509789464,-11.733433509789462,images/picture_3.png,2,"[11.733433509789464, 11.733433509789462]",11.733433509789464,11.733433509789462,0,1,1,0.8187389996895809,1.8187389996895809,1.1812610003104191,3.0,1,1.5687389996895809,0,4.0,3.0,1,2,11,0,11,0,0,2,2,4,,,,,,,818.2789078748319,818.2789078748319,819.2791580418125,819.8458538339473,820.0987230839673,820.0987230839673,820.0987230839673,821.2791667499114,821.2791667499114,821.2791667499114,821.2791667499114,822.278661249904,200005,003,2023-04-04_11h08.51.945,DMS_et_12-36,2022.2.4,None,
102,UNPRED,12,0.8187389996895809,1,images/picture_2.png,images/picture_1.png,0,"[-11.733433509789462, 11.733433509789464]",-11.733433509789462,11.733433509789464,images/picture_2.png,1,"[-11.733433509789466, -11.733433509789462]",-11.733433509789464,-11.733433509789462,images/picture_3.png,2,"[11.733433509789462, -11.733433509789466]",11.733433509789462,-11.733433509789464,0,1,1,0.8187389996895809,1.8187389996895809,1.1812610003104191,3.0,1,1.5687389996895809,0,4.0,3.0,1,2,11,0,11,0,0,3,3,3,,,,,,,822.278661249904,822.278661249904,823.2792234998196,823.8458725837991,824.0985555418301,824.0985555418301,824.0985555418301,825.279012999963,825.279012999963,825.279012999963,825.279012999963,826.2979438749608,200005,003,2023-04-04_11h08.51.945,DMS_et_12-36,2022.2.4,None,
101,UNPRED,12,0.8187389996895809,2,images/picture_3.png,images/picture_1.png,0,"[-11.733433509789462, 11.733433509789464]",-11.733433509789462,11.733433509789464,images/picture_2.png,1,"[-11.733433509789466, -11.733433509789462]",-11.733433509789464,-11.733433509789462,images/picture_3.png,2,"[11.733433509789462, -11.733433509789466]",11.733433509789462,-11.733433509789464,0,1,1,0.8187389996895809,1.8187389996895809,1.1812610003104191,3.0,1,1.5687389996895809,0,4.0,3.0,1,2,11,0,11,0,0,4,4,2,,,,,,,826.2979438749608,826.2979438749608,827.3124652497936,827.8790333748329,828.0985459999647,828.0985459999647,828.0985459999647,829.2789227089379,829.2789227089379,829.2789227089379,829.2789227089379,830.2794749590103,200005,003,2023-04-04_11h08.51.945,DMS_et_12-36,2022.2.4,None,
99,UNPRED,12,0.8187389996895809,1,images/picture_2.png,images/picture_1.png,0,"[-11.733433509789462, 11.733433509789464]",-11.733433509789462,11.733433509789464,images/picture_2.png,1,"[11.733433509789462, -11.733433509789466]",11.733433509789462,-11.733433509789464,images/picture_3.png,2,"[11.733433509789464, 11.733433509789462]",11.733433509789464,11.733433509789462,0,1,1,0.8187389996895809,1.8187389996895809,1.1812610003104191,3.0,1,1.5687389996895809,0,4.0,3.0,1,2,11,0,11,0,0,5,5,0,,,,,,,830.2794749590103,830.2794749590103,831.2792190839536,831.8458007918671,832.0991517920047,832.0991517920047,832.0991517920047,833.2789690839127,833.2789690839127,833.2789690839127,833.2789690839127,834.2786267919,200005,003,2023-04-04_11h08.51.945,DMS_et_12-36,2022.2.4,None,
106,UNPRED,12,0.8187389996895809,1,images/picture_2.png,images/picture_1.png,0,"[-11.733433509789462, 11.733433509789464]",-11.733433509789462,11.733433509789464,images/picture_2.png,1,"[-11.733433509789466, -11.733433509789462]",-11.733433509789464,-11.733433509789462,images/picture_3.png,2,"[11.733433509789464, 11.733433509789462]",11.733433509789464,11.733433509789462,0,1,1,0.8187389996895809,1.8187389996895809,1.1812610003104191,3.0,1,1.5687389996895809,0,4.0,3.0,1,2,11,0,11,0,0,6,6,7,,,,,,,834.2786267919,834.2786267919,835.279155208962,835.8457797088195,836.0986988339573,836.0986988339573,836.0986988339573,837.2792103749234,837.2792103749234,837.2792103749234,837.2792103749234,838.2788724589627,200005,003,2023-04-04_11h08.51.945,DMS_et_12-36,2022.2.4,None,
104,UNPRED,12,0.8187389996895809,1,images/picture_2.png,images/picture_1.png,0,"[-11.733433509789462, 11.733433509789464]",-11.733433509789462,11.733433509789464,images/picture_2.png,1,"[-11.733433509789466, -11.733433509789462]",-11.733433509789464,-11.733433509789462,images/picture_3.png,2,"[11.733433509789464, 11.733433509789462]",11.733433509789464,11.733433509789462,0,1,1,0.8187389996895809,1.8187389996895809,1.1812610003104191,3.0,1,1.5687389996895809,0,4.0,3.0,1,2,11,0,11,0,0,7,7,5,,,,,,,838.2788724589627,838.2788724589627,839.2787724588998,839.8457227088511,840.0985345419031,840.0985345419031,840.0985345419031,841.2793727919925,841.2793727919925,841.2793727919925,841.2793727919925,842.2786083337851,200005,003,2023-04-04_11h08.51.945,DMS_et_12-36,2022.2.4,None,
100,UNPRED,12,0.8187389996895809,1,images/picture_2.png,images/picture_1.png,0,"[11.733433509789464, 11.733433509789462]",11.733433509789464,11.733433509789462,images/picture_2.png,1,"[-11.733433509789466, -11.733433509789462]",-11.733433509789464,-11.733433509789462,images/picture_3.png,2,"[-11.733433509789462, 11.733433509789464]",-11.733433509789462,11.733433509789464,0,1,1,0.8187389996895809,1.8187389996895809,1.1812610003104191,3.0,1,1.5687389996895809,0,4.0,3.0,1,2,11,0,11,0,0,8,8,1,,,,,,,842.2786083337851,842.2786083337851,843.2792143339757,843.8458424999844,844.0983905419707,844.0983905419707,844.0983905419707,845.2789865839295,845.2789865839295,845.2789865839295,845.2789865839295,846.3999848749954,200005,003,2023-04-04_11h08.51.945,DMS_et_12-36,2022.2.4,None,
,,,,,,,,,,,,,,,,,,,,,,,,,,,,,,,,,,,11,0,11,0,,,,,,,,,846.3999848749954,858.5429582088254,,,,,,,,,,,,,200005,003,2023-04-04_11h08.51.945,DMS_et_12-36,2022.2.4,None,
,,,,,,,,,,,,,,,,,,,,,,,,,,,,,,,,,,,,,,,,,,,,,,,858.5429582088254,871.0721159998793,,,,,,,,,,,,,,,,,,,
