trial_count,blockType,blockNum,delay_time,stimImage_i,stimImage,responseImage1,responseImage1_i,responseImage1_pos,responseImage1_X,responseImage1_Y,responseImage2,responseImage2_i,responseImage2_pos,responseImage2_X,responseImage2_Y,responseImage3,responseImage3_i,responseImage3_pos,responseImage3_X,responseImage3_Y,cue_onset,cue_dur,delay_onset,delay_dur,resp_onset,resp_dur,rest_onset,rest_dur,circle_dur,circle_onset,total_dur,cross_onset,cross_dur,delay_resp_period,blocks.thisRepN,blocks.thisTrialN,blocks.thisN,blocks.thisIndex,trials.thisRepN,trials.thisTrialN,trials.thisN,trials.thisIndex,key_resp.started,text.started,key_resp.keys,key_resp.rt,text_2.started,text_2.stopped,sample.started,Delay.started,sample.stopped,Delay.stopped,Response_1.started,Response_2.started,Response_3.started,Response_1.stopped,Response_2.stopped,Response_3.stopped,polygon.started,polygon.stopped,participant,session,date,expName,psychopyVersion,frameRate,
,,,,,,,,,,,,,,,,,,,,,,,,,,,,,,,,,,,,,,,,,,,84.0951544160489,84.0951544160489,t,67.11610920890234,,,,,,,,,,,,,,,200005,005,2023-04-04_11h39.20.732,DMS_et_12-36,2022.2.4,None,
4,PRED,12,1.1171200811871629,2,images/picture_3.png,images/picture_1.png,0,"[-11.733433509789462, 11.733433509789464]",-11.733433509789462,11.733433509789464,images/picture_2.png,1,"[-11.733433509789466, -11.733433509789462]",-11.733433509789464,-11.733433509789462,images/picture_3.png,2,"[11.733433509789464, 11.733433509789462]",11.733433509789464,11.733433509789462,0,1,1,1.1171200811871629,2.1171200811871627,0.8828799188128373,3.0,1,1.8671200811871629,0,4.0,3.0,1,2,0,0,0,0,0,0,0,4,,,,,151.73037574999034,163.7801501660142,163.7801501660142,163.7801501660142,164.7935114579741,165.65990583295934,165.87404862511903,165.87404862511903,165.87404862511903,166.76004604110494,166.76004604110494,166.76004604110494,166.76004604110494,167.7742312909104,200005,005,2023-04-04_11h39.20.732,DMS_et_12-36,2022.2.4,None,
0,PRED,12,1.1171200811871629,2,images/picture_3.png,images/picture_1.png,0,"[11.733433509789462, -11.733433509789466]",11.733433509789462,-11.733433509789464,images/picture_2.png,1,"[-11.733433509789462, 11.733433509789464]",-11.733433509789462,11.733433509789464,images/picture_3.png,2,"[-11.733433509789466, -11.733433509789462]",-11.733433509789464,-11.733433509789462,0,1,1,1.1171200811871629,2.1171200811871627,0.8828799188128373,3.0,1,1.8671200811871629,0,4.0,3.0,1,2,0,0,0,0,0,1,1,0,,,,,,,167.7742312909104,167.7742312909104,168.77384541602805,169.64058045810089,169.87347849993967,169.87347849993967,169.87347849993967,170.7600732499268,170.7600732499268,170.7600732499268,170.77387012494728,171.79299795790575,200005,005,2023-04-04_11h39.20.732,DMS_et_12-36,2022.2.4,None,
3,PRED,12,1.1171200811871629,2,images/picture_3.png,images/picture_1.png,0,"[-11.733433509789462, 11.733433509789464]",-11.733433509789462,11.733433509789464,images/picture_2.png,1,"[11.733433509789462, -11.733433509789466]",11.733433509789462,-11.733433509789464,images/picture_3.png,2,"[11.733433509789464, 11.733433509789462]",11.733433509789464,11.733433509789462,0,1,1,1.1171200811871629,2.1171200811871627,0.8828799188128373,3.0,1,1.8671200811871629,0,4.0,3.0,1,2,0,0,0,0,0,2,2,3,,,,,,,171.79299795790575,171.79299795790575,172.8071332499385,173.6738704580348,173.8932843329385,173.8932843329385,173.8932843329385,174.7739045000635,174.7739045000635,174.7739045000635,174.7739045000635,175.79273420805112,200005,005,2023-04-04_11h39.20.732,DMS_et_12-36,2022.2.4,None,
7,PRED,12,1.1171200811871629,2,images/picture_3.png,images/picture_1.png,0,"[-11.733433509789462, 11.733433509789464]",-11.733433509789462,11.733433509789464,images/picture_2.png,1,"[11.733433509789462, -11.733433509789466]",11.733433509789462,-11.733433509789464,images/picture_3.png,2,"[-11.733433509789466, -11.733433509789462]",-11.733433509789464,-11.733433509789462,0,1,1,1.1171200811871629,2.1171200811871627,0.8828799188128373,3.0,1,1.8671200811871629,0,4.0,3.0,1,2,0,0,0,0,0,3,3,7,,,,,,,175.79273420805112,175.79273420805112,176.8071398329921,177.67356016603298,177.89238675008528,177.89238675008528,177.89238675008528,178.77363066608086,178.77363066608086,178.77363066608086,178.77363066608086,179.7929206660483,200005,005,2023-04-04_11h39.20.732,DMS_et_12-36,2022.2.4,None,
6,PRED,12,1.1171200811871629,2,images/picture_3.png,images/picture_1.png,0,"[-11.733433509789462, 11.733433509789464]",-11.733433509789462,11.733433509789464,images/picture_2.png,1,"[11.733433509789462, -11.733433509789466]",11.733433509789462,-11.733433509789464,images/picture_3.png,2,"[11.733433509789464, 11.733433509789462]",11.733433509789464,11.733433509789462,0,1,1,1.1171200811871629,2.1171200811871627,0.8828799188128373,3.0,1,1.8671200811871629,0,4.0,3.0,1,2,0,0,0,0,0,4,4,6,,,,,,,179.7929206660483,179.7929206660483,180.80715900007635,181.67388962511905,181.89287795801647,181.89287795801647,181.89287795801647,182.7738922080025,182.7738922080025,182.7738922080025,182.7738922080025,183.7926901250612,200005,005,2023-04-04_11h39.20.732,DMS_et_12-36,2022.2.4,None,
2,PRED,12,1.1171200811871629,2,images/picture_3.png,images/picture_1.png,0,"[-11.733433509789462, 11.733433509789464]",-11.733433509789462,11.733433509789464,images/picture_2.png,1,"[11.733433509789462, -11.733433509789466]",11.733433509789462,-11.733433509789464,images/picture_3.png,2,"[11.733433509789464, 11.733433509789462]",11.733433509789464,11.733433509789462,0,1,1,1.1171200811871629,2.1171200811871627,0.8828799188128373,3.0,1,1.8671200811871629,0,4.0,3.0,1,2,0,0,0,0,0,5,5,2,,,,,,,183.7926901250612,183.7926901250612,184.80709587503225,185.67380016599782,185.89315291610546,185.89315291610546,185.89315291610546,186.7738689999096,186.7738689999096,186.7738689999096,186.7738689999096,187.79269924992695,200005,005,2023-04-04_11h39.20.732,DMS_et_12-36,2022.2.4,None,
8,PRED,12,1.1171200811871629,2,images/picture_3.png,images/picture_1.png,0,"[-11.733433509789462, 11.733433509789464]",-11.733433509789462,11.733433509789464,images/picture_2.png,1,"[11.733433509789464, 11.733433509789462]",11.733433509789464,11.733433509789462,images/picture_3.png,2,"[-11.733433509789466, -11.733433509789462]",-11.733433509789464,-11.733433509789462,0,1,1,1.1171200811871629,2.1171200811871627,0.8828799188128373,3.0,1,1.8671200811871629,0,4.0,3.0,1,2,0,0,0,0,0,6,6,8,,,,,,,187.79269924992695,187.79269924992695,188.80682012508623,189.67392133292742,189.89329649996944,189.89329649996944,189.89329649996944,190.7739035829436,190.7739035829436,190.7739035829436,190.7739035829436,191.7925990410149,200005,005,2023-04-04_11h39.20.732,DMS_et_12-36,2022.2.4,None,
1,PRED,12,1.1171200811871629,2,images/picture_3.png,images/picture_1.png,0,"[11.733433509789462, -11.733433509789466]",11.733433509789462,-11.733433509789464,images/picture_2.png,1,"[-11.733433509789466, -11.733433509789462]",-11.733433509789464,-11.733433509789462,images/picture_3.png,2,"[11.733433509789464, 11.733433509789462]",11.733433509789464,11.733433509789462,0,1,1,1.1171200811871629,2.1171200811871627,0.8828799188128373,3.0,1,1.8671200811871629,0,4.0,3.0,1,2,0,0,0,0,0,7,7,1,,,,,,,191.7925990410149,191.7925990410149,192.80728575005196,193.67378158308566,193.8931910409592,193.8931910409592,193.8931910409592,194.77388858306222,194.77388858306222,194.77388858306222,194.77388858306222,195.79293212504126,200005,005,2023-04-04_11h39.20.732,DMS_et_12-36,2022.2.4,None,
5,PRED,12,1.1171200811871629,2,images/picture_3.png,images/picture_1.png,0,"[11.733433509789464, 11.733433509789462]",11.733433509789464,11.733433509789462,images/picture_2.png,1,"[-11.733433509789466, -11.733433509789462]",-11.733433509789464,-11.733433509789462,images/picture_3.png,2,"[11.733433509789462, -11.733433509789466]",11.733433509789462,-11.733433509789464,0,1,1,1.1171200811871629,2.1171200811871627,0.8828799188128373,3.0,1,1.8671200811871629,0,4.0,3.0,1,2,0,0,0,0,0,8,8,5,,,,,,,195.79293212504126,195.79293212504126,196.80712862499058,197.6738409579266,197.89333212492056,197.89333212492056,197.89333212492056,198.7735850000754,198.7735850000754,198.7735850000754,198.7735850000754,199.79847245803103,200005,005,2023-04-04_11h39.20.732,DMS_et_12-36,2022.2.4,None,
,,,,,,,,,,,,,,,,,,,,,,,,,,,,,,,,,,,0,0,0,0,,,,,,,,,199.79847245803103,211.82579941605218,,,,,,,,,,,,,200005,005,2023-04-04_11h39.20.732,DMS_et_12-36,2022.2.4,None,
15,UNPRED,12,1.1171200811871629,1,images/picture_2.png,images/picture_1.png,0,"[11.733433509789462, -11.733433509789466]",11.733433509789462,-11.733433509789464,images/picture_2.png,1,"[11.733433509789464, 11.733433509789462]",11.733433509789464,11.733433509789462,images/picture_3.png,2,"[-11.733433509789466, -11.733433509789462]",-11.733433509789464,-11.733433509789462,0,1,1,1.1171200811871629,2.1171200811871627,0.8828799188128373,3.0,1,1.8671200811871629,0,4.0,3.0,1,2,1,0,1,0,0,0,0,6,,,,,,,211.82579941605218,211.82579941605218,212.8407189999707,213.70697545795701,213.94086083304137,213.94086083304137,213.94086083304137,214.82679737498984,214.82679737498984,214.82679737498984,214.80737062497064,215.8261682500597,200005,005,2023-04-04_11h39.20.732,DMS_et_12-36,2022.2.4,None,
10,UNPRED,12,1.1171200811871629,2,images/picture_3.png,images/picture_1.png,0,"[11.733433509789464, 11.733433509789462]",11.733433509789464,11.733433509789462,images/picture_2.png,1,"[11.733433509789462, -11.733433509789466]",11.733433509789462,-11.733433509789464,images/picture_3.png,2,"[-11.733433509789462, 11.733433509789464]",-11.733433509789462,11.733433509789464,0,1,1,1.1171200811871629,2.1171200811871627,0.8828799188128373,3.0,1,1.8671200811871629,0,4.0,3.0,1,2,1,0,1,0,0,1,1,1,,,,,,,215.8261682500597,215.8261682500597,216.84064216609113,217.70726545806974,217.92668662499636,217.92668662499636,217.92668662499636,218.80709183309227,218.80709183309227,218.80709183309227,218.80709183309227,219.8069586660713,200005,005,2023-04-04_11h39.20.732,DMS_et_12-36,2022.2.4,None,
17,UNPRED,12,1.1171200811871629,1,images/picture_2.png,images/picture_1.png,0,"[-11.733433509789466, -11.733433509789462]",-11.733433509789464,-11.733433509789462,images/picture_2.png,1,"[-11.733433509789462, 11.733433509789464]",-11.733433509789462,11.733433509789464,images/picture_3.png,2,"[11.733433509789462, -11.733433509789466]",11.733433509789462,-11.733433509789464,0,1,1,1.1171200811871629,2.1171200811871627,0.8828799188128373,3.0,1,1.8671200811871629,0,4.0,3.0,1,2,1,0,1,0,0,2,2,8,,,,,,,219.8069586660713,219.8069586660713,220.80739166610874,221.67411262495443,221.90736975008622,221.90736975008622,221.90736975008622,222.79329629102722,222.79329629102722,222.79329629102722,222.80732820811681,223.80666562495753,200005,005,2023-04-04_11h39.20.732,DMS_et_12-36,2022.2.4,None,
14,UNPRED,12,1.1171200811871629,1,images/picture_2.png,images/picture_1.png,0,"[11.733433509789462, -11.733433509789466]",11.733433509789462,-11.733433509789464,images/picture_2.png,1,"[11.733433509789464, 11.733433509789462]",11.733433509789464,11.733433509789462,images/picture_3.png,2,"[-11.733433509789462, 11.733433509789464]",-11.733433509789462,11.733433509789464,0,1,1,1.1171200811871629,2.1171200811871627,0.8828799188128373,3.0,1,1.8671200811871629,0,4.0,3.0,1,2,1,0,1,0,0,3,3,5,,,,,,,223.80666562495753,223.80666562495753,224.80734237493016,225.67387424991466,225.92673220811412,225.92673220811412,225.92673220811412,226.8073524159845,226.8073524159845,226.8073524159845,226.8073524159845,227.82621229090728,200005,005,2023-04-04_11h39.20.732,DMS_et_12-36,2022.2.4,None,
11,UNPRED,12,1.1171200811871629,2,images/picture_3.png,images/picture_1.png,0,"[-11.733433509789462, 11.733433509789464]",-11.733433509789462,11.733433509789464,images/picture_2.png,1,"[-11.733433509789466, -11.733433509789462]",-11.733433509789464,-11.733433509789462,images/picture_3.png,2,"[11.733433509789464, 11.733433509789462]",11.733433509789464,11.733433509789462,0,1,1,1.1171200811871629,2.1171200811871627,0.8828799188128373,3.0,1,1.8671200811871629,0,4.0,3.0,1,2,1,0,1,0,0,4,4,2,,,,,,,227.82621229090728,227.82621229090728,228.84069174993783,229.707106790971,229.92616129107773,229.92616129107773,229.92616129107773,230.80722408299334,230.80722408299334,230.80722408299334,230.80722408299334,231.80709758307785,200005,005,2023-04-04_11h39.20.732,DMS_et_12-36,2022.2.4,None,
12,UNPRED,12,1.1171200811871629,1,images/picture_2.png,images/picture_1.png,0,"[11.733433509789462, -11.733433509789466]",11.733433509789462,-11.733433509789464,images/picture_2.png,1,"[11.733433509789464, 11.733433509789462]",11.733433509789464,11.733433509789462,images/picture_3.png,2,"[-11.733433509789462, 11.733433509789464]",-11.733433509789462,11.733433509789464,0,1,1,1.1171200811871629,2.1171200811871627,0.8828799188128373,3.0,1,1.8671200811871629,0,4.0,3.0,1,2,1,0,1,0,0,5,5,3,,,,,,,231.80709758307785,231.80709758307785,232.80736166611314,233.6739582910668,233.92644833307713,233.92644833307713,233.92644833307713,234.80735679110512,234.80735679110512,234.80735679110512,234.80735679110512,235.80672129103914,200005,005,2023-04-04_11h39.20.732,DMS_et_12-36,2022.2.4,None,
9,UNPRED,12,1.1171200811871629,0,images/picture_1.png,images/picture_1.png,0,"[11.733433509789464, 11.733433509789462]",11.733433509789464,11.733433509789462,images/picture_2.png,1,"[-11.733433509789462, 11.733433509789464]",-11.733433509789462,11.733433509789464,images/picture_3.png,2,"[11.733433509789462, -11.733433509789466]",11.733433509789462,-11.733433509789464,0,1,1,1.1171200811871629,2.1171200811871627,0.8828799188128373,3.0,1,1.8671200811871629,0,4.0,3.0,1,2,1,0,1,0,0,6,6,0,,,,,,,235.80672129103914,235.80672129103914,236.80740616610274,237.67405749997124,237.92665270809084,237.92665270809084,237.92665270809084,238.80741341598332,238.80741341598332,238.80741341598332,238.80741341598332,239.80704487510957,200005,005,2023-04-04_11h39.20.732,DMS_et_12-36,2022.2.4,None,
16,UNPRED,12,1.1171200811871629,0,images/picture_1.png,images/picture_1.png,0,"[-11.733433509789462, 11.733433509789464]",-11.733433509789462,11.733433509789464,images/picture_2.png,1,"[-11.733433509789466, -11.733433509789462]",-11.733433509789464,-11.733433509789462,images/picture_3.png,2,"[11.733433509789464, 11.733433509789462]",11.733433509789464,11.733433509789462,0,1,1,1.1171200811871629,2.1171200811871627,0.8828799188128373,3.0,1,1.8671200811871629,0,4.0,3.0,1,2,1,0,1,0,0,7,7,7,,,,,,,239.80704487510957,239.80704487510957,240.80718225007877,241.67388779111207,241.90732991602272,241.90732991602272,241.90732991602272,242.79380183294415,242.79380183294415,242.79380183294415,242.80733737512492,243.80632862495258,200005,005,2023-04-04_11h39.20.732,DMS_et_12-36,2022.2.4,None,
13,UNPRED,12,1.1171200811871629,1,images/picture_2.png,images/picture_1.png,0,"[-11.733433509789462, 11.733433509789464]",-11.733433509789462,11.733433509789464,images/picture_2.png,1,"[-11.733433509789466, -11.733433509789462]",-11.733433509789464,-11.733433509789462,images/picture_3.png,2,"[11.733433509789464, 11.733433509789462]",11.733433509789464,11.733433509789462,0,1,1,1.1171200811871629,2.1171200811871627,0.8828799188128373,3.0,1,1.8671200811871629,0,4.0,3.0,1,2,1,0,1,0,0,8,8,4,,,,,,,243.80632862495258,243.80632862495258,244.8071582079865,245.6739057500381,245.92646312504075,245.92646312504075,245.92646312504075,246.80736095807515,246.80736095807515,246.80736095807515,246.80736095807515,247.84150270791724,200005,005,2023-04-04_11h39.20.732,DMS_et_12-36,2022.2.4,None,
,,,,,,,,,,,,,,,,,,,,,,,,,,,,,,,,,,,1,0,1,0,,,,,,,,,247.84150270791724,259.8592381249182,,,,,,,,,,,,,200005,005,2023-04-04_11h39.20.732,DMS_et_12-36,2022.2.4,None,
26,PRED,12,1.1171200811871629,0,images/picture_1.png,images/picture_1.png,0,"[-11.733433509789466, -11.733433509789462]",-11.733433509789464,-11.733433509789462,images/picture_2.png,1,"[11.733433509789462, -11.733433509789466]",11.733433509789462,-11.733433509789464,images/picture_3.png,2,"[-11.733433509789462, 11.733433509789464]",-11.733433509789462,11.733433509789464,0,1,1,1.1171200811871629,2.1171200811871627,0.8828799188128373,3.0,1,1.8671200811871629,0,4.0,3.0,1,2,2,0,2,0,0,0,0,8,,,,,,,259.8592381249182,259.8592381249182,260.8738041250035,261.74065533303656,261.9602868750226,261.9602868750226,261.9602868750226,262.84063933300786,262.84063933300786,262.84063933300786,262.84063933300786,263.84008187497966,200005,005,2023-04-04_11h39.20.732,DMS_et_12-36,2022.2.4,None,
20,PRED,12,1.1171200811871629,0,images/picture_1.png,images/picture_1.png,0,"[-11.733433509789462, 11.733433509789464]",-11.733433509789462,11.733433509789464,images/picture_2.png,1,"[11.733433509789462, -11.733433509789466]",11.733433509789462,-11.733433509789464,images/picture_3.png,2,"[-11.733433509789466, -11.733433509789462]",-11.733433509789464,-11.733433509789462,0,1,1,1.1171200811871629,2.1171200811871627,0.8828799188128373,3.0,1,1.8671200811871629,0,4.0,3.0,1,2,2,0,2,0,0,1,1,2,,,,,,,263.84008187497966,263.84008187497966,264.8406130829826,265.707418957958,265.96018550009467,265.96018550009467,265.96018550009467,266.8406102079898,266.8406102079898,266.8406102079898,266.8406102079898,267.84010599995963,200005,005,2023-04-04_11h39.20.732,DMS_et_12-36,2022.2.4,None,
22,PRED,12,1.1171200811871629,0,images/picture_1.png,images/picture_1.png,0,"[-11.733433509789462, 11.733433509789464]",-11.733433509789462,11.733433509789464,images/picture_2.png,1,"[11.733433509789462, -11.733433509789466]",11.733433509789462,-11.733433509789464,images/picture_3.png,2,"[11.733433509789464, 11.733433509789462]",11.733433509789464,11.733433509789462,0,1,1,1.1171200811871629,2.1171200811871627,0.8828799188128373,3.0,1,1.8671200811871629,0,4.0,3.0,1,2,2,0,2,0,0,2,2,4,,,,,,,267.84010599995963,267.84010599995963,268.84061212511733,269.7075867499225,269.9602387500927,269.9602387500927,269.9602387500927,270.8404502910562,270.8404502910562,270.8404502910562,270.8404502910562,271.8407924580388,200005,005,2023-04-04_11h39.20.732,DMS_et_12-36,2022.2.4,None,
19,PRED,12,1.1171200811871629,0,images/picture_1.png,images/picture_1.png,0,"[-11.733433509789462, 11.733433509789464]",-11.733433509789462,11.733433509789464,images/picture_2.png,1,"[11.733433509789462, -11.733433509789466]",11.733433509789462,-11.733433509789464,images/picture_3.png,2,"[-11.733433509789466, -11.733433509789462]",-11.733433509789464,-11.733433509789462,0,1,1,1.1171200811871629,2.1171200811871627,0.8828799188128373,3.0,1,1.8671200811871629,0,4.0,3.0,1,2,2,0,2,0,0,3,3,1,,,,,,,271.8407924580388,271.8407924580388,272.84076262498274,273.7073913749773,273.96003654110245,273.96003654110245,273.96003654110245,274.84089304110967,274.84089304110967,274.84089304110967,274.84089304110967,275.84024849999696,200005,005,2023-04-04_11h39.20.732,DMS_et_12-36,2022.2.4,None,
25,PRED,12,1.1171200811871629,0,images/picture_1.png,images/picture_1.png,0,"[-11.733433509789466, -11.733433509789462]",-11.733433509789464,-11.733433509789462,images/picture_2.png,1,"[11.733433509789462, -11.733433509789466]",11.733433509789462,-11.733433509789464,images/picture_3.png,2,"[11.733433509789464, 11.733433509789462]",11.733433509789464,11.733433509789462,0,1,1,1.1171200811871629,2.1171200811871627,0.8828799188128373,3.0,1,1.8671200811871629,0,4.0,3.0,1,2,2,0,2,0,0,4,4,7,,,,,,,275.84024849999696,275.84024849999696,276.8406237079762,277.7073776249308,277.9607358330395,277.9607358330395,277.9607358330395,278.8406323750969,278.8406323750969,278.8406323750969,278.8406323750969,279.8400750409346,200005,005,2023-04-04_11h39.20.732,DMS_et_12-36,2022.2.4,None,
21,PRED,12,1.1171200811871629,0,images/picture_1.png,images/picture_1.png,0,"[11.733433509789462, -11.733433509789466]",11.733433509789462,-11.733433509789464,images/picture_2.png,1,"[-11.733433509789462, 11.733433509789464]",-11.733433509789462,11.733433509789464,images/picture_3.png,2,"[-11.733433509789466, -11.733433509789462]",-11.733433509789464,-11.733433509789462,0,1,1,1.1171200811871629,2.1171200811871627,0.8828799188128373,3.0,1,1.8671200811871629,0,4.0,3.0,1,2,2,0,2,0,0,5,5,3,,,,,,,279.8400750409346,279.8400750409346,280.8407052499242,281.70709141599946,281.9605650410522,281.9605650410522,281.9605650410522,282.84065212495625,282.84065212495625,282.84065212495625,282.84065212495625,283.8403683330398,200005,005,2023-04-04_11h39.20.732,DMS_et_12-36,2022.2.4,None,
18,PRED,12,1.1171200811871629,0,images/picture_1.png,images/picture_1.png,0,"[-11.733433509789462, 11.733433509789464]",-11.733433509789462,11.733433509789464,images/picture_2.png,1,"[-11.733433509789466, -11.733433509789462]",-11.733433509789464,-11.733433509789462,images/picture_3.png,2,"[11.733433509789464, 11.733433509789462]",11.733433509789464,11.733433509789462,0,1,1,1.1171200811871629,2.1171200811871627,0.8828799188128373,3.0,1,1.8671200811871629,0,4.0,3.0,1,2,2,0,2,0,0,6,6,0,,,,,,,283.8403683330398,283.8403683330398,284.84060349990614,285.7074500829913,285.96023575006984,285.96023575006984,285.96023575006984,286.8405068749562,286.8405068749562,286.8405068749562,286.8405068749562,287.8401343750302,200005,005,2023-04-04_11h39.20.732,DMS_et_12-36,2022.2.4,None,
24,PRED,12,1.1171200811871629,0,images/picture_1.png,images/picture_1.png,0,"[11.733433509789462, -11.733433509789466]",11.733433509789462,-11.733433509789464,images/picture_2.png,1,"[-11.733433509789462, 11.733433509789464]",-11.733433509789462,11.733433509789464,images/picture_3.png,2,"[-11.733433509789466, -11.733433509789462]",-11.733433509789464,-11.733433509789462,0,1,1,1.1171200811871629,2.1171200811871627,0.8828799188128373,3.0,1,1.8671200811871629,0,4.0,3.0,1,2,2,0,2,0,0,7,7,6,,,,,,,287.8401343750302,287.8401343750302,288.84046429092996,289.70728566590697,289.9600982910488,289.9600982910488,289.9600982910488,290.84045712510124,290.84045712510124,290.84045712510124,290.84045712510124,291.8404902499169,200005,005,2023-04-04_11h39.20.732,DMS_et_12-36,2022.2.4,None,
23,PRED,12,1.1171200811871629,0,images/picture_1.png,images/picture_1.png,0,"[-11.733433509789462, 11.733433509789464]",-11.733433509789462,11.733433509789464,images/picture_2.png,1,"[11.733433509789462, -11.733433509789466]",11.733433509789462,-11.733433509789464,images/picture_3.png,2,"[11.733433509789464, 11.733433509789462]",11.733433509789464,11.733433509789462,0,1,1,1.1171200811871629,2.1171200811871627,0.8828799188128373,3.0,1,1.8671200811871629,0,4.0,3.0,1,2,2,0,2,0,0,8,8,5,,,,,,,291.8404902499169,291.8404902499169,292.8405973329209,293.7074625410605,293.9602789580822,293.9602789580822,293.9602789580822,294.84060683310963,294.84060683310963,294.84060683310963,294.84060683310963,295.8848711659666,200005,005,2023-04-04_11h39.20.732,DMS_et_12-36,2022.2.4,None,
,,,,,,,,,,,,,,,,,,,,,,,,,,,,,,,,,,,2,0,2,0,,,,,,,,,295.8848711659666,307.9139251250308,,,,,,,,,,,,,200005,005,2023-04-04_11h39.20.732,DMS_et_12-36,2022.2.4,None,
32,UNPRED,12,1.1171200811871629,1,images/picture_2.png,images/picture_1.png,0,"[11.733433509789462, -11.733433509789466]",11.733433509789462,-11.733433509789464,images/picture_2.png,1,"[11.733433509789464, 11.733433509789462]",11.733433509789464,11.733433509789462,images/picture_3.png,2,"[-11.733433509789466, -11.733433509789462]",-11.733433509789464,-11.733433509789462,0,1,1,1.1171200811871629,2.1171200811871627,0.8828799188128373,3.0,1,1.8671200811871629,0,4.0,3.0,1,2,3,0,3,0,0,0,0,5,,,,,,,307.9139251250308,307.9139251250308,308.9264869580511,309.79361337493174,310.02677045809105,310.02677045809105,310.02677045809105,310.907431458123,310.907431458123,310.907431458123,310.907431458123,311.9260373751167,200005,005,2023-04-04_11h39.20.732,DMS_et_12-36,2022.2.4,None,
34,UNPRED,12,1.1171200811871629,2,images/picture_3.png,images/picture_1.png,0,"[11.733433509789462, -11.733433509789466]",11.733433509789462,-11.733433509789464,images/picture_2.png,1,"[-11.733433509789466, -11.733433509789462]",-11.733433509789464,-11.733433509789462,images/picture_3.png,2,"[-11.733433509789462, 11.733433509789464]",-11.733433509789462,11.733433509789464,0,1,1,1.1171200811871629,2.1171200811871627,0.8828799188128373,3.0,1,1.8671200811871629,0,4.0,3.0,1,2,3,0,3,0,0,1,1,7,,,,,,,311.9260373751167,311.9260373751167,312.94067245791666,313.8073622500524,314.00732729095034,314.00732729095034,314.00732729095034,314.89424316608347,314.89424316608347,314.89424316608347,314.9073635409586,315.9262494160794,200005,005,2023-04-04_11h39.20.732,DMS_et_12-36,2022.2.4,None,
33,UNPRED,12,1.1171200811871629,2,images/picture_3.png,images/picture_1.png,0,"[-11.733433509789462, 11.733433509789464]",-11.733433509789462,11.733433509789464,images/picture_2.png,1,"[11.733433509789462, -11.733433509789466]",11.733433509789462,-11.733433509789464,images/picture_3.png,2,"[-11.733433509789466, -11.733433509789462]",-11.733433509789464,-11.733433509789462,0,1,1,1.1171200811871629,2.1171200811871627,0.8828799188128373,3.0,1,1.8671200811871629,0,4.0,3.0,1,2,3,0,3,0,0,2,2,6,,,,,,,315.9262494160794,315.9262494160794,316.9407448330894,317.80734837497585,318.0267633749172,318.0267633749172,318.0267633749172,318.9073532910552,318.9073532910552,318.9073532910552,318.9073532910552,319.92678841599263,200005,005,2023-04-04_11h39.20.732,DMS_et_12-36,2022.2.4,None,
30,UNPRED,12,1.1171200811871629,0,images/picture_1.png,images/picture_1.png,0,"[-11.733433509789462, 11.733433509789464]",-11.733433509789462,11.733433509789464,images/picture_2.png,1,"[11.733433509789464, 11.733433509789462]",11.733433509789464,11.733433509789462,images/picture_3.png,2,"[-11.733433509789466, -11.733433509789462]",-11.733433509789464,-11.733433509789462,0,1,1,1.1171200811871629,2.1171200811871627,0.8828799188128373,3.0,1,1.8671200811871629,0,4.0,3.0,1,2,3,0,3,0,0,3,3,3,,,,,,,319.92678841599263,319.92678841599263,320.94062595791183,321.807278332999,322.0262417080812,322.0262417080812,322.0262417080812,322.907211832935,322.907211832935,322.907211832935,322.907211832935,323.90700775012374,200005,005,2023-04-04_11h39.20.732,DMS_et_12-36,2022.2.4,None,
28,UNPRED,12,1.1171200811871629,1,images/picture_2.png,images/picture_1.png,0,"[11.733433509789464, 11.733433509789462]",11.733433509789464,11.733433509789462,images/picture_2.png,1,"[11.733433509789462, -11.733433509789466]",11.733433509789462,-11.733433509789464,images/picture_3.png,2,"[-11.733433509789462, 11.733433509789464]",-11.733433509789462,11.733433509789464,0,1,1,1.1171200811871629,2.1171200811871627,0.8828799188128373,3.0,1,1.8671200811871629,0,4.0,3.0,1,2,3,0,3,0,0,4,4,1,,,,,,,323.90700775012374,323.90700775012374,324.9073673749808,325.7745630829595,326.0268740830943,326.0268740830943,326.0268740830943,326.9073222500738,326.9073222500738,326.9073222500738,326.9073222500738,327.92652720795013,200005,005,2023-04-04_11h39.20.732,DMS_et_12-36,2022.2.4,None,
29,UNPRED,12,1.1171200811871629,2,images/picture_3.png,images/picture_1.png,0,"[11.733433509789462, -11.733433509789466]",11.733433509789462,-11.733433509789464,images/picture_2.png,1,"[-11.733433509789462, 11.733433509789464]",-11.733433509789462,11.733433509789464,images/picture_3.png,2,"[-11.733433509789466, -11.733433509789462]",-11.733433509789464,-11.733433509789462,0,1,1,1.1171200811871629,2.1171200811871627,0.8828799188128373,3.0,1,1.8671200811871629,0,4.0,3.0,1,2,3,0,3,0,0,5,5,2,,,,,,,327.92652720795013,327.92652720795013,328.94066083291546,329.8073418329004,330.02710304106586,330.02710304106586,330.02710304106586,330.90736841596663,330.90736841596663,330.90736841596663,330.90736841596663,331.9073378329631,200005,005,2023-04-04_11h39.20.732,DMS_et_12-36,2022.2.4,None,
31,UNPRED,12,1.1171200811871629,1,images/picture_2.png,images/picture_1.png,0,"[11.733433509789462, -11.733433509789466]",11.733433509789462,-11.733433509789464,images/picture_2.png,1,"[-11.733433509789466, -11.733433509789462]",-11.733433509789464,-11.733433509789462,images/picture_3.png,2,"[-11.733433509789462, 11.733433509789464]",-11.733433509789462,11.733433509789464,0,1,1,1.1171200811871629,2.1171200811871627,0.8828799188128373,3.0,1,1.8671200811871629,0,4.0,3.0,1,2,3,0,3,0,0,6,6,4,,,,,,,331.9073378329631,331.9073378329631,332.9071443330031,333.7740984160919,334.0270080000628,334.0270080000628,334.0270080000628,334.90760879102163,334.90760879102163,334.90760879102163,334.90760879102163,335.90719287493266,200005,005,2023-04-04_11h39.20.732,DMS_et_12-36,2022.2.4,None,
35,UNPRED,12,1.1171200811871629,0,images/picture_1.png,images/picture_1.png,0,"[-11.733433509789466, -11.733433509789462]",-11.733433509789464,-11.733433509789462,images/picture_2.png,1,"[11.733433509789464, 11.733433509789462]",11.733433509789464,11.733433509789462,images/picture_3.png,2,"[-11.733433509789462, 11.733433509789464]",-11.733433509789462,11.733433509789464,0,1,1,1.1171200811871629,2.1171200811871627,0.8828799188128373,3.0,1,1.8671200811871629,0,4.0,3.0,1,2,3,0,3,0,0,7,7,8,,,,,,,335.90719287493266,335.90719287493266,336.90733937500045,337.7740904579405,338.0270675830543,338.0270675830543,338.0270675830543,338.9073671249207,338.9073671249207,338.9073671249207,338.9073671249207,339.90746250003576,200005,005,2023-04-04_11h39.20.732,DMS_et_12-36,2022.2.4,None,
27,UNPRED,12,1.1171200811871629,1,images/picture_2.png,images/picture_1.png,0,"[-11.733433509789466, -11.733433509789462]",-11.733433509789464,-11.733433509789462,images/picture_2.png,1,"[11.733433509789464, 11.733433509789462]",11.733433509789464,11.733433509789462,images/picture_3.png,2,"[-11.733433509789462, 11.733433509789464]",-11.733433509789462,11.733433509789464,0,1,1,1.1171200811871629,2.1171200811871627,0.8828799188128373,3.0,1,1.8671200811871629,0,4.0,3.0,1,2,3,0,3,0,0,8,8,0,,,,,,,339.90746250003576,339.90746250003576,340.90740712499246,341.77414212492295,342.02685987506993,342.02685987506993,342.02685987506993,342.9072470830288,342.9072470830288,342.9072470830288,342.9072470830288,343.96248537511565,200005,005,2023-04-04_11h39.20.732,DMS_et_12-36,2022.2.4,None,
,,,,,,,,,,,,,,,,,,,,,,,,,,,,,,,,,,,3,0,3,0,,,,,,,,,343.96248537511565,355.99307816592045,,,,,,,,,,,,,200005,005,2023-04-04_11h39.20.732,DMS_et_12-36,2022.2.4,None,
43,PRED,12,1.1171200811871629,0,images/picture_1.png,images/picture_1.png,0,"[-11.733433509789462, 11.733433509789464]",-11.733433509789462,11.733433509789464,images/picture_2.png,1,"[11.733433509789464, 11.733433509789462]",11.733433509789464,11.733433509789462,images/picture_3.png,2,"[-11.733433509789466, -11.733433509789462]",-11.733433509789464,-11.733433509789462,0,1,1,1.1171200811871629,2.1171200811871627,0.8828799188128373,3.0,1,1.8671200811871629,0,4.0,3.0,1,2,4,0,4,0,0,0,0,7,,,,,,,355.99307816592045,355.99307816592045,357.00740274996497,357.8740988750942,358.1071841660887,358.1071841660887,358.1071841660887,358.99376733298413,358.99376733298413,358.99376733298413,358.99376733298413,360.00687550008297,200005,005,2023-04-04_11h39.20.732,DMS_et_12-36,2022.2.4,None,
44,PRED,12,1.1171200811871629,0,images/picture_1.png,images/picture_1.png,0,"[-11.733433509789466, -11.733433509789462]",-11.733433509789464,-11.733433509789462,images/picture_2.png,1,"[11.733433509789462, -11.733433509789466]",11.733433509789462,-11.733433509789464,images/picture_3.png,2,"[11.733433509789464, 11.733433509789462]",11.733433509789464,11.733433509789462,0,1,1,1.1171200811871629,2.1171200811871627,0.8828799188128373,3.0,1,1.8671200811871629,0,4.0,3.0,1,2,4,0,4,0,0,1,1,8,,,,,,,360.00687550008297,360.00687550008297,361.0073692079168,361.874119291082,362.12697737501003,362.12697737501003,362.12697737501003,363.0071562079247,363.0071562079247,363.0071562079247,363.0071562079247,364.0069842908997,200005,005,2023-04-04_11h39.20.732,DMS_et_12-36,2022.2.4,None,
40,PRED,12,1.1171200811871629,0,images/picture_1.png,images/picture_1.png,0,"[11.733433509789464, 11.733433509789462]",11.733433509789464,11.733433509789462,images/picture_2.png,1,"[11.733433509789462, -11.733433509789466]",11.733433509789462,-11.733433509789464,images/picture_3.png,2,"[-11.733433509789466, -11.733433509789462]",-11.733433509789464,-11.733433509789462,0,1,1,1.1171200811871629,2.1171200811871627,0.8828799188128373,3.0,1,1.8671200811871629,0,4.0,3.0,1,2,4,0,4,0,0,2,2,4,,,,,,,364.0069842908997,364.0069842908997,365.0073288329877,365.8740367910359,366.1269389160443,366.1269389160443,366.1269389160443,367.0075005830731,367.0075005830731,367.0075005830731,367.0075005830731,368.00691983290017,200005,005,2023-04-04_11h39.20.732,DMS_et_12-36,2022.2.4,None,
38,PRED,12,1.1171200811871629,0,images/picture_1.png,images/picture_1.png,0,"[11.733433509789464, 11.733433509789462]",11.733433509789464,11.733433509789462,images/picture_2.png,1,"[11.733433509789462, -11.733433509789466]",11.733433509789462,-11.733433509789464,images/picture_3.png,2,"[-11.733433509789466, -11.733433509789462]",-11.733433509789464,-11.733433509789462,0,1,1,1.1171200811871629,2.1171200811871627,0.8828799188128373,3.0,1,1.8671200811871629,0,4.0,3.0,1,2,4,0,4,0,0,3,3,2,,,,,,,368.00691983290017,368.00691983290017,369.0074441661127,369.87408837513067,370.12706933310255,370.12706933310255,370.12706933310255,371.0074357909616,371.0074357909616,371.0074357909616,371.0074357909616,372.0070991660468,200005,005,2023-04-04_11h39.20.732,DMS_et_12-36,2022.2.4,None,
41,PRED,12,1.1171200811871629,0,images/picture_1.png,images/picture_1.png,0,"[-11.733433509789466, -11.733433509789462]",-11.733433509789464,-11.733433509789462,images/picture_2.png,1,"[-11.733433509789462, 11.733433509789464]",-11.733433509789462,11.733433509789464,images/picture_3.png,2,"[11.733433509789462, -11.733433509789466]",11.733433509789462,-11.733433509789464,0,1,1,1.1171200811871629,2.1171200811871627,0.8828799188128373,3.0,1,1.8671200811871629,0,4.0,3.0,1,2,4,0,4,0,0,4,4,5,,,,,,,372.0070991660468,372.0070991660468,373.00744575005956,373.8745032080915,374.12651866604574,374.12651866604574,374.12651866604574,375.0073693750892,375.0073693750892,375.0073693750892,375.0073693750892,376.00689987512305,200005,005,2023-04-04_11h39.20.732,DMS_et_12-36,2022.2.4,None,
37,PRED,12,1.1171200811871629,0,images/picture_1.png,images/picture_1.png,0,"[-11.733433509789466, -11.733433509789462]",-11.733433509789464,-11.733433509789462,images/picture_2.png,1,"[11.733433509789462, -11.733433509789466]",11.733433509789462,-11.733433509789464,images/picture_3.png,2,"[-11.733433509789462, 11.733433509789464]",-11.733433509789462,11.733433509789464,0,1,1,1.1171200811871629,2.1171200811871627,0.8828799188128373,3.0,1,1.8671200811871629,0,4.0,3.0,1,2,4,0,4,0,0,5,5,1,,,,,,,376.00689987512305,376.00689987512305,377.00741054094397,377.874159750063,378.12671579094604,378.12671579094604,378.12671579094604,379.0075543751009,379.0075543751009,379.0075543751009,379.0075543751009,380.00708324997686,200005,005,2023-04-04_11h39.20.732,DMS_et_12-36,2022.2.4,None,
39,PRED,12,1.1171200811871629,0,images/picture_1.png,images/picture_1.png,0,"[11.733433509789462, -11.733433509789466]",11.733433509789462,-11.733433509789464,images/picture_2.png,1,"[11.733433509789464, 11.733433509789462]",11.733433509789464,11.733433509789462,images/picture_3.png,2,"[-11.733433509789462, 11.733433509789464]",-11.733433509789462,11.733433509789464,0,1,1,1.1171200811871629,2.1171200811871627,0.8828799188128373,3.0,1,1.8671200811871629,0,4.0,3.0,1,2,4,0,4,0,0,6,6,3,,,,,,,380.00708324997686,380.00708324997686,381.00755337509327,381.87410475010984,382.1268989581149,382.1268989581149,382.1268989581149,383.00746516603976,383.00746516603976,383.00746516603976,383.00746516603976,384.0074125409592,200005,005,2023-04-04_11h39.20.732,DMS_et_12-36,2022.2.4,None,
36,PRED,12,1.1171200811871629,0,images/picture_1.png,images/picture_1.png,0,"[-11.733433509789462, 11.733433509789464]",-11.733433509789462,11.733433509789464,images/picture_2.png,1,"[11.733433509789464, 11.733433509789462]",11.733433509789464,11.733433509789462,images/picture_3.png,2,"[11.733433509789462, -11.733433509789466]",11.733433509789462,-11.733433509789464,0,1,1,1.1171200811871629,2.1171200811871627,0.8828799188128373,3.0,1,1.8671200811871629,0,4.0,3.0,1,2,4,0,4,0,0,7,7,0,,,,,,,384.0074125409592,384.0074125409592,385.0075258750003,385.87414529104717,386.12693254090846,386.12693254090846,386.12693254090846,387.0075634580571,387.0075634580571,387.0075634580571,387.0075634580571,388.00690316595137,200005,005,2023-04-04_11h39.20.732,DMS_et_12-36,2022.2.4,None,
42,PRED,12,1.1171200811871629,0,images/picture_1.png,images/picture_1.png,0,"[11.733433509789462, -11.733433509789466]",11.733433509789462,-11.733433509789464,images/picture_2.png,1,"[11.733433509789464, 11.733433509789462]",11.733433509789464,11.733433509789462,images/picture_3.png,2,"[-11.733433509789462, 11.733433509789464]",-11.733433509789462,11.733433509789464,0,1,1,1.1171200811871629,2.1171200811871627,0.8828799188128373,3.0,1,1.8671200811871629,0,4.0,3.0,1,2,4,0,4,0,0,8,8,6,,,,,,,388.00690316595137,388.00690316595137,389.0074181249365,389.87410575011745,390.1275360409636,390.1275360409636,390.1275360409636,391.0074644580018,391.0074644580018,391.0074644580018,391.0074644580018,392.0706817910541,200005,005,2023-04-04_11h39.20.732,DMS_et_12-36,2022.2.4,None,
,,,,,,,,,,,,,,,,,,,,,,,,,,,,,,,,,,,4,0,4,0,,,,,,,,,392.0706817910541,404.09255979093723,,,,,,,,,,,,,200005,005,2023-04-04_11h39.20.732,DMS_et_12-36,2022.2.4,None,
50,UNPRED,12,1.1171200811871629,1,images/picture_2.png,images/picture_1.png,0,"[-11.733433509789466, -11.733433509789462]",-11.733433509789464,-11.733433509789462,images/picture_2.png,1,"[-11.733433509789462, 11.733433509789464]",-11.733433509789462,11.733433509789464,images/picture_3.png,2,"[11.733433509789462, -11.733433509789466]",11.733433509789462,-11.733433509789464,0,1,1,1.1171200811871629,2.1171200811871627,0.8828799188128373,3.0,1,1.8671200811871629,0,4.0,3.0,1,2,5,0,5,0,0,0,0,5,,,,,,,404.09255979093723,404.09255979093723,405.1074112500064,405.9738246661145,406.1935758329928,406.1935758329928,406.1935758329928,407.0742076660972,407.0742076660972,407.0742076660972,407.0742076660972,408.0930796659086,200005,005,2023-04-04_11h39.20.732,DMS_et_12-36,2022.2.4,None,
48,UNPRED,12,1.1171200811871629,2,images/picture_3.png,images/picture_1.png,0,"[11.733433509789464, 11.733433509789462]",11.733433509789464,11.733433509789462,images/picture_2.png,1,"[-11.733433509789462, 11.733433509789464]",-11.733433509789462,11.733433509789464,images/picture_3.png,2,"[-11.733433509789466, -11.733433509789462]",-11.733433509789464,-11.733433509789462,0,1,1,1.1171200811871629,2.1171200811871627,0.8828799188128373,3.0,1,1.8671200811871629,0,4.0,3.0,1,2,5,0,5,0,0,1,1,3,,,,,,,408.0930796659086,408.0930796659086,409.1073067081161,409.9738326249644,410.1934210830368,410.1934210830368,410.1934210830368,411.07400566595607,411.07400566595607,411.07400566595607,411.07400566595607,412.073943708092,200005,005,2023-04-04_11h39.20.732,DMS_et_12-36,2022.2.4,None,
51,UNPRED,12,1.1171200811871629,1,images/picture_2.png,images/picture_1.png,0,"[11.733433509789462, -11.733433509789466]",11.733433509789462,-11.733433509789464,images/picture_2.png,1,"[11.733433509789464, 11.733433509789462]",11.733433509789464,11.733433509789462,images/picture_3.png,2,"[-11.733433509789462, 11.733433509789464]",-11.733433509789462,11.733433509789464,0,1,1,1.1171200811871629,2.1171200811871627,0.8828799188128373,3.0,1,1.8671200811871629,0,4.0,3.0,1,2,5,0,5,0,0,2,2,6,,,,,,,412.073943708092,412.073943708092,413.07406220794655,413.9405833329074,414.19241295801476,414.19241295801476,414.19241295801476,415.07367833307944,415.07367833307944,415.07367833307944,415.07367833307944,416.0735554159619,200005,005,2023-04-04_11h39.20.732,DMS_et_12-36,2022.2.4,None,
53,UNPRED,12,1.1171200811871629,1,images/picture_2.png,images/picture_1.png,0,"[-11.733433509789462, 11.733433509789464]",-11.733433509789462,11.733433509789464,images/picture_2.png,1,"[-11.733433509789466, -11.733433509789462]",-11.733433509789464,-11.733433509789462,images/picture_3.png,2,"[11.733433509789464, 11.733433509789462]",11.733433509789464,11.733433509789462,0,1,1,1.1171200811871629,2.1171200811871627,0.8828799188128373,3.0,1,1.8671200811871629,0,4.0,3.0,1,2,5,0,5,0,0,3,3,8,,,,,,,416.0735554159619,416.0735554159619,417.07381987501867,417.9406263749115,418.19249225012027,418.19249225012027,418.19249225012027,419.0738688749261,419.0738688749261,419.0738688749261,419.0738688749261,420.0728078330867,200005,005,2023-04-04_11h39.20.732,DMS_et_12-36,2022.2.4,None,
49,UNPRED,12,1.1171200811871629,0,images/picture_1.png,images/picture_1.png,0,"[11.733433509789464, 11.733433509789462]",11.733433509789464,11.733433509789462,images/picture_2.png,1,"[11.733433509789462, -11.733433509789466]",11.733433509789462,-11.733433509789464,images/picture_3.png,2,"[-11.733433509789466, -11.733433509789462]",-11.733433509789464,-11.733433509789462,0,1,1,1.1171200811871629,2.1171200811871627,0.8828799188128373,3.0,1,1.8671200811871629,0,4.0,3.0,1,2,5,0,5,0,0,4,4,4,,,,,,,420.0728078330867,420.0728078330867,421.07390545797534,421.94058204093017,422.1941147081088,422.1941147081088,422.1941147081088,423.07387820794247,423.07387820794247,423.07387820794247,423.07387820794247,424.0926336250268,200005,005,2023-04-04_11h39.20.732,DMS_et_12-36,2022.2.4,None,
52,UNPRED,12,1.1171200811871629,2,images/picture_3.png,images/picture_1.png,0,"[11.733433509789464, 11.733433509789462]",11.733433509789464,11.733433509789462,images/picture_2.png,1,"[-11.733433509789462, 11.733433509789464]",-11.733433509789462,11.733433509789464,images/picture_3.png,2,"[11.733433509789462, -11.733433509789466]",11.733433509789462,-11.733433509789464,0,1,1,1.1171200811871629,2.1171200811871627,0.8828799188128373,3.0,1,1.8671200811871629,0,4.0,3.0,1,2,5,0,5,0,0,5,5,7,,,,,,,424.0926336250268,424.0926336250268,425.1071053331252,425.97370645799674,426.1933915000409,426.1933915000409,426.1933915000409,427.0738792079501,427.0738792079501,427.0738792079501,427.0738792079501,428.07428637496196,200005,005,2023-04-04_11h39.20.732,DMS_et_12-36,2022.2.4,None,
47,UNPRED,12,1.1171200811871629,1,images/picture_2.png,images/picture_1.png,0,"[-11.733433509789466, -11.733433509789462]",-11.733433509789464,-11.733433509789462,images/picture_2.png,1,"[11.733433509789464, 11.733433509789462]",11.733433509789464,11.733433509789462,images/picture_3.png,2,"[11.733433509789462, -11.733433509789466]",11.733433509789462,-11.733433509789464,0,1,1,1.1171200811871629,2.1171200811871627,0.8828799188128373,3.0,1,1.8671200811871629,0,4.0,3.0,1,2,5,0,5,0,0,6,6,2,,,,,,,428.07428637496196,428.07428637496196,429.0738682500087,429.9405537499115,430.19371016602963,430.19371016602963,430.19371016602963,431.0738405410666,431.0738405410666,431.0738405410666,431.0738405410666,432.0733247080352,200005,005,2023-04-04_11h39.20.732,DMS_et_12-36,2022.2.4,None,
45,UNPRED,12,1.1171200811871629,1,images/picture_2.png,images/picture_1.png,0,"[-11.733433509789462, 11.733433509789464]",-11.733433509789462,11.733433509789464,images/picture_2.png,1,"[11.733433509789464, 11.733433509789462]",11.733433509789464,11.733433509789462,images/picture_3.png,2,"[-11.733433509789466, -11.733433509789462]",-11.733433509789464,-11.733433509789462,0,1,1,1.1171200811871629,2.1171200811871627,0.8828799188128373,3.0,1,1.8671200811871629,0,4.0,3.0,1,2,5,0,5,0,0,7,7,0,,,,,,,432.0733247080352,432.0733247080352,433.07385945809074,433.9406418330036,434.1938372910954,434.1938372910954,434.1938372910954,435.07350933295675,435.07350933295675,435.07350933295675,435.07350933295675,436.0733029160183,200005,005,2023-04-04_11h39.20.732,DMS_et_12-36,2022.2.4,None,
46,UNPRED,12,1.1171200811871629,0,images/picture_1.png,images/picture_1.png,0,"[11.733433509789462, -11.733433509789466]",11.733433509789462,-11.733433509789464,images/picture_2.png,1,"[-11.733433509789462, 11.733433509789464]",-11.733433509789462,11.733433509789464,images/picture_3.png,2,"[11.733433509789464, 11.733433509789462]",11.733433509789464,11.733433509789462,0,1,1,1.1171200811871629,2.1171200811871627,0.8828799188128373,3.0,1,1.8671200811871629,0,4.0,3.0,1,2,5,0,5,0,0,8,8,1,,,,,,,436.0733029160183,436.0733029160183,437.0738576250151,437.9407456659246,438.193619125057,438.193619125057,438.193619125057,439.07386554102413,439.07386554102413,439.07386554102413,439.07386554102413,440.14441212499514,200005,005,2023-04-04_11h39.20.732,DMS_et_12-36,2022.2.4,None,
,,,,,,,,,,,,,,,,,,,,,,,,,,,,,,,,,,,5,0,5,0,,,,,,,,,440.14441212499514,452.2432964579202,,,,,,,,,,,,,200005,005,2023-04-04_11h39.20.732,DMS_et_12-36,2022.2.4,None,
57,PRED,12,1.1171200811871629,1,images/picture_2.png,images/picture_1.png,0,"[-11.733433509789466, -11.733433509789462]",-11.733433509789464,-11.733433509789462,images/picture_2.png,1,"[11.733433509789464, 11.733433509789462]",11.733433509789464,11.733433509789462,images/picture_3.png,2,"[11.733433509789462, -11.733433509789466]",11.733433509789462,-11.733433509789464,0,1,1,1.1171200811871629,2.1171200811871627,0.8828799188128373,3.0,1,1.8671200811871629,0,4.0,3.0,1,2,6,0,6,0,0,0,0,3,,,,,,,452.2432964579202,452.2432964579202,453.2406124160625,454.1072335410863,454.3599770409055,454.3599770409055,454.3599770409055,455.2403782911133,455.2403782911133,455.2403782911133,455.2403782911133,456.2402594999876,200005,005,2023-04-04_11h39.20.732,DMS_et_12-36,2022.2.4,None,
60,PRED,12,1.1171200811871629,1,images/picture_2.png,images/picture_1.png,0,"[11.733433509789464, 11.733433509789462]",11.733433509789464,11.733433509789462,images/picture_2.png,1,"[-11.733433509789466, -11.733433509789462]",-11.733433509789464,-11.733433509789462,images/picture_3.png,2,"[-11.733433509789462, 11.733433509789464]",-11.733433509789462,11.733433509789464,0,1,1,1.1171200811871629,2.1171200811871627,0.8828799188128373,3.0,1,1.8671200811871629,0,4.0,3.0,1,2,6,0,6,0,0,1,1,6,,,,,,,456.2402594999876,456.2402594999876,457.2402244999539,458.1073098750785,458.34060741611756,458.34060741611756,458.34060741611756,459.22668720805086,459.22668720805086,459.22668720805086,459.24060762510635,460.2412699579727,200005,005,2023-04-04_11h39.20.732,DMS_et_12-36,2022.2.4,None,
58,PRED,12,1.1171200811871629,1,images/picture_2.png,images/picture_1.png,0,"[-11.733433509789462, 11.733433509789464]",-11.733433509789462,11.733433509789464,images/picture_2.png,1,"[-11.733433509789466, -11.733433509789462]",-11.733433509789464,-11.733433509789462,images/picture_3.png,2,"[11.733433509789464, 11.733433509789462]",11.733433509789464,11.733433509789462,0,1,1,1.1171200811871629,2.1171200811871627,0.8828799188128373,3.0,1,1.8671200811871629,0,4.0,3.0,1,2,6,0,6,0,0,2,2,4,,,,,,,460.2412699579727,460.2412699579727,461.2410417080391,462.1072802080307,462.3606999160256,462.3606999160256,462.3606999160256,463.2401609579101,463.2401609579101,463.2401609579101,463.2401609579101,464.2401516251266,200005,005,2023-04-04_11h39.20.732,DMS_et_12-36,2022.2.4,None,
59,PRED,12,1.1171200811871629,1,images/picture_2.png,images/picture_1.png,0,"[11.733433509789464, 11.733433509789462]",11.733433509789464,11.733433509789462,images/picture_2.png,1,"[11.733433509789462, -11.733433509789466]",11.733433509789462,-11.733433509789464,images/picture_3.png,2,"[-11.733433509789466, -11.733433509789462]",-11.733433509789464,-11.733433509789462,0,1,1,1.1171200811871629,2.1171200811871627,0.8828799188128373,3.0,1,1.8671200811871629,0,4.0,3.0,1,2,6,0,6,0,0,3,3,5,,,,,,,464.2401516251266,464.2401516251266,465.2406129159499,466.1069080000743,466.3590947499033,466.3590947499033,466.3590947499033,467.24060695804656,467.24060695804656,467.24060695804656,467.24060695804656,468.23950029094703,200005,005,2023-04-04_11h39.20.732,DMS_et_12-36,2022.2.4,None,
62,PRED,12,1.1171200811871629,1,images/picture_2.png,images/picture_1.png,0,"[-11.733433509789466, -11.733433509789462]",-11.733433509789464,-11.733433509789462,images/picture_2.png,1,"[11.733433509789464, 11.733433509789462]",11.733433509789464,11.733433509789462,images/picture_3.png,2,"[-11.733433509789462, 11.733433509789464]",-11.733433509789462,11.733433509789464,0,1,1,1.1171200811871629,2.1171200811871627,0.8828799188128373,3.0,1,1.8671200811871629,0,4.0,3.0,1,2,6,0,6,0,0,4,4,8,,,,,,,468.23950029094703,468.23950029094703,469.2402058329899,470.1073438329622,470.3601244580932,470.3601244580932,470.3601244580932,471.24061825009994,471.24061825009994,471.24061825009994,471.24061825009994,472.2405920410529,200005,005,2023-04-04_11h39.20.732,DMS_et_12-36,2022.2.4,None,
56,PRED,12,1.1171200811871629,1,images/picture_2.png,images/picture_1.png,0,"[-11.733433509789466, -11.733433509789462]",-11.733433509789464,-11.733433509789462,images/picture_2.png,1,"[11.733433509789462, -11.733433509789466]",11.733433509789462,-11.733433509789464,images/picture_3.png,2,"[11.733433509789464, 11.733433509789462]",11.733433509789464,11.733433509789462,0,1,1,1.1171200811871629,2.1171200811871627,0.8828799188128373,3.0,1,1.8671200811871629,0,4.0,3.0,1,2,6,0,6,0,0,5,5,2,,,,,,,472.2405920410529,472.2405920410529,473.2406188750174,474.1070903749205,474.359903790988,474.359903790988,474.359903790988,475.2401520831045,475.2401520831045,475.2401520831045,475.2401520831045,476.24008487490937,200005,005,2023-04-04_11h39.20.732,DMS_et_12-36,2022.2.4,None,
61,PRED,12,1.1171200811871629,1,images/picture_2.png,images/picture_1.png,0,"[11.733433509789462, -11.733433509789466]",11.733433509789462,-11.733433509789464,images/picture_2.png,1,"[11.733433509789464, 11.733433509789462]",11.733433509789464,11.733433509789462,images/picture_3.png,2,"[-11.733433509789462, 11.733433509789464]",-11.733433509789462,11.733433509789464,0,1,1,1.1171200811871629,2.1171200811871627,0.8828799188128373,3.0,1,1.8671200811871629,0,4.0,3.0,1,2,6,0,6,0,0,6,6,7,,,,,,,476.24008487490937,476.24008487490937,477.2405655409675,478.10732841608115,478.3595689579379,478.3595689579379,478.3595689579379,479.2405840829015,479.2405840829015,479.2405840829015,479.2405840829015,480.2400398750324,200005,005,2023-04-04_11h39.20.732,DMS_et_12-36,2022.2.4,None,
54,PRED,12,1.1171200811871629,1,images/picture_2.png,images/picture_1.png,0,"[11.733433509789462, -11.733433509789466]",11.733433509789462,-11.733433509789464,images/picture_2.png,1,"[11.733433509789464, 11.733433509789462]",11.733433509789464,11.733433509789462,images/picture_3.png,2,"[-11.733433509789466, -11.733433509789462]",-11.733433509789464,-11.733433509789462,0,1,1,1.1171200811871629,2.1171200811871627,0.8828799188128373,3.0,1,1.8671200811871629,0,4.0,3.0,1,2,6,0,6,0,0,7,7,0,,,,,,,480.2400398750324,480.2400398750324,481.24009866593406,482.1073466660455,482.360081166029,482.360081166029,482.360081166029,483.2406958329957,483.2406958329957,483.2406958329957,483.2406958329957,484.2404307080433,200005,005,2023-04-04_11h39.20.732,DMS_et_12-36,2022.2.4,None,
55,PRED,12,1.1171200811871629,1,images/picture_2.png,images/picture_1.png,0,"[-11.733433509789462, 11.733433509789464]",-11.733433509789462,11.733433509789464,images/picture_2.png,1,"[-11.733433509789466, -11.733433509789462]",-11.733433509789464,-11.733433509789462,images/picture_3.png,2,"[11.733433509789464, 11.733433509789462]",11.733433509789464,11.733433509789462,0,1,1,1.1171200811871629,2.1171200811871627,0.8828799188128373,3.0,1,1.8671200811871629,0,4.0,3.0,1,2,6,0,6,0,0,8,8,1,,,,,,,484.2404307080433,484.2404307080433,485.24057595804334,486.107129083015,486.35954537498765,486.35954537498765,486.35954537498765,487.2400462080259,487.2400462080259,487.2400462080259,487.2400462080259,488.3244143750053,200005,005,2023-04-04_11h39.20.732,DMS_et_12-36,2022.2.4,None,
,,,,,,,,,,,,,,,,,,,,,,,,,,,,,,,,,,,6,0,6,0,,,,,,,,,488.3244143750053,500.34637366607785,,,,,,,,,,,,,200005,005,2023-04-04_11h39.20.732,DMS_et_12-36,2022.2.4,None,
63,UNPRED,12,1.1171200811871629,1,images/picture_2.png,images/picture_1.png,0,"[-11.733433509789462, 11.733433509789464]",-11.733433509789462,11.733433509789464,images/picture_2.png,1,"[11.733433509789464, 11.733433509789462]",11.733433509789464,11.733433509789462,images/picture_3.png,2,"[11.733433509789462, -11.733433509789466]",11.733433509789462,-11.733433509789464,0,1,1,1.1171200811871629,2.1171200811871627,0.8828799188128373,3.0,1,1.8671200811871629,0,4.0,3.0,1,2,7,0,7,0,0,0,0,0,,,,,,,500.34637366607785,500.34637366607785,501.3600151250139,502.226335833082,502.4602008750662,502.4602008750662,502.4602008750662,503.34062550007366,503.34062550007366,503.34062550007366,503.34062550007366,504.3593203329947,200005,005,2023-04-04_11h39.20.732,DMS_et_12-36,2022.2.4,None,
66,UNPRED,12,1.1171200811871629,2,images/picture_3.png,images/picture_1.png,0,"[11.733433509789462, -11.733433509789466]",11.733433509789462,-11.733433509789464,images/picture_2.png,1,"[11.733433509789464, 11.733433509789462]",11.733433509789464,11.733433509789462,images/picture_3.png,2,"[-11.733433509789466, -11.733433509789462]",-11.733433509789464,-11.733433509789462,0,1,1,1.1171200811871629,2.1171200811871627,0.8828799188128373,3.0,1,1.8671200811871629,0,4.0,3.0,1,2,7,0,7,0,0,1,1,3,,,,,,,504.3593203329947,504.3593203329947,505.3737446248997,506.24074941594154,506.4600673329551,506.4600673329551,506.4600673329551,507.34032650012523,507.34032650012523,507.34032650012523,507.34032650012523,508.3400474160444,200005,005,2023-04-04_11h39.20.732,DMS_et_12-36,2022.2.4,None,
70,UNPRED,12,1.1171200811871629,1,images/picture_2.png,images/picture_1.png,0,"[-11.733433509789466, -11.733433509789462]",-11.733433509789464,-11.733433509789462,images/picture_2.png,1,"[11.733433509789462, -11.733433509789466]",11.733433509789462,-11.733433509789464,images/picture_3.png,2,"[-11.733433509789462, 11.733433509789464]",-11.733433509789462,11.733433509789464,0,1,1,1.1171200811871629,2.1171200811871627,0.8828799188128373,3.0,1,1.8671200811871629,0,4.0,3.0,1,2,7,0,7,0,0,2,2,7,,,,,,,508.3400474160444,508.3400474160444,509.34057304100133,510.2071332500782,510.4599747080356,510.4599747080356,510.4599747080356,511.3405023331288,511.3405023331288,511.3405023331288,511.3405023331288,512.3400534160901,200005,005,2023-04-04_11h39.20.732,DMS_et_12-36,2022.2.4,None,
68,UNPRED,12,1.1171200811871629,1,images/picture_2.png,images/picture_1.png,0,"[-11.733433509789466, -11.733433509789462]",-11.733433509789464,-11.733433509789462,images/picture_2.png,1,"[11.733433509789462, -11.733433509789466]",11.733433509789462,-11.733433509789464,images/picture_3.png,2,"[11.733433509789464, 11.733433509789462]",11.733433509789464,11.733433509789462,0,1,1,1.1171200811871629,2.1171200811871627,0.8828799188128373,3.0,1,1.8671200811871629,0,4.0,3.0,1,2,7,0,7,0,0,3,3,5,,,,,,,512.3400534160901,512.3400534160901,513.3405688749626,514.2073936660308,514.4604442499112,514.4604442499112,514.4604442499112,515.3405577500816,515.3405577500816,515.3405577500816,515.3405577500816,516.3403095831163,200005,005,2023-04-04_11h39.20.732,DMS_et_12-36,2022.2.4,None,
71,UNPRED,12,1.1171200811871629,0,images/picture_1.png,images/picture_1.png,0,"[-11.733433509789462, 11.733433509789464]",-11.733433509789462,11.733433509789464,images/picture_2.png,1,"[-11.733433509789466, -11.733433509789462]",-11.733433509789464,-11.733433509789462,images/picture_3.png,2,"[11.733433509789462, -11.733433509789466]",11.733433509789462,-11.733433509789464,0,1,1,1.1171200811871629,2.1171200811871627,0.8828799188128373,3.0,1,1.8671200811871629,0,4.0,3.0,1,2,7,0,7,0,0,4,4,8,,,,,,,516.3403095831163,516.3403095831163,517.340918708127,518.2072526661213,518.4599280410912,518.4599280410912,518.4599280410912,519.3405778331216,519.3405778331216,519.3405778331216,519.3405778331216,520.339986332925,200005,005,2023-04-04_11h39.20.732,DMS_et_12-36,2022.2.4,None,
64,UNPRED,12,1.1171200811871629,1,images/picture_2.png,images/picture_1.png,0,"[11.733433509789464, 11.733433509789462]",11.733433509789464,11.733433509789462,images/picture_2.png,1,"[-11.733433509789462, 11.733433509789464]",-11.733433509789462,11.733433509789464,images/picture_3.png,2,"[11.733433509789462, -11.733433509789466]",11.733433509789462,-11.733433509789464,0,1,1,1.1171200811871629,2.1171200811871627,0.8828799188128373,3.0,1,1.8671200811871629,0,4.0,3.0,1,2,7,0,7,0,0,5,5,1,,,,,,,520.339986332925,520.339986332925,521.3406035830267,522.2071270830929,522.4601185000502,522.4601185000502,522.4601185000502,523.3404478330631,523.3404478330631,523.3404478330631,523.3404478330631,524.3400340829976,200005,005,2023-04-04_11h39.20.732,DMS_et_12-36,2022.2.4,None,
65,UNPRED,12,1.1171200811871629,1,images/picture_2.png,images/picture_1.png,0,"[-11.733433509789466, -11.733433509789462]",-11.733433509789464,-11.733433509789462,images/picture_2.png,1,"[11.733433509789464, 11.733433509789462]",11.733433509789464,11.733433509789462,images/picture_3.png,2,"[11.733433509789462, -11.733433509789466]",11.733433509789462,-11.733433509789464,0,1,1,1.1171200811871629,2.1171200811871627,0.8828799188128373,3.0,1,1.8671200811871629,0,4.0,3.0,1,2,7,0,7,0,0,6,6,2,,,,,,,524.3400340829976,524.3400340829976,525.3405751660466,526.2073735410813,526.4602707910817,526.4602707910817,526.4602707910817,527.3401838329155,527.3401838329155,527.3401838329155,527.3401838329155,528.3402957499493,200005,005,2023-04-04_11h39.20.732,DMS_et_12-36,2022.2.4,None,
67,UNPRED,12,1.1171200811871629,1,images/picture_2.png,images/picture_1.png,0,"[11.733433509789462, -11.733433509789466]",11.733433509789462,-11.733433509789464,images/picture_2.png,1,"[-11.733433509789466, -11.733433509789462]",-11.733433509789464,-11.733433509789462,images/picture_3.png,2,"[11.733433509789464, 11.733433509789462]",11.733433509789464,11.733433509789462,0,1,1,1.1171200811871629,2.1171200811871627,0.8828799188128373,3.0,1,1.8671200811871629,0,4.0,3.0,1,2,7,0,7,0,0,7,7,4,,,,,,,528.3402957499493,528.3402957499493,529.3405087499414,530.2073209160008,530.4601812500041,530.4601812500041,530.4601812500041,531.3406249999534,531.3406249999534,531.3406249999534,531.3406249999534,532.3399127500597,200005,005,2023-04-04_11h39.20.732,DMS_et_12-36,2022.2.4,None,
69,UNPRED,12,1.1171200811871629,1,images/picture_2.png,images/picture_1.png,0,"[11.733433509789462, -11.733433509789466]",11.733433509789462,-11.733433509789464,images/picture_2.png,1,"[11.733433509789464, 11.733433509789462]",11.733433509789464,11.733433509789462,images/picture_3.png,2,"[-11.733433509789466, -11.733433509789462]",-11.733433509789464,-11.733433509789462,0,1,1,1.1171200811871629,2.1171200811871627,0.8828799188128373,3.0,1,1.8671200811871629,0,4.0,3.0,1,2,7,0,7,0,0,8,8,6,,,,,,,532.3399127500597,532.3399127500597,533.3405669159256,534.207252958091,534.4603234159295,534.4603234159295,534.4603234159295,535.3401786249597,535.3401786249597,535.3401786249597,535.3401786249597,536.4284820409957,200005,005,2023-04-04_11h39.20.732,DMS_et_12-36,2022.2.4,None,
,,,,,,,,,,,,,,,,,,,,,,,,,,,,,,,,,,,7,0,7,0,,,,,,,,,536.4284820409957,548.4590996659826,,,,,,,,,,,,,200005,005,2023-04-04_11h39.20.732,DMS_et_12-36,2022.2.4,None,
74,PRED,12,1.1171200811871629,0,images/picture_1.png,images/picture_1.png,0,"[11.733433509789462, -11.733433509789466]",11.733433509789462,-11.733433509789464,images/picture_2.png,1,"[-11.733433509789462, 11.733433509789464]",-11.733433509789462,11.733433509789464,images/picture_3.png,2,"[-11.733433509789466, -11.733433509789462]",-11.733433509789464,-11.733433509789462,0,1,1,1.1171200811871629,2.1171200811871627,0.8828799188128373,3.0,1,1.8671200811871629,0,4.0,3.0,1,2,8,0,8,0,0,0,0,2,,,,,,,548.4590996659826,548.4590996659826,549.4739654159639,550.3399941250682,550.5738365829457,550.5738365829457,550.5738365829457,551.4602136660833,551.4602136660833,551.4602136660833,551.4405783750117,552.4400799160358,200005,005,2023-04-04_11h39.20.732,DMS_et_12-36,2022.2.4,None,
73,PRED,12,1.1171200811871629,0,images/picture_1.png,images/picture_1.png,0,"[-11.733433509789462, 11.733433509789464]",-11.733433509789462,11.733433509789464,images/picture_2.png,1,"[-11.733433509789466, -11.733433509789462]",-11.733433509789464,-11.733433509789462,images/picture_3.png,2,"[11.733433509789462, -11.733433509789466]",11.733433509789462,-11.733433509789464,0,1,1,1.1171200811871629,2.1171200811871627,0.8828799188128373,3.0,1,1.8671200811871629,0,4.0,3.0,1,2,8,0,8,0,0,1,1,1,,,,,,,552.4400799160358,552.4400799160358,553.4406114579178,554.3071949160658,554.5598452079576,554.5598452079576,554.5598452079576,555.4406222079415,555.4406222079415,555.4406222079415,555.4406222079415,556.440020665992,200005,005,2023-04-04_11h39.20.732,DMS_et_12-36,2022.2.4,None,
78,PRED,12,1.1171200811871629,0,images/picture_1.png,images/picture_1.png,0,"[-11.733433509789466, -11.733433509789462]",-11.733433509789464,-11.733433509789462,images/picture_2.png,1,"[11.733433509789464, 11.733433509789462]",11.733433509789464,11.733433509789462,images/picture_3.png,2,"[11.733433509789462, -11.733433509789466]",11.733433509789462,-11.733433509789464,0,1,1,1.1171200811871629,2.1171200811871627,0.8828799188128373,3.0,1,1.8671200811871629,0,4.0,3.0,1,2,8,0,8,0,0,2,2,6,,,,,,,556.440020665992,556.440020665992,557.4406098329928,558.3068600001279,558.5592810830567,558.5592810830567,558.5592810830567,559.440622166032,559.440622166032,559.440622166032,559.440622166032,560.4401573329233,200005,005,2023-04-04_11h39.20.732,DMS_et_12-36,2022.2.4,None,
75,PRED,12,1.1171200811871629,0,images/picture_1.png,images/picture_1.png,0,"[-11.733433509789466, -11.733433509789462]",-11.733433509789464,-11.733433509789462,images/picture_2.png,1,"[-11.733433509789462, 11.733433509789464]",-11.733433509789462,11.733433509789464,images/picture_3.png,2,"[11.733433509789462, -11.733433509789466]",11.733433509789462,-11.733433509789464,0,1,1,1.1171200811871629,2.1171200811871627,0.8828799188128373,3.0,1,1.8671200811871629,0,4.0,3.0,1,2,8,0,8,0,0,3,3,3,,,,,,,560.4401573329233,560.4401573329233,561.4405787501018,562.3069737500045,562.5596621250734,562.5596621250734,562.5596621250734,563.4405592500698,563.4405592500698,563.4405592500698,563.4405592500698,564.4399817080703,200005,005,2023-04-04_11h39.20.732,DMS_et_12-36,2022.2.4,None,
77,PRED,12,1.1171200811871629,0,images/picture_1.png,images/picture_1.png,0,"[-11.733433509789462, 11.733433509789464]",-11.733433509789462,11.733433509789464,images/picture_2.png,1,"[-11.733433509789466, -11.733433509789462]",-11.733433509789464,-11.733433509789462,images/picture_3.png,2,"[11.733433509789464, 11.733433509789462]",11.733433509789464,11.733433509789462,0,1,1,1.1171200811871629,2.1171200811871627,0.8828799188128373,3.0,1,1.8671200811871629,0,4.0,3.0,1,2,8,0,8,0,0,4,4,5,,,,,,,564.4399817080703,564.4399817080703,565.4404022910167,566.3071096250787,566.5602269580122,566.5602269580122,566.5602269580122,567.4406237499788,567.4406237499788,567.4406237499788,567.4406237499788,568.4401602910366,200005,005,2023-04-04_11h39.20.732,DMS_et_12-36,2022.2.4,None,
80,PRED,12,1.1171200811871629,0,images/picture_1.png,images/picture_1.png,0,"[-11.733433509789466, -11.733433509789462]",-11.733433509789464,-11.733433509789462,images/picture_2.png,1,"[11.733433509789464, 11.733433509789462]",11.733433509789464,11.733433509789462,images/picture_3.png,2,"[-11.733433509789462, 11.733433509789464]",-11.733433509789462,11.733433509789464,0,1,1,1.1171200811871629,2.1171200811871627,0.8828799188128373,3.0,1,1.8671200811871629,0,4.0,3.0,1,2,8,0,8,0,0,5,5,8,,,,,,,568.4401602910366,568.4401602910366,569.4403867081273,570.3073156250175,570.5591086659115,570.5591086659115,570.5591086659115,571.4405736250337,571.4405736250337,571.4405736250337,571.4405736250337,572.4401422499213,200005,005,2023-04-04_11h39.20.732,DMS_et_12-36,2022.2.4,None,
76,PRED,12,1.1171200811871629,0,images/picture_1.png,images/picture_1.png,0,"[11.733433509789462, -11.733433509789466]",11.733433509789462,-11.733433509789464,images/picture_2.png,1,"[-11.733433509789466, -11.733433509789462]",-11.733433509789464,-11.733433509789462,images/picture_3.png,2,"[11.733433509789464, 11.733433509789462]",11.733433509789464,11.733433509789462,0,1,1,1.1171200811871629,2.1171200811871627,0.8828799188128373,3.0,1,1.8671200811871629,0,4.0,3.0,1,2,8,0,8,0,0,6,6,4,,,,,,,572.4401422499213,572.4401422499213,573.4405950410292,574.3072681659833,574.5602304160129,574.5602304160129,574.5602304160129,575.4406052080449,575.4406052080449,575.4406052080449,575.4406052080449,576.4399567500222,200005,005,2023-04-04_11h39.20.732,DMS_et_12-36,2022.2.4,None,
79,PRED,12,1.1171200811871629,0,images/picture_1.png,images/picture_1.png,0,"[-11.733433509789466, -11.733433509789462]",-11.733433509789464,-11.733433509789462,images/picture_2.png,1,"[11.733433509789462, -11.733433509789466]",11.733433509789462,-11.733433509789464,images/picture_3.png,2,"[11.733433509789464, 11.733433509789462]",11.733433509789464,11.733433509789462,0,1,1,1.1171200811871629,2.1171200811871627,0.8828799188128373,3.0,1,1.8671200811871629,0,4.0,3.0,1,2,8,0,8,0,0,7,7,7,,,,,,,576.4399567500222,576.4399567500222,577.4405904999003,578.3073082501069,578.5591391250491,578.5591391250491,578.5591391250491,579.4402781249955,579.4402781249955,579.4402781249955,579.4402781249955,580.4401991660707,200005,005,2023-04-04_11h39.20.732,DMS_et_12-36,2022.2.4,None,
72,PRED,12,1.1171200811871629,0,images/picture_1.png,images/picture_1.png,0,"[-11.733433509789466, -11.733433509789462]",-11.733433509789464,-11.733433509789462,images/picture_2.png,1,"[-11.733433509789462, 11.733433509789464]",-11.733433509789462,11.733433509789464,images/picture_3.png,2,"[11.733433509789462, -11.733433509789466]",11.733433509789462,-11.733433509789464,0,1,1,1.1171200811871629,2.1171200811871627,0.8828799188128373,3.0,1,1.8671200811871629,0,4.0,3.0,1,2,8,0,8,0,0,8,8,0,,,,,,,580.4401991660707,580.4401991660707,581.4406458330341,582.3073352500796,582.5602238751017,582.5602238751017,582.5602238751017,583.440443166066,583.440443166066,583.440443166066,583.440443166066,584.5366032079328,200005,005,2023-04-04_11h39.20.732,DMS_et_12-36,2022.2.4,None,
,,,,,,,,,,,,,,,,,,,,,,,,,,,,,,,,,,,8,0,8,0,,,,,,,,,584.5366032079328,596.5672725830227,,,,,,,,,,,,,200005,005,2023-04-04_11h39.20.732,DMS_et_12-36,2022.2.4,None,
86,UNPRED,12,1.1171200811871629,0,images/picture_1.png,images/picture_1.png,0,"[11.733433509789462, -11.733433509789466]",11.733433509789462,-11.733433509789464,images/picture_2.png,1,"[-11.733433509789462, 11.733433509789464]",-11.733433509789462,11.733433509789464,images/picture_3.png,2,"[-11.733433509789466, -11.733433509789462]",-11.733433509789464,-11.733433509789462,0,1,1,1.1171200811871629,2.1171200811871627,0.8828799188128373,3.0,1,1.8671200811871629,0,4.0,3.0,1,2,9,0,9,0,0,0,0,5,,,,,,,596.5672725830227,596.5672725830227,597.5739820830058,598.4405969160143,598.673795874929,598.673795874929,598.673795874929,599.5597666250542,599.5597666250542,599.5597666250542,599.5736932079308,600.5926737079863,200005,005,2023-04-04_11h39.20.732,DMS_et_12-36,2022.2.4,None,
82,UNPRED,12,1.1171200811871629,2,images/picture_3.png,images/picture_1.png,0,"[11.733433509789462, -11.733433509789466]",11.733433509789462,-11.733433509789464,images/picture_2.png,1,"[-11.733433509789466, -11.733433509789462]",-11.733433509789464,-11.733433509789462,images/picture_3.png,2,"[11.733433509789464, 11.733433509789462]",11.733433509789464,11.733433509789462,0,1,1,1.1171200811871629,2.1171200811871627,0.8828799188128373,3.0,1,1.8671200811871629,0,4.0,3.0,1,2,9,0,9,0,0,1,1,1,,,,,,,600.5926737079863,600.5926737079863,601.6071243749466,602.473886666121,602.6932234161068,602.6932234161068,602.6932234161068,603.573885000078,603.573885000078,603.573885000078,603.573885000078,604.5740534579381,200005,005,2023-04-04_11h39.20.732,DMS_et_12-36,2022.2.4,None,
81,UNPRED,12,1.1171200811871629,0,images/picture_1.png,images/picture_1.png,0,"[11.733433509789462, -11.733433509789466]",11.733433509789462,-11.733433509789464,images/picture_2.png,1,"[-11.733433509789466, -11.733433509789462]",-11.733433509789464,-11.733433509789462,images/picture_3.png,2,"[11.733433509789464, 11.733433509789462]",11.733433509789464,11.733433509789462,0,1,1,1.1171200811871629,2.1171200811871627,0.8828799188128373,3.0,1,1.8671200811871629,0,4.0,3.0,1,2,9,0,9,0,0,2,2,0,,,,,,,604.5740534579381,604.5740534579381,605.5738465830218,606.4406164579559,606.6935638329014,606.6935638329014,606.6935638329014,607.5738700830843,607.5738700830843,607.5738700830843,607.5738700830843,608.5925021250732,200005,005,2023-04-04_11h39.20.732,DMS_et_12-36,2022.2.4,None,
89,UNPRED,12,1.1171200811871629,2,images/picture_3.png,images/picture_1.png,0,"[-11.733433509789466, -11.733433509789462]",-11.733433509789464,-11.733433509789462,images/picture_2.png,1,"[11.733433509789462, -11.733433509789466]",11.733433509789462,-11.733433509789464,images/picture_3.png,2,"[-11.733433509789462, 11.733433509789464]",-11.733433509789462,11.733433509789464,0,1,1,1.1171200811871629,2.1171200811871627,0.8828799188128373,3.0,1,1.8671200811871629,0,4.0,3.0,1,2,9,0,9,0,0,3,3,8,,,,,,,608.5925021250732,608.5925021250732,609.6069406250026,610.4736420831177,610.6932169580832,610.6932169580832,610.6932169580832,611.5738520410378,611.5738520410378,611.5738520410378,611.5738520410378,612.5736582500394,200005,005,2023-04-04_11h39.20.732,DMS_et_12-36,2022.2.4,None,
84,UNPRED,12,1.1171200811871629,0,images/picture_1.png,images/picture_1.png,0,"[11.733433509789464, 11.733433509789462]",11.733433509789464,11.733433509789462,images/picture_2.png,1,"[-11.733433509789462, 11.733433509789464]",-11.733433509789462,11.733433509789464,images/picture_3.png,2,"[11.733433509789462, -11.733433509789466]",11.733433509789462,-11.733433509789464,0,1,1,1.1171200811871629,2.1171200811871627,0.8828799188128373,3.0,1,1.8671200811871629,0,4.0,3.0,1,2,9,0,9,0,0,4,4,3,,,,,,,612.5736582500394,612.5736582500394,613.5738690409344,614.4406172500458,614.6939622499049,614.6939622499049,614.6939622499049,615.5738448749762,615.5738448749762,615.5738448749762,615.5738448749762,616.5926927500404,200005,005,2023-04-04_11h39.20.732,DMS_et_12-36,2022.2.4,None,
85,UNPRED,12,1.1171200811871629,2,images/picture_3.png,images/picture_1.png,0,"[-11.733433509789466, -11.733433509789462]",-11.733433509789464,-11.733433509789462,images/picture_2.png,1,"[11.733433509789464, 11.733433509789462]",11.733433509789464,11.733433509789462,images/picture_3.png,2,"[11.733433509789462, -11.733433509789466]",11.733433509789462,-11.733433509789464,0,1,1,1.1171200811871629,2.1171200811871627,0.8828799188128373,3.0,1,1.8671200811871629,0,4.0,3.0,1,2,9,0,9,0,0,5,5,4,,,,,,,616.5926927500404,616.5926927500404,617.6072998750024,618.4738713749684,618.6932237499859,618.6932237499859,618.6932237499859,619.5737469159067,619.5737469159067,619.5737469159067,619.5737469159067,620.5735169579275,200005,005,2023-04-04_11h39.20.732,DMS_et_12-36,2022.2.4,None,
88,UNPRED,12,1.1171200811871629,0,images/picture_1.png,images/picture_1.png,0,"[-11.733433509789466, -11.733433509789462]",-11.733433509789464,-11.733433509789462,images/picture_2.png,1,"[-11.733433509789462, 11.733433509789464]",-11.733433509789462,11.733433509789464,images/picture_3.png,2,"[11.733433509789464, 11.733433509789462]",11.733433509789464,11.733433509789462,0,1,1,1.1171200811871629,2.1171200811871627,0.8828799188128373,3.0,1,1.8671200811871629,0,4.0,3.0,1,2,9,0,9,0,0,6,6,7,,,,,,,620.5735169579275,620.5735169579275,621.5738507080823,622.4405653330032,622.6738162499387,622.6738162499387,622.6738162499387,623.5596935830545,623.5596935830545,623.5596935830545,623.5738837909885,624.5925621660426,200005,005,2023-04-04_11h39.20.732,DMS_et_12-36,2022.2.4,None,
83,UNPRED,12,1.1171200811871629,2,images/picture_3.png,images/picture_1.png,0,"[11.733433509789462, -11.733433509789466]",11.733433509789462,-11.733433509789464,images/picture_2.png,1,"[11.733433509789464, 11.733433509789462]",11.733433509789464,11.733433509789462,images/picture_3.png,2,"[-11.733433509789462, 11.733433509789464]",-11.733433509789462,11.733433509789464,0,1,1,1.1171200811871629,2.1171200811871627,0.8828799188128373,3.0,1,1.8671200811871629,0,4.0,3.0,1,2,9,0,9,0,0,7,7,2,,,,,,,624.5925621660426,624.5925621660426,625.6075663750526,626.4739599160384,626.69342379109,626.69342379109,626.69342379109,627.573686165968,627.573686165968,627.573686165968,627.573686165968,628.5745925831143,200005,005,2023-04-04_11h39.20.732,DMS_et_12-36,2022.2.4,None,
87,UNPRED,12,1.1171200811871629,1,images/picture_2.png,images/picture_1.png,0,"[11.733433509789462, -11.733433509789466]",11.733433509789462,-11.733433509789464,images/picture_2.png,1,"[-11.733433509789466, -11.733433509789462]",-11.733433509789464,-11.733433509789462,images/picture_3.png,2,"[-11.733433509789462, 11.733433509789464]",-11.733433509789462,11.733433509789464,0,1,1,1.1171200811871629,2.1171200811871627,0.8828799188128373,3.0,1,1.8671200811871629,0,4.0,3.0,1,2,9,0,9,0,0,8,8,6,,,,,,,628.5745925831143,628.5745925831143,629.5739561659284,630.4402667500544,630.6923838329967,630.6923838329967,630.6923838329967,631.5738519160077,631.5738519160077,631.5738519160077,631.5738519160077,632.6814802079462,200005,005,2023-04-04_11h39.20.732,DMS_et_12-36,2022.2.4,None,
,,,,,,,,,,,,,,,,,,,,,,,,,,,,,,,,,,,9,0,9,0,,,,,,,,,632.6814802079462,644.7124985000119,,,,,,,,,,,,,200005,005,2023-04-04_11h39.20.732,DMS_et_12-36,2022.2.4,None,
94,PRED,12,1.1171200811871629,1,images/picture_2.png,images/picture_1.png,0,"[-11.733433509789462, 11.733433509789464]",-11.733433509789462,11.733433509789464,images/picture_2.png,1,"[-11.733433509789466, -11.733433509789462]",-11.733433509789464,-11.733433509789462,images/picture_3.png,2,"[11.733433509789464, 11.733433509789462]",11.733433509789464,11.733433509789462,0,1,1,1.1171200811871629,2.1171200811871627,0.8828799188128373,3.0,1,1.8671200811871629,0,4.0,3.0,1,2,10,0,10,0,0,0,0,4,,,,,,,644.7124985000119,644.7124985000119,645.726798708085,646.5936007499695,646.8268088330515,646.8268088330515,646.8268088330515,647.7071963751223,647.7071963751223,647.7071963751223,647.7071963751223,648.7069582911208,200005,005,2023-04-04_11h39.20.732,DMS_et_12-36,2022.2.4,None,
92,PRED,12,1.1171200811871629,1,images/picture_2.png,images/picture_1.png,0,"[-11.733433509789466, -11.733433509789462]",-11.733433509789464,-11.733433509789462,images/picture_2.png,1,"[-11.733433509789462, 11.733433509789464]",-11.733433509789462,11.733433509789464,images/picture_3.png,2,"[11.733433509789464, 11.733433509789462]",11.733433509789464,11.733433509789462,0,1,1,1.1171200811871629,2.1171200811871627,0.8828799188128373,3.0,1,1.8671200811871629,0,4.0,3.0,1,2,10,0,10,0,0,1,1,2,,,,,,,648.7069582911208,648.7069582911208,649.7073348329868,650.5736140829977,650.8257100000046,650.8257100000046,650.8257100000046,651.7071000831202,651.7071000831202,651.7071000831202,651.7071000831202,652.7067348330747,200005,005,2023-04-04_11h39.20.732,DMS_et_12-36,2022.2.4,None,
93,PRED,12,1.1171200811871629,1,images/picture_2.png,images/picture_1.png,0,"[-11.733433509789466, -11.733433509789462]",-11.733433509789464,-11.733433509789462,images/picture_2.png,1,"[-11.733433509789462, 11.733433509789464]",-11.733433509789462,11.733433509789464,images/picture_3.png,2,"[11.733433509789462, -11.733433509789466]",11.733433509789462,-11.733433509789464,0,1,1,1.1171200811871629,2.1171200811871627,0.8828799188128373,3.0,1,1.8671200811871629,0,4.0,3.0,1,2,10,0,10,0,0,2,2,3,,,,,,,652.7067348330747,652.7067348330747,653.7071828329936,654.5738453329541,654.8267589579336,654.8267589579336,654.8267589579336,655.7073141250294,655.7073141250294,655.7073141250294,655.7073141250294,656.7066469579004,200005,005,2023-04-04_11h39.20.732,DMS_et_12-36,2022.2.4,None,
96,PRED,12,1.1171200811871629,1,images/picture_2.png,images/picture_1.png,0,"[-11.733433509789462, 11.733433509789464]",-11.733433509789462,11.733433509789464,images/picture_2.png,1,"[-11.733433509789466, -11.733433509789462]",-11.733433509789464,-11.733433509789462,images/picture_3.png,2,"[11.733433509789462, -11.733433509789466]",11.733433509789462,-11.733433509789464,0,1,1,1.1171200811871629,2.1171200811871627,0.8828799188128373,3.0,1,1.8671200811871629,0,4.0,3.0,1,2,10,0,10,0,0,3,3,6,,,,,,,656.7066469579004,656.7066469579004,657.7073373750318,658.5736978331115,658.8269867501222,658.8269867501222,658.8269867501222,659.7072414581198,659.7072414581198,659.7072414581198,659.7072414581198,660.706843999913,200005,005,2023-04-04_11h39.20.732,DMS_et_12-36,2022.2.4,None,
97,PRED,12,1.1171200811871629,1,images/picture_2.png,images/picture_1.png,0,"[-11.733433509789466, -11.733433509789462]",-11.733433509789464,-11.733433509789462,images/picture_2.png,1,"[-11.733433509789462, 11.733433509789464]",-11.733433509789462,11.733433509789464,images/picture_3.png,2,"[11.733433509789464, 11.733433509789462]",11.733433509789464,11.733433509789462,0,1,1,1.1171200811871629,2.1171200811871627,0.8828799188128373,3.0,1,1.8671200811871629,0,4.0,3.0,1,2,10,0,10,0,0,4,4,7,,,,,,,660.706843999913,660.706843999913,661.7069283749443,662.5738666250836,662.807117999997,662.807117999997,662.807117999997,663.6939472500235,663.6939472500235,663.6939472500235,663.707412000047,664.7067501249257,200005,005,2023-04-04_11h39.20.732,DMS_et_12-36,2022.2.4,None,
91,PRED,12,1.1171200811871629,1,images/picture_2.png,images/picture_1.png,0,"[11.733433509789462, -11.733433509789466]",11.733433509789462,-11.733433509789464,images/picture_2.png,1,"[-11.733433509789462, 11.733433509789464]",-11.733433509789462,11.733433509789464,images/picture_3.png,2,"[-11.733433509789466, -11.733433509789462]",-11.733433509789464,-11.733433509789462,0,1,1,1.1171200811871629,2.1171200811871627,0.8828799188128373,3.0,1,1.8671200811871629,0,4.0,3.0,1,2,10,0,10,0,0,5,5,1,,,,,,,664.7067501249257,664.7067501249257,665.7071775831282,666.5738805830479,666.8267723331228,666.8267723331228,666.8267723331228,667.707144707907,667.707144707907,667.707144707907,667.707144707907,668.7071446659975,200005,005,2023-04-04_11h39.20.732,DMS_et_12-36,2022.2.4,None,
95,PRED,12,1.1171200811871629,1,images/picture_2.png,images/picture_1.png,0,"[11.733433509789462, -11.733433509789466]",11.733433509789462,-11.733433509789464,images/picture_2.png,1,"[-11.733433509789462, 11.733433509789464]",-11.733433509789462,11.733433509789464,images/picture_3.png,2,"[11.733433509789464, 11.733433509789462]",11.733433509789464,11.733433509789462,0,1,1,1.1171200811871629,2.1171200811871627,0.8828799188128373,3.0,1,1.8671200811871629,0,4.0,3.0,1,2,10,0,10,0,0,6,6,5,,,,,,,668.7071446659975,668.7071446659975,669.7073234580457,670.5740306659136,670.8267285409383,670.8267285409383,670.8267285409383,671.7069782500621,671.7069782500621,671.7069782500621,671.7069782500621,672.7072012501303,200005,005,2023-04-04_11h39.20.732,DMS_et_12-36,2022.2.4,None,
98,PRED,12,1.1171200811871629,1,images/picture_2.png,images/picture_1.png,0,"[11.733433509789464, 11.733433509789462]",11.733433509789464,11.733433509789462,images/picture_2.png,1,"[-11.733433509789462, 11.733433509789464]",-11.733433509789462,11.733433509789464,images/picture_3.png,2,"[11.733433509789462, -11.733433509789466]",11.733433509789462,-11.733433509789464,0,1,1,1.1171200811871629,2.1171200811871627,0.8828799188128373,3.0,1,1.8671200811871629,0,4.0,3.0,1,2,10,0,10,0,0,7,7,8,,,,,,,672.7072012501303,672.7072012501303,673.7071371250786,674.573860415956,674.8267063330859,674.8267063330859,674.8267063330859,675.7073298750911,675.7073298750911,675.7073298750911,675.7073298750911,676.7068159161136,200005,005,2023-04-04_11h39.20.732,DMS_et_12-36,2022.2.4,None,
90,PRED,12,1.1171200811871629,1,images/picture_2.png,images/picture_1.png,0,"[-11.733433509789462, 11.733433509789464]",-11.733433509789462,11.733433509789464,images/picture_2.png,1,"[11.733433509789462, -11.733433509789466]",11.733433509789462,-11.733433509789464,images/picture_3.png,2,"[11.733433509789464, 11.733433509789462]",11.733433509789464,11.733433509789462,0,1,1,1.1171200811871629,2.1171200811871627,0.8828799188128373,3.0,1,1.8671200811871629,0,4.0,3.0,1,2,10,0,10,0,0,8,8,0,,,,,,,676.7068159161136,676.7068159161136,677.7071731660981,678.5739001249894,678.8267260000575,678.8267260000575,678.8267260000575,679.7071400829591,679.7071400829591,679.7071400829591,679.7071400829591,680.8197092909832,200005,005,2023-04-04_11h39.20.732,DMS_et_12-36,2022.2.4,None,
,,,,,,,,,,,,,,,,,,,,,,,,,,,,,,,,,,,10,0,10,0,,,,,,,,,680.8197092909832,692.8659284999594,,,,,,,,,,,,,200005,005,2023-04-04_11h39.20.732,DMS_et_12-36,2022.2.4,None,
99,UNPRED,12,1.1171200811871629,2,images/picture_3.png,images/picture_1.png,0,"[11.733433509789462, -11.733433509789466]",11.733433509789462,-11.733433509789464,images/picture_2.png,1,"[11.733433509789464, 11.733433509789462]",11.733433509789464,11.733433509789462,images/picture_3.png,2,"[-11.733433509789466, -11.733433509789462]",-11.733433509789464,-11.733433509789462,0,1,1,1.1171200811871629,2.1171200811871627,0.8828799188128373,3.0,1,1.8671200811871629,0,4.0,3.0,1,2,11,0,11,0,0,0,0,0,,,,,,,692.8659284999594,692.8659284999594,693.8737771250308,694.7407579161227,694.9738258330617,694.9738258330617,694.9738258330617,695.8591225000564,695.8591225000564,695.8591225000564,695.8591225000564,696.8937572080176,200005,005,2023-04-04_11h39.20.732,DMS_et_12-36,2022.2.4,None,
102,UNPRED,12,1.1171200811871629,1,images/picture_2.png,images/picture_1.png,0,"[-11.733433509789462, 11.733433509789464]",-11.733433509789462,11.733433509789464,images/picture_2.png,1,"[11.733433509789464, 11.733433509789462]",11.733433509789464,11.733433509789462,images/picture_3.png,2,"[-11.733433509789466, -11.733433509789462]",-11.733433509789464,-11.733433509789462,0,1,1,1.1171200811871629,2.1171200811871627,0.8828799188128373,3.0,1,1.8671200811871629,0,4.0,3.0,1,2,11,0,11,0,0,1,1,3,,,,,,,696.8937572080176,696.8937572080176,697.9073188330512,698.7738817909267,698.993132499978,698.993132499978,698.993132499978,699.8740495000966,699.8740495000966,699.8740495000966,699.8740495000966,700.874672499951,200005,005,2023-04-04_11h39.20.732,DMS_et_12-36,2022.2.4,None,
107,UNPRED,12,1.1171200811871629,0,images/picture_1.png,images/picture_1.png,0,"[11.733433509789464, 11.733433509789462]",11.733433509789464,11.733433509789462,images/picture_2.png,1,"[11.733433509789462, -11.733433509789466]",11.733433509789462,-11.733433509789464,images/picture_3.png,2,"[-11.733433509789466, -11.733433509789462]",-11.733433509789464,-11.733433509789462,0,1,1,1.1171200811871629,2.1171200811871627,0.8828799188128373,3.0,1,1.8671200811871629,0,4.0,3.0,1,2,11,0,11,0,0,2,2,8,,,,,,,700.874672499951,700.874672499951,701.87395895808,702.7405852500815,702.9927185829729,702.9927185829729,702.9927185829729,703.8738775409292,703.8738775409292,703.8738775409292,703.8738775409292,704.8737881251145,200005,005,2023-04-04_11h39.20.732,DMS_et_12-36,2022.2.4,None,
104,UNPRED,12,1.1171200811871629,1,images/picture_2.png,images/picture_1.png,0,"[-11.733433509789466, -11.733433509789462]",-11.733433509789464,-11.733433509789462,images/picture_2.png,1,"[-11.733433509789462, 11.733433509789464]",-11.733433509789462,11.733433509789464,images/picture_3.png,2,"[11.733433509789462, -11.733433509789466]",11.733433509789462,-11.733433509789464,0,1,1,1.1171200811871629,2.1171200811871627,0.8828799188128373,3.0,1,1.8671200811871629,0,4.0,3.0,1,2,11,0,11,0,0,3,3,5,,,,,,,704.8737881251145,704.8737881251145,705.8738609161228,706.7405854999088,706.9932463751175,706.9932463751175,706.9932463751175,707.8738457080908,707.8738457080908,707.8738457080908,707.8738457080908,708.8737008329481,200005,005,2023-04-04_11h39.20.732,DMS_et_12-36,2022.2.4,None,
101,UNPRED,12,1.1171200811871629,1,images/picture_2.png,images/picture_1.png,0,"[11.733433509789462, -11.733433509789466]",11.733433509789462,-11.733433509789464,images/picture_2.png,1,"[-11.733433509789462, 11.733433509789464]",-11.733433509789462,11.733433509789464,images/picture_3.png,2,"[11.733433509789464, 11.733433509789462]",11.733433509789464,11.733433509789462,0,1,1,1.1171200811871629,2.1171200811871627,0.8828799188128373,3.0,1,1.8671200811871629,0,4.0,3.0,1,2,11,0,11,0,0,4,4,2,,,,,,,708.8737008329481,708.8737008329481,709.8739357499871,710.7405949160457,710.9935398749076,710.9935398749076,710.9935398749076,711.8738167909905,711.8738167909905,711.8738167909905,711.8738167909905,712.8736554579809,200005,005,2023-04-04_11h39.20.732,DMS_et_12-36,2022.2.4,None,
100,UNPRED,12,1.1171200811871629,1,images/picture_2.png,images/picture_1.png,0,"[-11.733433509789466, -11.733433509789462]",-11.733433509789464,-11.733433509789462,images/picture_2.png,1,"[-11.733433509789462, 11.733433509789464]",-11.733433509789462,11.733433509789464,images/picture_3.png,2,"[11.733433509789462, -11.733433509789466]",11.733433509789462,-11.733433509789464,0,1,1,1.1171200811871629,2.1171200811871627,0.8828799188128373,3.0,1,1.8671200811871629,0,4.0,3.0,1,2,11,0,11,0,0,5,5,1,,,,,,,712.8736554579809,712.8736554579809,713.8738648749422,714.7404009581078,714.9932326660492,714.9932326660492,714.9932326660492,715.8738797500264,715.8738797500264,715.8738797500264,715.8738797500264,716.87306279107,200005,005,2023-04-04_11h39.20.732,DMS_et_12-36,2022.2.4,None,
106,UNPRED,12,1.1171200811871629,0,images/picture_1.png,images/picture_1.png,0,"[-11.733433509789466, -11.733433509789462]",-11.733433509789464,-11.733433509789462,images/picture_2.png,1,"[-11.733433509789462, 11.733433509789464]",-11.733433509789462,11.733433509789464,images/picture_3.png,2,"[11.733433509789462, -11.733433509789466]",11.733433509789462,-11.733433509789464,0,1,1,1.1171200811871629,2.1171200811871627,0.8828799188128373,3.0,1,1.8671200811871629,0,4.0,3.0,1,2,11,0,11,0,0,6,6,7,,,,,,,716.87306279107,716.87306279107,717.873867083108,718.7403202909045,718.9937095409259,718.9937095409259,718.9937095409259,719.8740780830849,719.8740780830849,719.8740780830849,719.8740780830849,720.8734034160152,200005,005,2023-04-04_11h39.20.732,DMS_et_12-36,2022.2.4,None,
103,UNPRED,12,1.1171200811871629,1,images/picture_2.png,images/picture_1.png,0,"[11.733433509789462, -11.733433509789466]",11.733433509789462,-11.733433509789464,images/picture_2.png,1,"[-11.733433509789466, -11.733433509789462]",-11.733433509789464,-11.733433509789462,images/picture_3.png,2,"[11.733433509789464, 11.733433509789462]",11.733433509789464,11.733433509789462,0,1,1,1.1171200811871629,2.1171200811871627,0.8828799188128373,3.0,1,1.8671200811871629,0,4.0,3.0,1,2,11,0,11,0,0,7,7,4,,,,,,,720.8734034160152,720.8734034160152,721.8740069579799,722.7404074580409,722.9925495409407,722.9925495409407,722.9925495409407,723.8738808750641,723.8738808750641,723.8738808750641,723.8738808750641,724.8729448749218,200005,005,2023-04-04_11h39.20.732,DMS_et_12-36,2022.2.4,None,
105,UNPRED,12,1.1171200811871629,0,images/picture_1.png,images/picture_1.png,0,"[-11.733433509789462, 11.733433509789464]",-11.733433509789462,11.733433509789464,images/picture_2.png,1,"[-11.733433509789466, -11.733433509789462]",-11.733433509789464,-11.733433509789462,images/picture_3.png,2,"[11.733433509789464, 11.733433509789462]",11.733433509789464,11.733433509789462,0,1,1,1.1171200811871629,2.1171200811871627,0.8828799188128373,3.0,1,1.8671200811871629,0,4.0,3.0,1,2,11,0,11,0,0,8,8,6,,,,,,,724.8729448749218,724.8729448749218,725.8739260830916,726.7405913330149,726.9934301660396,726.9934301660396,726.9934301660396,727.8737082080916,727.8737082080916,727.8737082080916,727.8737082080916,729.0732671660371,200005,005,2023-04-04_11h39.20.732,DMS_et_12-36,2022.2.4,None,
,,,,,,,,,,,,,,,,,,,,,,,,,,,,,,,,,,,11,0,11,0,,,,,,,,,729.0732671660371,741.2076383749954,,,,,,,,,,,,,200005,005,2023-04-04_11h39.20.732,DMS_et_12-36,2022.2.4,None,
,,,,,,,,,,,,,,,,,,,,,,,,,,,,,,,,,,,,,,,,,,,,,,,741.2076383749954,753.7167404999491,,,,,,,,,,,,,,,,,,,
