trial_count,blockType,blockNum,delay_time,stimImage_i,stimImage,responseImage1,responseImage1_i,responseImage1_pos,responseImage1_X,responseImage1_Y,responseImage2,responseImage2_i,responseImage2_pos,responseImage2_X,responseImage2_Y,responseImage3,responseImage3_i,responseImage3_pos,responseImage3_X,responseImage3_Y,cue_onset,cue_dur,delay_onset,delay_dur,resp_onset,resp_dur,rest_onset,rest_dur,circle_dur,circle_onset,total_dur,cross_onset,cross_dur,delay_resp_period,blocks.thisRepN,blocks.thisTrialN,blocks.thisN,blocks.thisIndex,trials.thisRepN,trials.thisTrialN,trials.thisN,trials.thisIndex,key_resp.started,text.started,key_resp.keys,key_resp.rt,text_2.started,text_2.stopped,sample.started,Delay.started,sample.stopped,Delay.stopped,Response_1.started,Response_2.started,Response_3.started,Response_1.stopped,Response_2.stopped,Response_3.stopped,polygon.started,polygon.stopped,participant,session,date,expName,psychopyVersion,frameRate,
,,,,,,,,,,,,,,,,,,,,,,,,,,,,,,,,,,,,,,,,,,,66.06230129092,66.06230129092,t,45.14504829212092,,,,,,,,,,,,,,,200004,003,2023-03-31_11h01.23.241,DMS_et_12-36,2022.2.4,None,
8,PRED,12,0.7965871810939458,2,images/picture_3.png,images/picture_1.png,0,"[11.733433509789462, -11.733433509789466]",11.733433509789462,-11.733433509789464,images/picture_2.png,1,"[-11.733433509789462, 11.733433509789464]",-11.733433509789462,11.733433509789464,images/picture_3.png,2,"[11.733433509789464, 11.733433509789462]",11.733433509789464,11.733433509789462,0,1,1,0.7965871810939458,1.7965871810939458,1.2034128189060542,3.0,1,1.5465871810939458,0,4.0,3.0,1,2,0,0,0,0,0,0,0,8,,,,,111.72257729084231,123.76224604086019,123.76224604086019,123.76224604086019,124.76984774996527,125.31769620790146,125.53705195803195,125.53705195803195,125.53705195803195,126.75099516590126,126.75099516590126,126.75099516590126,126.75099516590126,127.76962929102592,200004,003,2023-03-31_11h01.23.241,DMS_et_12-36,2022.2.4,None,
7,PRED,12,0.7965871810939458,2,images/picture_3.png,images/picture_1.png,0,"[-11.733433509789466, -11.733433509789462]",-11.733433509789464,-11.733433509789462,images/picture_2.png,1,"[-11.733433509789462, 11.733433509789464]",-11.733433509789462,11.733433509789464,images/picture_3.png,2,"[11.733433509789462, -11.733433509789466]",11.733433509789462,-11.733433509789464,0,1,1,0.7965871810939458,1.7965871810939458,1.2034128189060542,3.0,1,1.5465871810939458,0,4.0,3.0,1,2,0,0,0,0,0,1,1,7,,,,,,,127.76962929102592,127.76962929102592,128.784444082994,129.31751779094338,129.5510935408529,129.5510935408529,129.5510935408529,130.77043429086916,130.77043429086916,130.77043429086916,130.75130833289586,131.76940854103304,200004,003,2023-03-31_11h01.23.241,DMS_et_12-36,2022.2.4,None,
6,PRED,12,0.7965871810939458,2,images/picture_3.png,images/picture_1.png,0,"[11.733433509789464, 11.733433509789462]",11.733433509789464,11.733433509789462,images/picture_2.png,1,"[-11.733433509789462, 11.733433509789464]",-11.733433509789462,11.733433509789464,images/picture_3.png,2,"[11.733433509789462, -11.733433509789466]",11.733433509789462,-11.733433509789464,0,1,1,0.7965871810939458,1.7965871810939458,1.2034128189060542,3.0,1,1.5465871810939458,0,4.0,3.0,1,2,0,0,0,0,0,2,2,6,,,,,,,131.76940854103304,131.76940854103304,132.78423520782962,133.31756487488747,133.53671316592954,133.53671316592954,133.53671316592954,134.75106966588646,134.75106966588646,134.75106966588646,134.75106966588646,135.77022454096004,200004,003,2023-03-31_11h01.23.241,DMS_et_12-36,2022.2.4,None,
5,PRED,12,0.7965871810939458,2,images/picture_3.png,images/picture_1.png,0,"[11.733433509789464, 11.733433509789462]",11.733433509789464,11.733433509789462,images/picture_2.png,1,"[-11.733433509789462, 11.733433509789464]",-11.733433509789462,11.733433509789464,images/picture_3.png,2,"[11.733433509789462, -11.733433509789466]",11.733433509789462,-11.733433509789464,0,1,1,0.7965871810939458,1.7965871810939458,1.2034128189060542,3.0,1,1.5465871810939458,0,4.0,3.0,1,2,0,0,0,0,0,3,3,5,,,,,,,135.77022454096004,135.77022454096004,136.7842871248722,137.3175439578481,137.5510207498446,137.5510207498446,137.5510207498446,138.7511091248598,138.7511091248598,138.7511091248598,138.7511091248598,139.76975741586648,200004,003,2023-03-31_11h01.23.241,DMS_et_12-36,2022.2.4,None,
0,PRED,12,0.7965871810939458,2,images/picture_3.png,images/picture_1.png,0,"[11.733433509789464, 11.733433509789462]",11.733433509789464,11.733433509789462,images/picture_2.png,1,"[-11.733433509789462, 11.733433509789464]",-11.733433509789462,11.733433509789464,images/picture_3.png,2,"[11.733433509789462, -11.733433509789466]",11.733433509789462,-11.733433509789464,0,1,1,0.7965871810939458,1.7965871810939458,1.2034128189060542,3.0,1,1.5465871810939458,0,4.0,3.0,1,2,0,0,0,0,0,4,4,0,,,,,,,139.76975741586648,139.76975741586648,140.7843114999123,141.317848125007,141.5509044160135,141.5509044160135,141.5509044160135,142.76935924985446,142.76935924985446,142.76935924985446,142.750504540978,143.7697919998318,200004,003,2023-03-31_11h01.23.241,DMS_et_12-36,2022.2.4,None,
3,PRED,12,0.7965871810939458,2,images/picture_3.png,images/picture_1.png,0,"[11.733433509789464, 11.733433509789462]",11.733433509789464,11.733433509789462,images/picture_2.png,1,"[-11.733433509789462, 11.733433509789464]",-11.733433509789462,11.733433509789464,images/picture_3.png,2,"[-11.733433509789466, -11.733433509789462]",-11.733433509789464,-11.733433509789462,0,1,1,0.7965871810939458,1.7965871810939458,1.2034128189060542,3.0,1,1.5465871810939458,0,4.0,3.0,1,2,0,0,0,0,0,5,5,3,,,,,,,143.7697919998318,143.7697919998318,144.78423741599545,145.31756904092617,145.5507051658351,145.5507051658351,145.5507051658351,146.75097383302636,146.75097383302636,146.75097383302636,146.75097383302636,147.77039929083548,200004,003,2023-03-31_11h01.23.241,DMS_et_12-36,2022.2.4,None,
1,PRED,12,0.7965871810939458,2,images/picture_3.png,images/picture_1.png,0,"[11.733433509789464, 11.733433509789462]",11.733433509789464,11.733433509789462,images/picture_2.png,1,"[-11.733433509789462, 11.733433509789464]",-11.733433509789462,11.733433509789464,images/picture_3.png,2,"[11.733433509789462, -11.733433509789466]",11.733433509789462,-11.733433509789464,0,1,1,0.7965871810939458,1.7965871810939458,1.2034128189060542,3.0,1,1.5465871810939458,0,4.0,3.0,1,2,0,0,0,0,0,6,6,1,,,,,,,147.77039929083548,147.77039929083548,148.78412379091606,149.3175270408392,149.55098262499087,149.55098262499087,149.55098262499087,150.75081849982962,150.75081849982962,150.75081849982962,150.75081849982962,151.76978900004178,200004,003,2023-03-31_11h01.23.241,DMS_et_12-36,2022.2.4,None,
4,PRED,12,0.7965871810939458,2,images/picture_3.png,images/picture_1.png,0,"[-11.733433509789462, 11.733433509789464]",-11.733433509789462,11.733433509789464,images/picture_2.png,1,"[11.733433509789462, -11.733433509789466]",11.733433509789462,-11.733433509789464,images/picture_3.png,2,"[11.733433509789464, 11.733433509789462]",11.733433509789464,11.733433509789462,0,1,1,0.7965871810939458,1.7965871810939458,1.2034128189060542,3.0,1,1.5465871810939458,0,4.0,3.0,1,2,0,0,0,0,0,7,7,4,,,,,,,151.76978900004178,151.76978900004178,152.784245708026,153.31770004099235,153.5509745408781,153.5509745408781,153.5509745408781,154.7507577079814,154.7507577079814,154.7507577079814,154.7507577079814,155.7701767499093,200004,003,2023-03-31_11h01.23.241,DMS_et_12-36,2022.2.4,None,
2,PRED,12,0.7965871810939458,2,images/picture_3.png,images/picture_1.png,0,"[-11.733433509789466, -11.733433509789462]",-11.733433509789464,-11.733433509789462,images/picture_2.png,1,"[-11.733433509789462, 11.733433509789464]",-11.733433509789462,11.733433509789464,images/picture_3.png,2,"[11.733433509789464, 11.733433509789462]",11.733433509789464,11.733433509789462,0,1,1,0.7965871810939458,1.7965871810939458,1.2034128189060542,3.0,1,1.5465871810939458,0,4.0,3.0,1,2,0,0,0,0,0,8,8,2,,,,,,,155.7701767499093,155.7701767499093,156.7844794159755,157.3177182499785,157.55107649997808,157.55107649997808,157.55107649997808,158.75100816600025,158.75100816600025,158.75100816600025,158.75100816600025,159.7702519579325,200004,003,2023-03-31_11h01.23.241,DMS_et_12-36,2022.2.4,None,
,,,,,,,,,,,,,,,,,,,,,,,,,,,,,,,,,,,0,0,0,0,,,,,,,,,159.7702519579325,171.8028805409558,,,,,,,,,,,,,200004,003,2023-03-31_11h01.23.241,DMS_et_12-36,2022.2.4,None,
16,UNPRED,12,0.7965871810939458,1,images/picture_2.png,images/picture_1.png,0,"[11.733433509789464, 11.733433509789462]",11.733433509789464,11.733433509789462,images/picture_2.png,1,"[-11.733433509789466, -11.733433509789462]",-11.733433509789464,-11.733433509789462,images/picture_3.png,2,"[11.733433509789462, -11.733433509789466]",11.733433509789462,-11.733433509789464,0,1,1,0.7965871810939458,1.7965871810939458,1.2034128189060542,3.0,1,1.5465871810939458,0,4.0,3.0,1,2,1,0,1,0,0,0,0,7,,,,,,,171.8028805409558,171.8028805409558,172.81738870800473,173.35086354101077,173.58396445796825,173.58396445796825,173.58396445796825,174.78426045784727,174.78426045784727,174.78426045784727,174.80389970797114,175.81710558291525,200004,003,2023-03-31_11h01.23.241,DMS_et_12-36,2022.2.4,None,
14,UNPRED,12,0.7965871810939458,1,images/picture_2.png,images/picture_1.png,0,"[-11.733433509789462, 11.733433509789464]",-11.733433509789462,11.733433509789464,images/picture_2.png,1,"[11.733433509789464, 11.733433509789462]",11.733433509789464,11.733433509789462,images/picture_3.png,2,"[11.733433509789462, -11.733433509789466]",11.733433509789462,-11.733433509789464,0,1,1,0.7965871810939458,1.7965871810939458,1.2034128189060542,3.0,1,1.5465871810939458,0,4.0,3.0,1,2,1,0,1,0,0,1,1,5,,,,,,,175.81710558291525,175.81710558291525,176.81770604103804,177.3710562910419,177.60386883304454,177.60386883304454,177.60386883304454,178.81755775003694,178.81755775003694,178.81755775003694,178.81755775003694,179.81731637497433,200004,003,2023-03-31_11h01.23.241,DMS_et_12-36,2022.2.4,None,
17,UNPRED,12,0.7965871810939458,0,images/picture_1.png,images/picture_1.png,0,"[11.733433509789464, 11.733433509789462]",11.733433509789464,11.733433509789462,images/picture_2.png,1,"[-11.733433509789466, -11.733433509789462]",-11.733433509789464,-11.733433509789462,images/picture_3.png,2,"[-11.733433509789462, 11.733433509789464]",-11.733433509789462,11.733433509789464,0,1,1,0.7965871810939458,1.7965871810939458,1.2034128189060542,3.0,1,1.5465871810939458,0,4.0,3.0,1,2,1,0,1,0,0,2,2,8,,,,,,,179.81731637497433,179.81731637497433,180.81723054102622,181.3704427499324,181.61768287490122,181.61768287490122,181.61768287490122,182.83639454096556,182.83639454096556,182.83639454096556,182.81751191592775,183.8183383748401,200004,003,2023-03-31_11h01.23.241,DMS_et_12-36,2022.2.4,None,
11,UNPRED,12,0.7965871810939458,1,images/picture_2.png,images/picture_1.png,0,"[11.733433509789464, 11.733433509789462]",11.733433509789464,11.733433509789462,images/picture_2.png,1,"[11.733433509789462, -11.733433509789466]",11.733433509789462,-11.733433509789464,images/picture_3.png,2,"[-11.733433509789466, -11.733433509789462]",-11.733433509789464,-11.733433509789462,0,1,1,0.7965871810939458,1.7965871810939458,1.2034128189060542,3.0,1,1.5465871810939458,0,4.0,3.0,1,2,1,0,1,0,0,3,3,2,,,,,,,183.8183383748401,183.8183383748401,184.8177419998683,185.37045329087414,185.61773437494412,185.61773437494412,185.61773437494412,186.81761608296074,186.81761608296074,186.81761608296074,186.81761608296074,187.83662737486884,200004,003,2023-03-31_11h01.23.241,DMS_et_12-36,2022.2.4,None,
12,UNPRED,12,0.7965871810939458,2,images/picture_3.png,images/picture_1.png,0,"[-11.733433509789462, 11.733433509789464]",-11.733433509789462,11.733433509789464,images/picture_2.png,1,"[11.733433509789464, 11.733433509789462]",11.733433509789464,11.733433509789462,images/picture_3.png,2,"[-11.733433509789466, -11.733433509789462]",-11.733433509789464,-11.733433509789462,0,1,1,0.7965871810939458,1.7965871810939458,1.2034128189060542,3.0,1,1.5465871810939458,0,4.0,3.0,1,2,1,0,1,0,0,4,4,3,,,,,,,187.83662737486884,187.83662737486884,188.851025957847,189.3842926248908,189.6177471659612,189.6177471659612,189.6177471659612,190.81779374997132,190.81779374997132,190.81779374997132,190.81779374997132,191.8169754159171,200004,003,2023-03-31_11h01.23.241,DMS_et_12-36,2022.2.4,None,
13,UNPRED,12,0.7965871810939458,0,images/picture_1.png,images/picture_1.png,0,"[-11.733433509789466, -11.733433509789462]",-11.733433509789464,-11.733433509789462,images/picture_2.png,1,"[11.733433509789464, 11.733433509789462]",11.733433509789464,11.733433509789462,images/picture_3.png,2,"[11.733433509789462, -11.733433509789466]",11.733433509789462,-11.733433509789464,0,1,1,0.7965871810939458,1.7965871810939458,1.2034128189060542,3.0,1,1.5465871810939458,0,4.0,3.0,1,2,1,0,1,0,0,5,5,4,,,,,,,191.8169754159171,191.8169754159171,192.8177058750298,193.36973570799455,193.6174132078886,193.6174132078886,193.6174132078886,194.81776004098356,194.81776004098356,194.81776004098356,194.81776004098356,195.8364109999966,200004,003,2023-03-31_11h01.23.241,DMS_et_12-36,2022.2.4,None,
10,UNPRED,12,0.7965871810939458,2,images/picture_3.png,images/picture_1.png,0,"[-11.733433509789462, 11.733433509789464]",-11.733433509789462,11.733433509789464,images/picture_2.png,1,"[11.733433509789464, 11.733433509789462]",11.733433509789464,11.733433509789462,images/picture_3.png,2,"[11.733433509789462, -11.733433509789466]",11.733433509789462,-11.733433509789464,0,1,1,0.7965871810939458,1.7965871810939458,1.2034128189060542,3.0,1,1.5465871810939458,0,4.0,3.0,1,2,1,0,1,0,0,6,6,1,,,,,,,195.8364109999966,195.8364109999966,196.851062374888,197.38429612503387,197.61774062504992,197.61774062504992,197.61774062504992,198.81757162488066,198.81757162488066,198.81757162488066,198.81757162488066,199.81717129098251,200004,003,2023-03-31_11h01.23.241,DMS_et_12-36,2022.2.4,None,
15,UNPRED,12,0.7965871810939458,0,images/picture_1.png,images/picture_1.png,0,"[-11.733433509789466, -11.733433509789462]",-11.733433509789464,-11.733433509789462,images/picture_2.png,1,"[11.733433509789464, 11.733433509789462]",11.733433509789464,11.733433509789462,images/picture_3.png,2,"[11.733433509789462, -11.733433509789466]",11.733433509789462,-11.733433509789464,0,1,1,0.7965871810939458,1.7965871810939458,1.2034128189060542,3.0,1,1.5465871810939458,0,4.0,3.0,1,2,1,0,1,0,0,7,7,6,,,,,,,199.81717129098251,199.81717129098251,200.81776866596192,201.37028829101473,201.6036755410023,201.6036755410023,201.6036755410023,202.81808599992655,202.81808599992655,202.81808599992655,202.81808599992655,203.81756683299318,200004,003,2023-03-31_11h01.23.241,DMS_et_12-36,2022.2.4,None,
9,UNPRED,12,0.7965871810939458,0,images/picture_1.png,images/picture_1.png,0,"[11.733433509789464, 11.733433509789462]",11.733433509789464,11.733433509789462,images/picture_2.png,1,"[11.733433509789462, -11.733433509789466]",11.733433509789462,-11.733433509789464,images/picture_3.png,2,"[-11.733433509789462, 11.733433509789464]",-11.733433509789462,11.733433509789464,0,1,1,0.7965871810939458,1.7965871810939458,1.2034128189060542,3.0,1,1.5465871810939458,0,4.0,3.0,1,2,1,0,1,0,0,8,8,0,,,,,,,203.81756683299318,203.81756683299318,204.81797729083337,205.370893541025,205.6038319999352,205.6038319999352,205.6038319999352,206.81802212493494,206.81802212493494,206.81802212493494,206.81802212493494,207.84926104103215,200004,003,2023-03-31_11h01.23.241,DMS_et_12-36,2022.2.4,None,
,,,,,,,,,,,,,,,,,,,,,,,,,,,,,,,,,,,1,0,1,0,,,,,,,,,207.84926104103215,219.8704095829744,,,,,,,,,,,,,200004,003,2023-03-31_11h01.23.241,DMS_et_12-36,2022.2.4,None,
20,PRED,12,0.7965871810939458,1,images/picture_2.png,images/picture_1.png,0,"[11.733433509789462, -11.733433509789466]",11.733433509789462,-11.733433509789464,images/picture_2.png,1,"[-11.733433509789466, -11.733433509789462]",-11.733433509789464,-11.733433509789462,images/picture_3.png,2,"[-11.733433509789462, 11.733433509789464]",-11.733433509789462,11.733433509789464,0,1,1,0.7965871810939458,1.7965871810939458,1.2034128189060542,3.0,1,1.5465871810939458,0,4.0,3.0,1,2,2,0,2,0,0,0,0,2,,,,,,,219.8704095829744,219.8704095829744,220.88457879098132,221.41802933299914,221.67069987487048,221.67069987487048,221.67069987487048,222.8847469999455,222.8847469999455,222.8847469999455,222.87066658283584,223.88431399990804,200004,003,2023-03-31_11h01.23.241,DMS_et_12-36,2022.2.4,None,
18,PRED,12,0.7965871810939458,1,images/picture_2.png,images/picture_1.png,0,"[-11.733433509789462, 11.733433509789464]",-11.733433509789462,11.733433509789464,images/picture_2.png,1,"[-11.733433509789466, -11.733433509789462]",-11.733433509789464,-11.733433509789462,images/picture_3.png,2,"[11.733433509789464, 11.733433509789462]",11.733433509789464,11.733433509789462,0,1,1,0.7965871810939458,1.7965871810939458,1.2034128189060542,3.0,1,1.5465871810939458,0,4.0,3.0,1,2,2,0,2,0,0,1,1,0,,,,,,,223.88431399990804,223.88431399990804,224.88473766599782,225.43739079101942,225.67140008299612,225.67140008299612,225.67140008299612,226.88477137498558,226.88477137498558,226.88477137498558,226.88477137498558,227.88410983304493,200004,003,2023-03-31_11h01.23.241,DMS_et_12-36,2022.2.4,None,
19,PRED,12,0.7965871810939458,1,images/picture_2.png,images/picture_1.png,0,"[-11.733433509789462, 11.733433509789464]",-11.733433509789462,11.733433509789464,images/picture_2.png,1,"[11.733433509789462, -11.733433509789466]",11.733433509789462,-11.733433509789464,images/picture_3.png,2,"[11.733433509789464, 11.733433509789462]",11.733433509789464,11.733433509789462,0,1,1,0.7965871810939458,1.7965871810939458,1.2034128189060542,3.0,1,1.5465871810939458,0,4.0,3.0,1,2,2,0,2,0,0,2,2,1,,,,,,,227.88410983304493,227.88410983304493,228.8845257498324,229.43744341586716,229.67059187497944,229.67059187497944,229.67059187497944,230.8847581250593,230.8847581250593,230.8847581250593,230.8847581250593,231.88404458295554,200004,003,2023-03-31_11h01.23.241,DMS_et_12-36,2022.2.4,None,
23,PRED,12,0.7965871810939458,1,images/picture_2.png,images/picture_1.png,0,"[-11.733433509789466, -11.733433509789462]",-11.733433509789464,-11.733433509789462,images/picture_2.png,1,"[11.733433509789462, -11.733433509789466]",11.733433509789462,-11.733433509789464,images/picture_3.png,2,"[-11.733433509789462, 11.733433509789464]",-11.733433509789462,11.733433509789464,0,1,1,0.7965871810939458,1.7965871810939458,1.2034128189060542,3.0,1,1.5465871810939458,0,4.0,3.0,1,2,2,0,2,0,0,3,3,5,,,,,,,231.88404458295554,231.88404458295554,232.88472516601905,233.4373309998773,233.67078845785,233.67078845785,233.67078845785,234.88446337496862,234.88446337496862,234.88446337496862,234.88446337496862,235.8840763750486,200004,003,2023-03-31_11h01.23.241,DMS_et_12-36,2022.2.4,None,
21,PRED,12,0.7965871810939458,1,images/picture_2.png,images/picture_1.png,0,"[-11.733433509789466, -11.733433509789462]",-11.733433509789464,-11.733433509789462,images/picture_2.png,1,"[-11.733433509789462, 11.733433509789464]",-11.733433509789462,11.733433509789464,images/picture_3.png,2,"[11.733433509789462, -11.733433509789466]",11.733433509789462,-11.733433509789464,0,1,1,0.7965871810939458,1.7965871810939458,1.2034128189060542,3.0,1,1.5465871810939458,0,4.0,3.0,1,2,2,0,2,0,0,4,4,3,,,,,,,235.8840763750486,235.8840763750486,236.88471674988978,237.43748583295383,237.67062387499027,237.67062387499027,237.67062387499027,238.88479216583073,238.88479216583073,238.88479216583073,238.88479216583073,239.88417808292434,200004,003,2023-03-31_11h01.23.241,DMS_et_12-36,2022.2.4,None,
24,PRED,12,0.7965871810939458,1,images/picture_2.png,images/picture_1.png,0,"[11.733433509789462, -11.733433509789466]",11.733433509789462,-11.733433509789464,images/picture_2.png,1,"[-11.733433509789462, 11.733433509789464]",-11.733433509789462,11.733433509789464,images/picture_3.png,2,"[11.733433509789464, 11.733433509789462]",11.733433509789464,11.733433509789462,0,1,1,0.7965871810939458,1.7965871810939458,1.2034128189060542,3.0,1,1.5465871810939458,0,4.0,3.0,1,2,2,0,2,0,0,5,5,6,,,,,,,239.88417808292434,239.88417808292434,240.88467337493785,241.43727554101497,241.6847538750153,241.6847538750153,241.6847538750153,242.88475099997595,242.88475099997595,242.88475099997595,242.88475099997595,243.88416637503542,200004,003,2023-03-31_11h01.23.241,DMS_et_12-36,2022.2.4,None,
22,PRED,12,0.7965871810939458,1,images/picture_2.png,images/picture_1.png,0,"[11.733433509789464, 11.733433509789462]",11.733433509789464,11.733433509789462,images/picture_2.png,1,"[11.733433509789462, -11.733433509789466]",11.733433509789462,-11.733433509789464,images/picture_3.png,2,"[-11.733433509789466, -11.733433509789462]",-11.733433509789464,-11.733433509789462,0,1,1,0.7965871810939458,1.7965871810939458,1.2034128189060542,3.0,1,1.5465871810939458,0,4.0,3.0,1,2,2,0,2,0,0,6,6,4,,,,,,,243.88416637503542,243.88416637503542,244.884706457844,245.43760187504813,245.68484700005502,245.68484700005502,245.68484700005502,246.88471250003204,246.88471250003204,246.88471250003204,246.88471250003204,247.88418399984948,200004,003,2023-03-31_11h01.23.241,DMS_et_12-36,2022.2.4,None,
26,PRED,12,0.7965871810939458,1,images/picture_2.png,images/picture_1.png,0,"[-11.733433509789466, -11.733433509789462]",-11.733433509789464,-11.733433509789462,images/picture_2.png,1,"[11.733433509789462, -11.733433509789466]",11.733433509789462,-11.733433509789464,images/picture_3.png,2,"[11.733433509789464, 11.733433509789462]",11.733433509789464,11.733433509789462,0,1,1,0.7965871810939458,1.7965871810939458,1.2034128189060542,3.0,1,1.5465871810939458,0,4.0,3.0,1,2,2,0,2,0,0,7,7,8,,,,,,,247.88418399984948,247.88418399984948,248.88474745792337,249.4373038748745,249.6706051249057,249.6706051249057,249.6706051249057,250.88477154099382,250.88477154099382,250.88477154099382,250.88477154099382,251.88414758304134,200004,003,2023-03-31_11h01.23.241,DMS_et_12-36,2022.2.4,None,
25,PRED,12,0.7965871810939458,1,images/picture_2.png,images/picture_1.png,0,"[11.733433509789464, 11.733433509789462]",11.733433509789464,11.733433509789462,images/picture_2.png,1,"[-11.733433509789462, 11.733433509789464]",-11.733433509789462,11.733433509789464,images/picture_3.png,2,"[-11.733433509789466, -11.733433509789462]",-11.733433509789464,-11.733433509789462,0,1,1,0.7965871810939458,1.7965871810939458,1.2034128189060542,3.0,1,1.5465871810939458,0,4.0,3.0,1,2,2,0,2,0,0,8,8,7,,,,,,,251.88414758304134,251.88414758304134,252.8848815409001,253.43748724996112,253.67055399995297,253.67055399995297,253.67055399995297,254.88434983300976,254.88434983300976,254.88434983300976,254.88434983300976,255.92851491598412,200004,003,2023-03-31_11h01.23.241,DMS_et_12-36,2022.2.4,None,
,,,,,,,,,,,,,,,,,,,,,,,,,,,,,,,,,,,2,0,2,0,,,,,,,,,255.92851491598412,267.9481645410415,,,,,,,,,,,,,200004,003,2023-03-31_11h01.23.241,DMS_et_12-36,2022.2.4,None,
27,UNPRED,12,0.7965871810939458,0,images/picture_1.png,images/picture_1.png,0,"[11.733433509789464, 11.733433509789462]",11.733433509789464,11.733433509789462,images/picture_2.png,1,"[-11.733433509789462, 11.733433509789464]",-11.733433509789462,11.733433509789464,images/picture_3.png,2,"[11.733433509789462, -11.733433509789466]",11.733433509789462,-11.733433509789464,0,1,1,0.7965871810939458,1.7965871810939458,1.2034128189060542,3.0,1,1.5465871810939458,0,4.0,3.0,1,2,3,0,3,0,0,0,0,0,,,,,,,267.9481645410415,267.9481645410415,268.9513085000217,269.50424150004983,269.75148829095997,269.75148829095997,269.75148829095997,270.95150162489153,270.95150162489153,270.95150162489153,270.95150162489153,271.97032920783386,200004,003,2023-03-31_11h01.23.241,DMS_et_12-36,2022.2.4,None,
30,UNPRED,12,0.7965871810939458,2,images/picture_3.png,images/picture_1.png,0,"[11.733433509789462, -11.733433509789466]",11.733433509789462,-11.733433509789464,images/picture_2.png,1,"[-11.733433509789462, 11.733433509789464]",-11.733433509789462,11.733433509789464,images/picture_3.png,2,"[-11.733433509789466, -11.733433509789462]",-11.733433509789464,-11.733433509789462,0,1,1,0.7965871810939458,1.7965871810939458,1.2034128189060542,3.0,1,1.5465871810939458,0,4.0,3.0,1,2,3,0,3,0,0,1,1,3,,,,,,,271.97032920783386,271.97032920783386,272.9847864578478,273.5180374160409,273.7515379579272,273.7515379579272,273.7515379579272,274.97023341595195,274.97023341595195,274.97023341595195,274.9511538329534,275.970200457843,200004,003,2023-03-31_11h01.23.241,DMS_et_12-36,2022.2.4,None,
28,UNPRED,12,0.7965871810939458,2,images/picture_3.png,images/picture_1.png,0,"[-11.733433509789466, -11.733433509789462]",-11.733433509789464,-11.733433509789462,images/picture_2.png,1,"[11.733433509789464, 11.733433509789462]",11.733433509789464,11.733433509789462,images/picture_3.png,2,"[-11.733433509789462, 11.733433509789464]",-11.733433509789462,11.733433509789464,0,1,1,0.7965871810939458,1.7965871810939458,1.2034128189060542,3.0,1,1.5465871810939458,0,4.0,3.0,1,2,3,0,3,0,0,2,2,1,,,,,,,275.970200457843,275.970200457843,276.9847966658417,277.518212582916,277.7511920828838,277.7511920828838,277.7511920828838,278.95153262489475,278.95153262489475,278.95153262489475,278.95153262489475,279.95096095791087,200004,003,2023-03-31_11h01.23.241,DMS_et_12-36,2022.2.4,None,
31,UNPRED,12,0.7965871810939458,0,images/picture_1.png,images/picture_1.png,0,"[11.733433509789464, 11.733433509789462]",11.733433509789464,11.733433509789462,images/picture_2.png,1,"[11.733433509789462, -11.733433509789466]",11.733433509789462,-11.733433509789464,images/picture_3.png,2,"[-11.733433509789462, 11.733433509789464]",-11.733433509789462,11.733433509789464,0,1,1,0.7965871810939458,1.7965871810939458,1.2034128189060542,3.0,1,1.5465871810939458,0,4.0,3.0,1,2,3,0,3,0,0,3,3,4,,,,,,,279.95096095791087,279.95096095791087,280.9514855828602,281.5040284160059,281.7376302499324,281.7376302499324,281.7376302499324,282.95171587495133,282.95171587495133,282.95171587495133,282.95171587495133,283.9703582909424,200004,003,2023-03-31_11h01.23.241,DMS_et_12-36,2022.2.4,None,
34,UNPRED,12,0.7965871810939458,2,images/picture_3.png,images/picture_1.png,0,"[-11.733433509789462, 11.733433509789464]",-11.733433509789462,11.733433509789464,images/picture_2.png,1,"[-11.733433509789466, -11.733433509789462]",-11.733433509789464,-11.733433509789462,images/picture_3.png,2,"[11.733433509789464, 11.733433509789462]",11.733433509789464,11.733433509789462,0,1,1,0.7965871810939458,1.7965871810939458,1.2034128189060542,3.0,1,1.5465871810939458,0,4.0,3.0,1,2,3,0,3,0,0,4,4,7,,,,,,,283.9703582909424,283.9703582909424,284.98461266583763,285.51798520796,285.75123037490994,285.75123037490994,285.75123037490994,286.9515194159467,286.9515194159467,286.9515194159467,286.9515194159467,287.9512107910123,200004,003,2023-03-31_11h01.23.241,DMS_et_12-36,2022.2.4,None,
29,UNPRED,12,0.7965871810939458,0,images/picture_1.png,images/picture_1.png,0,"[-11.733433509789462, 11.733433509789464]",-11.733433509789462,11.733433509789464,images/picture_2.png,1,"[11.733433509789464, 11.733433509789462]",11.733433509789464,11.733433509789462,images/picture_3.png,2,"[-11.733433509789466, -11.733433509789462]",-11.733433509789464,-11.733433509789462,0,1,1,0.7965871810939458,1.7965871810939458,1.2034128189060542,3.0,1,1.5465871810939458,0,4.0,3.0,1,2,3,0,3,0,0,5,5,2,,,,,,,287.9512107910123,287.9512107910123,288.9514779159799,289.50412670802325,289.7512661248911,289.7512661248911,289.7512661248911,290.9516060829628,290.9516060829628,290.9516060829628,290.9516060829628,291.95093529089354,200004,003,2023-03-31_11h01.23.241,DMS_et_12-36,2022.2.4,None,
33,UNPRED,12,0.7965871810939458,1,images/picture_2.png,images/picture_1.png,0,"[11.733433509789464, 11.733433509789462]",11.733433509789464,11.733433509789462,images/picture_2.png,1,"[11.733433509789462, -11.733433509789466]",11.733433509789462,-11.733433509789464,images/picture_3.png,2,"[-11.733433509789462, 11.733433509789464]",-11.733433509789462,11.733433509789464,0,1,1,0.7965871810939458,1.7965871810939458,1.2034128189060542,3.0,1,1.5465871810939458,0,4.0,3.0,1,2,3,0,3,0,0,6,6,6,,,,,,,291.95093529089354,291.95093529089354,292.95148358284496,293.50411120802164,293.75150608294643,293.75150608294643,293.75150608294643,294.95147429103963,294.95147429103963,294.95147429103963,294.95147429103963,295.9703430000227,200004,003,2023-03-31_11h01.23.241,DMS_et_12-36,2022.2.4,None,
32,UNPRED,12,0.7965871810939458,2,images/picture_3.png,images/picture_1.png,0,"[-11.733433509789462, 11.733433509789464]",-11.733433509789462,11.733433509789464,images/picture_2.png,1,"[11.733433509789462, -11.733433509789466]",11.733433509789462,-11.733433509789464,images/picture_3.png,2,"[11.733433509789464, 11.733433509789462]",11.733433509789464,11.733433509789462,0,1,1,0.7965871810939458,1.7965871810939458,1.2034128189060542,3.0,1,1.5465871810939458,0,4.0,3.0,1,2,3,0,3,0,0,7,7,5,,,,,,,295.9703430000227,295.9703430000227,296.98477812483907,297.5182541250251,297.73748574987985,297.73748574987985,297.73748574987985,298.9516297909431,298.9516297909431,298.9516297909431,298.9516297909431,299.95091233286075,200004,003,2023-03-31_11h01.23.241,DMS_et_12-36,2022.2.4,None,
35,UNPRED,12,0.7965871810939458,0,images/picture_1.png,images/picture_1.png,0,"[11.733433509789462, -11.733433509789466]",11.733433509789462,-11.733433509789464,images/picture_2.png,1,"[11.733433509789464, 11.733433509789462]",11.733433509789464,11.733433509789462,images/picture_3.png,2,"[-11.733433509789466, -11.733433509789462]",-11.733433509789464,-11.733433509789462,0,1,1,0.7965871810939458,1.7965871810939458,1.2034128189060542,3.0,1,1.5465871810939458,0,4.0,3.0,1,2,3,0,3,0,0,8,8,8,,,,,,,299.95091233286075,299.95091233286075,300.9515262078494,301.5042458330281,301.75127999996766,301.75127999996766,301.75127999996766,302.9515356658958,302.9515356658958,302.9515356658958,302.9515356658958,304.00687145791017,200004,003,2023-03-31_11h01.23.241,DMS_et_12-36,2022.2.4,None,
,,,,,,,,,,,,,,,,,,,,,,,,,,,,,,,,,,,3,0,3,0,,,,,,,,,304.00687145791017,316.03694991604425,,,,,,,,,,,,,200004,003,2023-03-31_11h01.23.241,DMS_et_12-36,2022.2.4,None,
37,PRED,12,0.7965871810939458,2,images/picture_3.png,images/picture_1.png,0,"[-11.733433509789462, 11.733433509789464]",-11.733433509789462,11.733433509789464,images/picture_2.png,1,"[11.733433509789462, -11.733433509789466]",11.733433509789462,-11.733433509789464,images/picture_3.png,2,"[11.733433509789464, 11.733433509789462]",11.733433509789464,11.733433509789462,0,1,1,0.7965871810939458,1.7965871810939458,1.2034128189060542,3.0,1,1.5465871810939458,0,4.0,3.0,1,2,4,0,4,0,0,0,0,1,,,,,,,316.03694991604425,316.03694991604425,317.0513672910165,317.5848217080347,317.8182320408523,317.8182320408523,317.8182320408523,319.0182192500215,319.0182192500215,319.0182192500215,319.0182192500215,320.0369011249859,200004,003,2023-03-31_11h01.23.241,DMS_et_12-36,2022.2.4,None,
43,PRED,12,0.7965871810939458,2,images/picture_3.png,images/picture_1.png,0,"[11.733433509789464, 11.733433509789462]",11.733433509789464,11.733433509789462,images/picture_2.png,1,"[-11.733433509789466, -11.733433509789462]",-11.733433509789464,-11.733433509789462,images/picture_3.png,2,"[-11.733433509789462, 11.733433509789464]",-11.733433509789462,11.733433509789464,0,1,1,0.7965871810939458,1.7965871810939458,1.2034128189060542,3.0,1,1.5465871810939458,0,4.0,3.0,1,2,4,0,4,0,0,1,1,7,,,,,,,320.0369011249859,320.0369011249859,321.05156133300625,321.584989707917,321.81821370800026,321.81821370800026,321.81821370800026,323.01834345795214,323.01834345795214,323.01834345795214,323.01834345795214,324.03767062490806,200004,003,2023-03-31_11h01.23.241,DMS_et_12-36,2022.2.4,None,
42,PRED,12,0.7965871810939458,2,images/picture_3.png,images/picture_1.png,0,"[-11.733433509789462, 11.733433509789464]",-11.733433509789462,11.733433509789464,images/picture_2.png,1,"[-11.733433509789466, -11.733433509789462]",-11.733433509789464,-11.733433509789462,images/picture_3.png,2,"[11.733433509789464, 11.733433509789462]",11.733433509789464,11.733433509789462,0,1,1,0.7965871810939458,1.7965871810939458,1.2034128189060542,3.0,1,1.5465871810939458,0,4.0,3.0,1,2,4,0,4,0,0,2,2,6,,,,,,,324.03767062490806,324.03767062490806,325.0515549578704,325.584955124883,325.81826670793816,325.81826670793816,325.81826670793816,327.0369841658976,327.0369841658976,327.0369841658976,327.01803662488237,328.03691054088995,200004,003,2023-03-31_11h01.23.241,DMS_et_12-36,2022.2.4,None,
36,PRED,12,0.7965871810939458,2,images/picture_3.png,images/picture_1.png,0,"[11.733433509789462, -11.733433509789466]",11.733433509789462,-11.733433509789464,images/picture_2.png,1,"[-11.733433509789466, -11.733433509789462]",-11.733433509789464,-11.733433509789462,images/picture_3.png,2,"[11.733433509789464, 11.733433509789462]",11.733433509789464,11.733433509789462,0,1,1,0.7965871810939458,1.7965871810939458,1.2034128189060542,3.0,1,1.5465871810939458,0,4.0,3.0,1,2,4,0,4,0,0,3,3,0,,,,,,,328.03691054088995,328.03691054088995,329.05156354093924,329.5847949159797,329.8183099159505,329.8183099159505,329.8183099159505,331.01823541591875,331.01823541591875,331.01823541591875,331.01823541591875,332.0370061248541,200004,003,2023-03-31_11h01.23.241,DMS_et_12-36,2022.2.4,None,
41,PRED,12,0.7965871810939458,2,images/picture_3.png,images/picture_1.png,0,"[-11.733433509789462, 11.733433509789464]",-11.733433509789462,11.733433509789464,images/picture_2.png,1,"[11.733433509789464, 11.733433509789462]",11.733433509789464,11.733433509789462,images/picture_3.png,2,"[-11.733433509789466, -11.733433509789462]",-11.733433509789464,-11.733433509789462,0,1,1,0.7965871810939458,1.7965871810939458,1.2034128189060542,3.0,1,1.5465871810939458,0,4.0,3.0,1,2,4,0,4,0,0,4,4,5,,,,,,,332.0370061248541,332.0370061248541,333.05160974990577,333.58502008300275,333.804195625009,333.804195625009,333.804195625009,335.01825808291323,335.01825808291323,335.01825808291323,335.01825808291323,336.0370300828945,200004,003,2023-03-31_11h01.23.241,DMS_et_12-36,2022.2.4,None,
40,PRED,12,0.7965871810939458,2,images/picture_3.png,images/picture_1.png,0,"[11.733433509789462, -11.733433509789466]",11.733433509789462,-11.733433509789464,images/picture_2.png,1,"[-11.733433509789462, 11.733433509789464]",-11.733433509789462,11.733433509789464,images/picture_3.png,2,"[-11.733433509789466, -11.733433509789462]",-11.733433509789464,-11.733433509789462,0,1,1,0.7965871810939458,1.7965871810939458,1.2034128189060542,3.0,1,1.5465871810939458,0,4.0,3.0,1,2,4,0,4,0,0,5,5,4,,,,,,,336.0370300828945,336.0370300828945,337.05127137503587,337.5850693329703,337.81827541603707,337.81827541603707,337.81827541603707,339.01828620792367,339.01828620792367,339.01828620792367,339.01828620792367,340.0181406249758,200004,003,2023-03-31_11h01.23.241,DMS_et_12-36,2022.2.4,None,
44,PRED,12,0.7965871810939458,2,images/picture_3.png,images/picture_1.png,0,"[11.733433509789464, 11.733433509789462]",11.733433509789464,11.733433509789462,images/picture_2.png,1,"[-11.733433509789466, -11.733433509789462]",-11.733433509789464,-11.733433509789462,images/picture_3.png,2,"[11.733433509789462, -11.733433509789466]",11.733433509789462,-11.733433509789464,0,1,1,0.7965871810939458,1.7965871810939458,1.2034128189060542,3.0,1,1.5465871810939458,0,4.0,3.0,1,2,4,0,4,0,0,6,6,8,,,,,,,340.0181406249758,340.0181406249758,341.0182525408454,341.57097291597165,341.8044144578744,341.8044144578744,341.8044144578744,343.01832699985243,343.01832699985243,343.01832699985243,343.01832699985243,344.0370498748962,200004,003,2023-03-31_11h01.23.241,DMS_et_12-36,2022.2.4,None,
38,PRED,12,0.7965871810939458,2,images/picture_3.png,images/picture_1.png,0,"[11.733433509789462, -11.733433509789466]",11.733433509789462,-11.733433509789464,images/picture_2.png,1,"[11.733433509789464, 11.733433509789462]",11.733433509789464,11.733433509789462,images/picture_3.png,2,"[-11.733433509789466, -11.733433509789462]",-11.733433509789464,-11.733433509789462,0,1,1,0.7965871810939458,1.7965871810939458,1.2034128189060542,3.0,1,1.5465871810939458,0,4.0,3.0,1,2,4,0,4,0,0,7,7,2,,,,,,,344.0370498748962,344.0370498748962,345.0515397498384,345.58516554092057,345.80424004094675,345.80424004094675,345.80424004094675,347.01809799997136,347.01809799997136,347.01809799997136,347.01809799997136,348.0375865409151,200004,003,2023-03-31_11h01.23.241,DMS_et_12-36,2022.2.4,None,
39,PRED,12,0.7965871810939458,2,images/picture_3.png,images/picture_1.png,0,"[11.733433509789462, -11.733433509789466]",11.733433509789462,-11.733433509789464,images/picture_2.png,1,"[-11.733433509789462, 11.733433509789464]",-11.733433509789462,11.733433509789464,images/picture_3.png,2,"[-11.733433509789466, -11.733433509789462]",-11.733433509789464,-11.733433509789462,0,1,1,0.7965871810939458,1.7965871810939458,1.2034128189060542,3.0,1,1.5465871810939458,0,4.0,3.0,1,2,4,0,4,0,0,8,8,3,,,,,,,348.0375865409151,348.0375865409151,349.0515563748777,349.58495791605674,349.8182998748962,349.8182998748962,349.8182998748962,351.037498582853,351.037498582853,351.037498582853,351.01830533286557,352.07774450001307,200004,003,2023-03-31_11h01.23.241,DMS_et_12-36,2022.2.4,None,
,,,,,,,,,,,,,,,,,,,,,,,,,,,,,,,,,,,4,0,4,0,,,,,,,,,352.07774450001307,364.1180391658563,,,,,,,,,,,,,200004,003,2023-03-31_11h01.23.241,DMS_et_12-36,2022.2.4,None,
48,UNPRED,12,0.7965871810939458,0,images/picture_1.png,images/picture_1.png,0,"[11.733433509789464, 11.733433509789462]",11.733433509789464,11.733433509789462,images/picture_2.png,1,"[11.733433509789462, -11.733433509789466]",11.733433509789462,-11.733433509789464,images/picture_3.png,2,"[-11.733433509789466, -11.733433509789462]",-11.733433509789464,-11.733433509789462,0,1,1,0.7965871810939458,1.7965871810939458,1.2034128189060542,3.0,1,1.5465871810939458,0,4.0,3.0,1,2,5,0,5,0,0,0,0,3,,,,,,,364.1180391658563,364.1180391658563,365.1182835828513,365.6710735829547,365.90455024992116,365.90455024992116,365.90455024992116,367.1180733330548,367.1180733330548,367.1180733330548,367.10422412492335,368.1180668750312,200004,003,2023-03-31_11h01.23.241,DMS_et_12-36,2022.2.4,None,
53,UNPRED,12,0.7965871810939458,1,images/picture_2.png,images/picture_1.png,0,"[11.733433509789462, -11.733433509789466]",11.733433509789462,-11.733433509789464,images/picture_2.png,1,"[-11.733433509789462, 11.733433509789464]",-11.733433509789462,11.733433509789464,images/picture_3.png,2,"[11.733433509789464, 11.733433509789462]",11.733433509789464,11.733433509789462,0,1,1,0.7965871810939458,1.7965871810939458,1.2034128189060542,3.0,1,1.5465871810939458,0,4.0,3.0,1,2,5,0,5,0,0,1,1,8,,,,,,,368.1180668750312,368.1180668750312,369.11830941587687,369.6709275408648,369.90438720793463,369.90438720793463,369.90438720793463,371.1183271659538,371.1183271659538,371.1183271659538,371.1183271659538,372.11801499989815,200004,003,2023-03-31_11h01.23.241,DMS_et_12-36,2022.2.4,None,
52,UNPRED,12,0.7965871810939458,1,images/picture_2.png,images/picture_1.png,0,"[-11.733433509789466, -11.733433509789462]",-11.733433509789464,-11.733433509789462,images/picture_2.png,1,"[11.733433509789462, -11.733433509789466]",11.733433509789462,-11.733433509789464,images/picture_3.png,2,"[-11.733433509789462, 11.733433509789464]",-11.733433509789462,11.733433509789464,0,1,1,0.7965871810939458,1.7965871810939458,1.2034128189060542,3.0,1,1.5465871810939458,0,4.0,3.0,1,2,5,0,5,0,0,2,2,7,,,,,,,372.11801499989815,372.11801499989815,373.1182942078449,373.67107729101554,373.90422404091805,373.90422404091805,373.90422404091805,375.11831541592255,375.11831541592255,375.11831541592255,375.11831541592255,376.11827191594057,200004,003,2023-03-31_11h01.23.241,DMS_et_12-36,2022.2.4,None,
49,UNPRED,12,0.7965871810939458,1,images/picture_2.png,images/picture_1.png,0,"[11.733433509789462, -11.733433509789466]",11.733433509789462,-11.733433509789464,images/picture_2.png,1,"[11.733433509789464, 11.733433509789462]",11.733433509789464,11.733433509789462,images/picture_3.png,2,"[-11.733433509789462, 11.733433509789464]",-11.733433509789462,11.733433509789464,0,1,1,0.7965871810939458,1.7965871810939458,1.2034128189060542,3.0,1,1.5465871810939458,0,4.0,3.0,1,2,5,0,5,0,0,3,3,4,,,,,,,376.11827191594057,376.11827191594057,377.11853933287784,377.67046183301136,377.9181898748502,377.9181898748502,377.9181898748502,379.1184760830365,379.1184760830365,379.1184760830365,379.1184760830365,380.1171094579622,200004,003,2023-03-31_11h01.23.241,DMS_et_12-36,2022.2.4,None,
51,UNPRED,12,0.7965871810939458,0,images/picture_1.png,images/picture_1.png,0,"[-11.733433509789466, -11.733433509789462]",-11.733433509789464,-11.733433509789462,images/picture_2.png,1,"[11.733433509789464, 11.733433509789462]",11.733433509789464,11.733433509789462,images/picture_3.png,2,"[-11.733433509789462, 11.733433509789464]",-11.733433509789462,11.733433509789464,0,1,1,0.7965871810939458,1.7965871810939458,1.2034128189060542,3.0,1,1.5465871810939458,0,4.0,3.0,1,2,5,0,5,0,0,4,4,6,,,,,,,380.1171094579622,380.1171094579622,381.11827095784247,381.6708574160002,381.91832320787944,381.91832320787944,381.91832320787944,383.1185154998675,383.1185154998675,383.1185154998675,383.1185154998675,384.11793687497266,200004,003,2023-03-31_11h01.23.241,DMS_et_12-36,2022.2.4,None,
50,UNPRED,12,0.7965871810939458,0,images/picture_1.png,images/picture_1.png,0,"[-11.733433509789466, -11.733433509789462]",-11.733433509789464,-11.733433509789462,images/picture_2.png,1,"[-11.733433509789462, 11.733433509789464]",-11.733433509789462,11.733433509789464,images/picture_3.png,2,"[11.733433509789464, 11.733433509789462]",11.733433509789464,11.733433509789462,0,1,1,0.7965871810939458,1.7965871810939458,1.2034128189060542,3.0,1,1.5465871810939458,0,4.0,3.0,1,2,5,0,5,0,0,5,5,5,,,,,,,384.11793687497266,384.11793687497266,385.1184600829147,385.67103041592054,385.9183912910521,385.9183912910521,385.9183912910521,387.11837187502533,387.11837187502533,387.11837187502533,387.11837187502533,388.13736124988645,200004,003,2023-03-31_11h01.23.241,DMS_et_12-36,2022.2.4,None,
45,UNPRED,12,0.7965871810939458,2,images/picture_3.png,images/picture_1.png,0,"[11.733433509789464, 11.733433509789462]",11.733433509789464,11.733433509789462,images/picture_2.png,1,"[11.733433509789462, -11.733433509789466]",11.733433509789462,-11.733433509789464,images/picture_3.png,2,"[-11.733433509789462, 11.733433509789464]",-11.733433509789462,11.733433509789464,0,1,1,0.7965871810939458,1.7965871810939458,1.2034128189060542,3.0,1,1.5465871810939458,0,4.0,3.0,1,2,5,0,5,0,0,6,6,0,,,,,,,388.13736124988645,388.13736124988645,389.1517594580073,389.68501883302815,389.9043739999179,389.9043739999179,389.9043739999179,391.11849024984986,391.11849024984986,391.11849024984986,391.11849024984986,392.1183589580469,200004,003,2023-03-31_11h01.23.241,DMS_et_12-36,2022.2.4,None,
47,UNPRED,12,0.7965871810939458,0,images/picture_1.png,images/picture_1.png,0,"[11.733433509789464, 11.733433509789462]",11.733433509789464,11.733433509789462,images/picture_2.png,1,"[11.733433509789462, -11.733433509789466]",11.733433509789462,-11.733433509789464,images/picture_3.png,2,"[-11.733433509789466, -11.733433509789462]",-11.733433509789464,-11.733433509789462,0,1,1,0.7965871810939458,1.7965871810939458,1.2034128189060542,3.0,1,1.5465871810939458,0,4.0,3.0,1,2,5,0,5,0,0,7,7,2,,,,,,,392.1183589580469,392.1183589580469,393.11851491592824,393.6711093329359,393.9184728330001,393.9184728330001,393.9184728330001,395.118309665937,395.118309665937,395.118309665937,395.118309665937,396.1180109998677,200004,003,2023-03-31_11h01.23.241,DMS_et_12-36,2022.2.4,None,
46,UNPRED,12,0.7965871810939458,0,images/picture_1.png,images/picture_1.png,0,"[11.733433509789464, 11.733433509789462]",11.733433509789464,11.733433509789462,images/picture_2.png,1,"[-11.733433509789466, -11.733433509789462]",-11.733433509789464,-11.733433509789462,images/picture_3.png,2,"[-11.733433509789462, 11.733433509789464]",-11.733433509789462,11.733433509789464,0,1,1,0.7965871810939458,1.7965871810939458,1.2034128189060542,3.0,1,1.5465871810939458,0,4.0,3.0,1,2,5,0,5,0,0,8,8,1,,,,,,,396.1180109998677,396.1180109998677,397.1184758329764,397.6710203329567,397.9184609998483,397.9184609998483,397.9184609998483,399.1374390828423,399.1374390828423,399.1374390828423,399.11802083300427,400.23812858294696,200004,003,2023-03-31_11h01.23.241,DMS_et_12-36,2022.2.4,None,
,,,,,,,,,,,,,,,,,,,,,,,,,,,,,,,,,,,5,0,5,0,,,,,,,,,400.23812858294696,412.2711004158482,,,,,,,,,,,,,200004,003,2023-03-31_11h01.23.241,DMS_et_12-36,2022.2.4,None,
57,PRED,12,0.7965871810939458,0,images/picture_1.png,images/picture_1.png,0,"[11.733433509789462, -11.733433509789466]",11.733433509789462,-11.733433509789464,images/picture_2.png,1,"[-11.733433509789466, -11.733433509789462]",-11.733433509789464,-11.733433509789462,images/picture_3.png,2,"[-11.733433509789462, 11.733433509789464]",-11.733433509789462,11.733433509789464,0,1,1,0.7965871810939458,1.7965871810939458,1.2034128189060542,3.0,1,1.5465871810939458,0,4.0,3.0,1,2,6,0,6,0,0,0,0,3,,,,,,,412.2711004158482,412.2711004158482,413.2847887908574,413.8182581658475,414.0707129999064,414.0707129999064,414.0707129999064,415.284781208029,415.284781208029,415.284781208029,415.2708617078606,416.28425533301197,200004,003,2023-03-31_11h01.23.241,DMS_et_12-36,2022.2.4,None,
61,PRED,12,0.7965871810939458,0,images/picture_1.png,images/picture_1.png,0,"[11.733433509789462, -11.733433509789466]",11.733433509789462,-11.733433509789464,images/picture_2.png,1,"[-11.733433509789462, 11.733433509789464]",-11.733433509789462,11.733433509789464,images/picture_3.png,2,"[-11.733433509789466, -11.733433509789462]",-11.733433509789464,-11.733433509789462,0,1,1,0.7965871810939458,1.7965871810939458,1.2034128189060542,3.0,1,1.5465871810939458,0,4.0,3.0,1,2,6,0,6,0,0,1,1,7,,,,,,,416.28425533301197,416.28425533301197,417.2848423330579,417.83734079101123,418.0849648329895,418.0849648329895,418.0849648329895,419.3035656658467,419.3035656658467,419.3035656658467,419.28463529096916,420.2845985000022,200004,003,2023-03-31_11h01.23.241,DMS_et_12-36,2022.2.4,None,
62,PRED,12,0.7965871810939458,0,images/picture_1.png,images/picture_1.png,0,"[11.733433509789464, 11.733433509789462]",11.733433509789464,11.733433509789462,images/picture_2.png,1,"[11.733433509789462, -11.733433509789466]",11.733433509789462,-11.733433509789464,images/picture_3.png,2,"[-11.733433509789466, -11.733433509789462]",-11.733433509789464,-11.733433509789462,0,1,1,0.7965871810939458,1.7965871810939458,1.2034128189060542,3.0,1,1.5465871810939458,0,4.0,3.0,1,2,6,0,6,0,0,2,2,8,,,,,,,420.2845985000022,420.2845985000022,421.284806041047,421.8377130830195,422.08477870794013,422.08477870794013,422.08477870794013,423.2848443328403,423.2848443328403,423.2848443328403,423.2848443328403,424.2846375410445,200004,003,2023-03-31_11h01.23.241,DMS_et_12-36,2022.2.4,None,
55,PRED,12,0.7965871810939458,0,images/picture_1.png,images/picture_1.png,0,"[11.733433509789462, -11.733433509789466]",11.733433509789462,-11.733433509789464,images/picture_2.png,1,"[-11.733433509789466, -11.733433509789462]",-11.733433509789464,-11.733433509789462,images/picture_3.png,2,"[-11.733433509789462, 11.733433509789464]",-11.733433509789462,11.733433509789464,0,1,1,0.7965871810939458,1.7965871810939458,1.2034128189060542,3.0,1,1.5465871810939458,0,4.0,3.0,1,2,6,0,6,0,0,3,3,1,,,,,,,424.2846375410445,424.2846375410445,425.2847845000215,425.83744458295405,426.0708492079284,426.0708492079284,426.0708492079284,427.2849920829758,427.2849920829758,427.2849920829758,427.2849920829758,428.28456262499094,200004,003,2023-03-31_11h01.23.241,DMS_et_12-36,2022.2.4,None,
59,PRED,12,0.7965871810939458,0,images/picture_1.png,images/picture_1.png,0,"[-11.733433509789466, -11.733433509789462]",-11.733433509789464,-11.733433509789462,images/picture_2.png,1,"[11.733433509789464, 11.733433509789462]",11.733433509789464,11.733433509789462,images/picture_3.png,2,"[11.733433509789462, -11.733433509789466]",11.733433509789462,-11.733433509789464,0,1,1,0.7965871810939458,1.7965871810939458,1.2034128189060542,3.0,1,1.5465871810939458,0,4.0,3.0,1,2,6,0,6,0,0,4,4,5,,,,,,,428.28456262499094,428.28456262499094,429.2845635828562,429.837271832861,430.0849927908275,430.0849927908275,430.0849927908275,431.2849889160134,431.2849889160134,431.2849889160134,431.2849889160134,432.28460108302534,200004,003,2023-03-31_11h01.23.241,DMS_et_12-36,2022.2.4,None,
56,PRED,12,0.7965871810939458,0,images/picture_1.png,images/picture_1.png,0,"[11.733433509789462, -11.733433509789466]",11.733433509789462,-11.733433509789464,images/picture_2.png,1,"[-11.733433509789466, -11.733433509789462]",-11.733433509789464,-11.733433509789462,images/picture_3.png,2,"[11.733433509789464, 11.733433509789462]",11.733433509789464,11.733433509789462,0,1,1,0.7965871810939458,1.7965871810939458,1.2034128189060542,3.0,1,1.5465871810939458,0,4.0,3.0,1,2,6,0,6,0,0,5,5,2,,,,,,,432.28460108302534,432.28460108302534,433.2847664998844,433.83766491594724,434.0849679580424,434.0849679580424,434.0849679580424,435.28499295795336,435.28499295795336,435.28499295795336,435.28499295795336,436.28458879096434,200004,003,2023-03-31_11h01.23.241,DMS_et_12-36,2022.2.4,None,
54,PRED,12,0.7965871810939458,0,images/picture_1.png,images/picture_1.png,0,"[11.733433509789464, 11.733433509789462]",11.733433509789464,11.733433509789462,images/picture_2.png,1,"[-11.733433509789462, 11.733433509789464]",-11.733433509789462,11.733433509789464,images/picture_3.png,2,"[-11.733433509789466, -11.733433509789462]",-11.733433509789464,-11.733433509789462,0,1,1,0.7965871810939458,1.7965871810939458,1.2034128189060542,3.0,1,1.5465871810939458,0,4.0,3.0,1,2,6,0,6,0,0,6,6,0,,,,,,,436.28458879096434,436.28458879096434,437.28503162483685,437.83746750000864,438.0710632079281,438.0710632079281,438.0710632079281,439.2846016250551,439.2846016250551,439.2846016250551,439.2846016250551,440.2843487909995,200004,003,2023-03-31_11h01.23.241,DMS_et_12-36,2022.2.4,None,
58,PRED,12,0.7965871810939458,0,images/picture_1.png,images/picture_1.png,0,"[-11.733433509789466, -11.733433509789462]",-11.733433509789464,-11.733433509789462,images/picture_2.png,1,"[-11.733433509789462, 11.733433509789464]",-11.733433509789462,11.733433509789464,images/picture_3.png,2,"[11.733433509789464, 11.733433509789462]",11.733433509789464,11.733433509789462,0,1,1,0.7965871810939458,1.7965871810939458,1.2034128189060542,3.0,1,1.5465871810939458,0,4.0,3.0,1,2,6,0,6,0,0,7,7,4,,,,,,,440.2843487909995,440.2843487909995,441.2848104578443,441.8375520410482,442.0849581249058,442.0849581249058,442.0849581249058,443.28497637505643,443.28497637505643,443.28497637505643,443.28497637505643,444.28458345797844,200004,003,2023-03-31_11h01.23.241,DMS_et_12-36,2022.2.4,None,
60,PRED,12,0.7965871810939458,0,images/picture_1.png,images/picture_1.png,0,"[-11.733433509789462, 11.733433509789464]",-11.733433509789462,11.733433509789464,images/picture_2.png,1,"[11.733433509789464, 11.733433509789462]",11.733433509789464,11.733433509789462,images/picture_3.png,2,"[-11.733433509789466, -11.733433509789462]",-11.733433509789464,-11.733433509789462,0,1,1,0.7965871810939458,1.7965871810939458,1.2034128189060542,3.0,1,1.5465871810939458,0,4.0,3.0,1,2,6,0,6,0,0,8,8,6,,,,,,,444.28458345797844,444.28458345797844,445.2848121658899,445.83756920788437,446.07113229087554,446.07113229087554,446.07113229087554,447.2850482498761,447.2850482498761,447.2850482498761,447.2850482498761,448.36268933303654,200004,003,2023-03-31_11h01.23.241,DMS_et_12-36,2022.2.4,None,
,,,,,,,,,,,,,,,,,,,,,,,,,,,,,,,,,,,6,0,6,0,,,,,,,,,448.36268933303654,460.37321245786734,,,,,,,,,,,,,200004,003,2023-03-31_11h01.23.241,DMS_et_12-36,2022.2.4,None,
68,UNPRED,12,0.7965871810939458,0,images/picture_1.png,images/picture_1.png,0,"[11.733433509789462, -11.733433509789466]",11.733433509789462,-11.733433509789464,images/picture_2.png,1,"[-11.733433509789462, 11.733433509789464]",-11.733433509789462,11.733433509789464,images/picture_3.png,2,"[11.733433509789464, 11.733433509789462]",11.733433509789464,11.733433509789462,0,1,1,0.7965871810939458,1.7965871810939458,1.2034128189060542,3.0,1,1.5465871810939458,0,4.0,3.0,1,2,7,0,7,0,0,0,0,5,,,,,,,460.37321245786734,460.37321245786734,461.38480304088444,461.9182527498342,462.17116466583684,462.17116466583684,462.17116466583684,463.38481245795265,463.38481245795265,463.38481245795265,463.37101291585714,464.38417791598476,200004,003,2023-03-31_11h01.23.241,DMS_et_12-36,2022.2.4,None,
64,UNPRED,12,0.7965871810939458,1,images/picture_2.png,images/picture_1.png,0,"[-11.733433509789462, 11.733433509789464]",-11.733433509789462,11.733433509789464,images/picture_2.png,1,"[11.733433509789462, -11.733433509789466]",11.733433509789462,-11.733433509789464,images/picture_3.png,2,"[-11.733433509789466, -11.733433509789462]",-11.733433509789464,-11.733433509789462,0,1,1,0.7965871810939458,1.7965871810939458,1.2034128189060542,3.0,1,1.5465871810939458,0,4.0,3.0,1,2,7,0,7,0,0,1,1,1,,,,,,,464.38417791598476,464.38417791598476,465.3850120829884,465.93743583303876,466.1848462498747,466.1848462498747,466.1848462498747,467.38504633284174,467.38504633284174,467.38504633284174,467.38504633284174,468.38454283284955,200004,003,2023-03-31_11h01.23.241,DMS_et_12-36,2022.2.4,None,
71,UNPRED,12,0.7965871810939458,1,images/picture_2.png,images/picture_1.png,0,"[-11.733433509789462, 11.733433509789464]",-11.733433509789462,11.733433509789464,images/picture_2.png,1,"[11.733433509789462, -11.733433509789466]",11.733433509789462,-11.733433509789464,images/picture_3.png,2,"[-11.733433509789466, -11.733433509789462]",-11.733433509789464,-11.733433509789462,0,1,1,0.7965871810939458,1.7965871810939458,1.2034128189060542,3.0,1,1.5465871810939458,0,4.0,3.0,1,2,7,0,7,0,0,2,2,8,,,,,,,468.38454283284955,468.38454283284955,469.38500983291306,469.93690358288586,470.17030945792794,470.17030945792794,470.17030945792794,471.38501395797357,471.38501395797357,471.38501395797357,471.38501395797357,472.38433287502266,200004,003,2023-03-31_11h01.23.241,DMS_et_12-36,2022.2.4,None,
67,UNPRED,12,0.7965871810939458,1,images/picture_2.png,images/picture_1.png,0,"[-11.733433509789466, -11.733433509789462]",-11.733433509789464,-11.733433509789462,images/picture_2.png,1,"[-11.733433509789462, 11.733433509789464]",-11.733433509789462,11.733433509789464,images/picture_3.png,2,"[11.733433509789462, -11.733433509789466]",11.733433509789462,-11.733433509789464,0,1,1,0.7965871810939458,1.7965871810939458,1.2034128189060542,3.0,1,1.5465871810939458,0,4.0,3.0,1,2,7,0,7,0,0,3,3,4,,,,,,,472.38433287502266,472.38433287502266,473.38499362487346,473.9372938750312,474.1850107079372,474.1850107079372,474.1850107079372,475.3848737080116,475.3848737080116,475.3848737080116,475.3848737080116,476.40429029101506,200004,003,2023-03-31_11h01.23.241,DMS_et_12-36,2022.2.4,None,
65,UNPRED,12,0.7965871810939458,2,images/picture_3.png,images/picture_1.png,0,"[-11.733433509789466, -11.733433509789462]",-11.733433509789464,-11.733433509789462,images/picture_2.png,1,"[11.733433509789464, 11.733433509789462]",11.733433509789464,11.733433509789462,images/picture_3.png,2,"[-11.733433509789462, 11.733433509789464]",-11.733433509789462,11.733433509789464,0,1,1,0.7965871810939458,1.7965871810939458,1.2034128189060542,3.0,1,1.5465871810939458,0,4.0,3.0,1,2,7,0,7,0,0,4,4,2,,,,,,,476.40429029101506,476.40429029101506,477.4183417079039,477.9517389999237,478.18484545801766,478.18484545801766,478.18484545801766,479.3850181659218,479.3850181659218,479.3850181659218,479.3850181659218,480.3846135828644,200004,003,2023-03-31_11h01.23.241,DMS_et_12-36,2022.2.4,None,
63,UNPRED,12,0.7965871810939458,0,images/picture_1.png,images/picture_1.png,0,"[-11.733433509789462, 11.733433509789464]",-11.733433509789462,11.733433509789464,images/picture_2.png,1,"[11.733433509789462, -11.733433509789466]",11.733433509789462,-11.733433509789464,images/picture_3.png,2,"[-11.733433509789466, -11.733433509789462]",-11.733433509789464,-11.733433509789462,0,1,1,0.7965871810939458,1.7965871810939458,1.2034128189060542,3.0,1,1.5465871810939458,0,4.0,3.0,1,2,7,0,7,0,0,5,5,0,,,,,,,480.3846135828644,480.3846135828644,481.38499020785093,481.9374093748629,482.1708808748517,482.1708808748517,482.1708808748517,483.38503524987027,483.38503524987027,483.38503524987027,483.38503524987027,484.38445912487805,200004,003,2023-03-31_11h01.23.241,DMS_et_12-36,2022.2.4,None,
70,UNPRED,12,0.7965871810939458,0,images/picture_1.png,images/picture_1.png,0,"[-11.733433509789466, -11.733433509789462]",-11.733433509789464,-11.733433509789462,images/picture_2.png,1,"[-11.733433509789462, 11.733433509789464]",-11.733433509789462,11.733433509789464,images/picture_3.png,2,"[11.733433509789464, 11.733433509789462]",11.733433509789464,11.733433509789462,0,1,1,0.7965871810939458,1.7965871810939458,1.2034128189060542,3.0,1,1.5465871810939458,0,4.0,3.0,1,2,7,0,7,0,0,6,6,7,,,,,,,484.38445912487805,484.38445912487805,485.38505070796236,485.9377082909923,486.1850334999617,486.1850334999617,486.1850334999617,487.385052541038,487.385052541038,487.385052541038,487.385052541038,488.40383583283983,200004,003,2023-03-31_11h01.23.241,DMS_et_12-36,2022.2.4,None,
66,UNPRED,12,0.7965871810939458,2,images/picture_3.png,images/picture_1.png,0,"[11.733433509789462, -11.733433509789466]",11.733433509789462,-11.733433509789464,images/picture_2.png,1,"[11.733433509789464, 11.733433509789462]",11.733433509789464,11.733433509789462,images/picture_3.png,2,"[-11.733433509789462, 11.733433509789464]",-11.733433509789462,11.733433509789464,0,1,1,0.7965871810939458,1.7965871810939458,1.2034128189060542,3.0,1,1.5465871810939458,0,4.0,3.0,1,2,7,0,7,0,0,7,7,3,,,,,,,488.40383583283983,488.40383583283983,489.4182453749236,489.95172804105096,490.1846718748566,490.1846718748566,490.1846718748566,491.38502341602,491.38502341602,491.38502341602,491.38502341602,492.38452058285475,200004,003,2023-03-31_11h01.23.241,DMS_et_12-36,2022.2.4,None,
69,UNPRED,12,0.7965871810939458,0,images/picture_1.png,images/picture_1.png,0,"[11.733433509789464, 11.733433509789462]",11.733433509789464,11.733433509789462,images/picture_2.png,1,"[-11.733433509789466, -11.733433509789462]",-11.733433509789464,-11.733433509789462,images/picture_3.png,2,"[11.733433509789462, -11.733433509789466]",11.733433509789462,-11.733433509789464,0,1,1,0.7965871810939458,1.7965871810939458,1.2034128189060542,3.0,1,1.5465871810939458,0,4.0,3.0,1,2,7,0,7,0,0,8,8,6,,,,,,,492.38452058285475,492.38452058285475,493.3850473749917,493.93787595792674,494.18497187504545,494.18497187504545,494.18497187504545,495.38512958283536,495.38512958283536,495.38512958283536,495.38512958283536,496.47035737498663,200004,003,2023-03-31_11h01.23.241,DMS_et_12-36,2022.2.4,None,
,,,,,,,,,,,,,,,,,,,,,,,,,,,,,,,,,,,7,0,7,0,,,,,,,,,496.47035737498663,508.5090020408388,,,,,,,,,,,,,200004,003,2023-03-31_11h01.23.241,DMS_et_12-36,2022.2.4,None,
78,PRED,12,0.7965871810939458,1,images/picture_2.png,images/picture_1.png,0,"[11.733433509789462, -11.733433509789466]",11.733433509789462,-11.733433509789464,images/picture_2.png,1,"[11.733433509789464, 11.733433509789462]",11.733433509789464,11.733433509789462,images/picture_3.png,2,"[-11.733433509789466, -11.733433509789462]",-11.733433509789464,-11.733433509789462,0,1,1,0.7965871810939458,1.7965871810939458,1.2034128189060542,3.0,1,1.5465871810939458,0,4.0,3.0,1,2,8,0,8,0,0,0,0,6,,,,,,,508.5090020408388,508.5090020408388,509.51790987490676,510.0707947909832,510.30439041601494,510.30439041601494,510.30439041601494,511.51796950004064,511.51796950004064,511.51796950004064,511.5039174580015,512.517837540945,200004,003,2023-03-31_11h01.23.241,DMS_et_12-36,2022.2.4,None,
73,PRED,12,0.7965871810939458,1,images/picture_2.png,images/picture_1.png,0,"[11.733433509789462, -11.733433509789466]",11.733433509789462,-11.733433509789464,images/picture_2.png,1,"[11.733433509789464, 11.733433509789462]",11.733433509789464,11.733433509789462,images/picture_3.png,2,"[-11.733433509789462, 11.733433509789464]",-11.733433509789462,11.733433509789464,0,1,1,0.7965871810939458,1.7965871810939458,1.2034128189060542,3.0,1,1.5465871810939458,0,4.0,3.0,1,2,8,0,8,0,0,1,1,1,,,,,,,512.517837540945,512.517837540945,513.5182841659989,514.0709895829204,514.304208290996,514.304208290996,514.304208290996,515.5182783750352,515.5182783750352,515.5182783750352,515.5182783750352,516.5178282079287,200004,003,2023-03-31_11h01.23.241,DMS_et_12-36,2022.2.4,None,
80,PRED,12,0.7965871810939458,1,images/picture_2.png,images/picture_1.png,0,"[11.733433509789462, -11.733433509789466]",11.733433509789462,-11.733433509789464,images/picture_2.png,1,"[-11.733433509789466, -11.733433509789462]",-11.733433509789464,-11.733433509789462,images/picture_3.png,2,"[-11.733433509789462, 11.733433509789464]",-11.733433509789462,11.733433509789464,0,1,1,0.7965871810939458,1.7965871810939458,1.2034128189060542,3.0,1,1.5465871810939458,0,4.0,3.0,1,2,8,0,8,0,0,2,2,8,,,,,,,516.5178282079287,516.5178282079287,517.5183505830355,518.0711196658667,518.3183390409686,518.3183390409686,518.3183390409686,519.5182636659592,519.5182636659592,519.5182636659592,519.5182636659592,520.5177374579944,200004,003,2023-03-31_11h01.23.241,DMS_et_12-36,2022.2.4,None,
77,PRED,12,0.7965871810939458,1,images/picture_2.png,images/picture_1.png,0,"[-11.733433509789466, -11.733433509789462]",-11.733433509789464,-11.733433509789462,images/picture_2.png,1,"[11.733433509789464, 11.733433509789462]",11.733433509789464,11.733433509789462,images/picture_3.png,2,"[-11.733433509789462, 11.733433509789464]",-11.733433509789462,11.733433509789464,0,1,1,0.7965871810939458,1.7965871810939458,1.2034128189060542,3.0,1,1.5465871810939458,0,4.0,3.0,1,2,8,0,8,0,0,3,3,5,,,,,,,520.5177374579944,520.5177374579944,521.5182128748856,522.0704686250538,522.3183504999615,522.3183504999615,522.3183504999615,523.518303083023,523.518303083023,523.518303083023,523.518303083023,524.5182328750379,200004,003,2023-03-31_11h01.23.241,DMS_et_12-36,2022.2.4,None,
75,PRED,12,0.7965871810939458,1,images/picture_2.png,images/picture_1.png,0,"[11.733433509789462, -11.733433509789466]",11.733433509789462,-11.733433509789464,images/picture_2.png,1,"[-11.733433509789466, -11.733433509789462]",-11.733433509789464,-11.733433509789462,images/picture_3.png,2,"[11.733433509789464, 11.733433509789462]",11.733433509789464,11.733433509789462,0,1,1,0.7965871810939458,1.7965871810939458,1.2034128189060542,3.0,1,1.5465871810939458,0,4.0,3.0,1,2,8,0,8,0,0,4,4,3,,,,,,,524.5182328750379,524.5182328750379,525.5184572078288,526.070992790861,526.3182681249455,526.3182681249455,526.3182681249455,527.5182565408759,527.5182565408759,527.5182565408759,527.5182565408759,528.5178443328477,200004,003,2023-03-31_11h01.23.241,DMS_et_12-36,2022.2.4,None,
72,PRED,12,0.7965871810939458,1,images/picture_2.png,images/picture_1.png,0,"[11.733433509789464, 11.733433509789462]",11.733433509789464,11.733433509789462,images/picture_2.png,1,"[-11.733433509789466, -11.733433509789462]",-11.733433509789464,-11.733433509789462,images/picture_3.png,2,"[-11.733433509789462, 11.733433509789464]",-11.733433509789462,11.733433509789464,0,1,1,0.7965871810939458,1.7965871810939458,1.2034128189060542,3.0,1,1.5465871810939458,0,4.0,3.0,1,2,8,0,8,0,0,5,5,0,,,,,,,528.5178443328477,528.5178443328477,529.5182737908326,530.0716472079512,530.3182791660074,530.3182791660074,530.3182791660074,531.5370908749755,531.5370908749755,531.5370908749755,531.5178158748895,532.5178703749552,200004,003,2023-03-31_11h01.23.241,DMS_et_12-36,2022.2.4,None,
79,PRED,12,0.7965871810939458,1,images/picture_2.png,images/picture_1.png,0,"[11.733433509789464, 11.733433509789462]",11.733433509789464,11.733433509789462,images/picture_2.png,1,"[-11.733433509789466, -11.733433509789462]",-11.733433509789464,-11.733433509789462,images/picture_3.png,2,"[11.733433509789462, -11.733433509789466]",11.733433509789462,-11.733433509789464,0,1,1,0.7965871810939458,1.7965871810939458,1.2034128189060542,3.0,1,1.5465871810939458,0,4.0,3.0,1,2,8,0,8,0,0,6,6,7,,,,,,,532.5178703749552,532.5178703749552,533.5182224998716,534.0710869159084,534.3044859159272,534.3044859159272,534.3044859159272,535.5184152908623,535.5184152908623,535.5184152908623,535.5184152908623,536.5177011250053,200004,003,2023-03-31_11h01.23.241,DMS_et_12-36,2022.2.4,None,
76,PRED,12,0.7965871810939458,1,images/picture_2.png,images/picture_1.png,0,"[11.733433509789464, 11.733433509789462]",11.733433509789464,11.733433509789462,images/picture_2.png,1,"[-11.733433509789462, 11.733433509789464]",-11.733433509789462,11.733433509789464,images/picture_3.png,2,"[-11.733433509789466, -11.733433509789462]",-11.733433509789464,-11.733433509789462,0,1,1,0.7965871810939458,1.7965871810939458,1.2034128189060542,3.0,1,1.5465871810939458,0,4.0,3.0,1,2,8,0,8,0,0,7,7,4,,,,,,,536.5177011250053,536.5177011250053,537.518309332896,538.0712851658463,538.3183020409197,538.3183020409197,538.3183020409197,539.5182645409368,539.5182645409368,539.5182645409368,539.5182645409368,540.5177822080441,200004,003,2023-03-31_11h01.23.241,DMS_et_12-36,2022.2.4,None,
74,PRED,12,0.7965871810939458,1,images/picture_2.png,images/picture_1.png,0,"[11.733433509789462, -11.733433509789466]",11.733433509789462,-11.733433509789464,images/picture_2.png,1,"[11.733433509789464, 11.733433509789462]",11.733433509789464,11.733433509789462,images/picture_3.png,2,"[-11.733433509789462, 11.733433509789464]",-11.733433509789462,11.733433509789464,0,1,1,0.7965871810939458,1.7965871810939458,1.2034128189060542,3.0,1,1.5465871810939458,0,4.0,3.0,1,2,8,0,8,0,0,8,8,2,,,,,,,540.5177822080441,540.5177822080441,541.5181582500227,542.0705895409919,542.3182015409693,542.3182015409693,542.3182015409693,543.518266415922,543.518266415922,543.518266415922,543.518266415922,544.6186176659539,200004,003,2023-03-31_11h01.23.241,DMS_et_12-36,2022.2.4,None,
,,,,,,,,,,,,,,,,,,,,,,,,,,,,,,,,,,,8,0,8,0,,,,,,,,,544.6186176659539,556.6425454160199,,,,,,,,,,,,,200004,003,2023-03-31_11h01.23.241,DMS_et_12-36,2022.2.4,None,
83,UNPRED,12,0.7965871810939458,0,images/picture_1.png,images/picture_1.png,0,"[11.733433509789462, -11.733433509789466]",11.733433509789462,-11.733433509789464,images/picture_2.png,1,"[-11.733433509789462, 11.733433509789464]",-11.733433509789462,11.733433509789464,images/picture_3.png,2,"[11.733433509789464, 11.733433509789462]",11.733433509789464,11.733433509789462,0,1,1,0.7965871810939458,1.7965871810939458,1.2034128189060542,3.0,1,1.5465871810939458,0,4.0,3.0,1,2,9,0,9,0,0,0,0,2,,,,,,,556.6425454160199,556.6425454160199,557.6517492500134,558.1850628328975,558.4376924999524,558.4376924999524,558.4376924999524,559.6517577080522,559.6517577080522,559.6517577080522,559.6375988749787,560.6512800829951,200004,003,2023-03-31_11h01.23.241,DMS_et_12-36,2022.2.4,None,
85,UNPRED,12,0.7965871810939458,0,images/picture_1.png,images/picture_1.png,0,"[-11.733433509789462, 11.733433509789464]",-11.733433509789462,11.733433509789464,images/picture_2.png,1,"[11.733433509789464, 11.733433509789462]",11.733433509789464,11.733433509789462,images/picture_3.png,2,"[-11.733433509789466, -11.733433509789462]",-11.733433509789464,-11.733433509789462,0,1,1,0.7965871810939458,1.7965871810939458,1.2034128189060542,3.0,1,1.5465871810939458,0,4.0,3.0,1,2,9,0,9,0,0,1,1,4,,,,,,,560.6512800829951,560.6512800829951,561.6517675409559,562.203469790984,562.4514494580217,562.4514494580217,562.4514494580217,563.6516978328582,563.6516978328582,563.6516978328582,563.6516978328582,564.6521381658968,200004,003,2023-03-31_11h01.23.241,DMS_et_12-36,2022.2.4,None,
88,UNPRED,12,0.7965871810939458,2,images/picture_3.png,images/picture_1.png,0,"[-11.733433509789462, 11.733433509789464]",-11.733433509789462,11.733433509789464,images/picture_2.png,1,"[-11.733433509789466, -11.733433509789462]",-11.733433509789464,-11.733433509789462,images/picture_3.png,2,"[11.733433509789464, 11.733433509789462]",11.733433509789464,11.733433509789462,0,1,1,0.7965871810939458,1.7965871810939458,1.2034128189060542,3.0,1,1.5465871810939458,0,4.0,3.0,1,2,9,0,9,0,0,2,2,7,,,,,,,564.6521381658968,564.6521381658968,565.6517251660116,566.2043737079948,566.4377874159254,566.4377874159254,566.4377874159254,567.6517335409299,567.6517335409299,567.6517335409299,567.6517335409299,568.6524872910231,200004,003,2023-03-31_11h01.23.241,DMS_et_12-36,2022.2.4,None,
89,UNPRED,12,0.7965871810939458,1,images/picture_2.png,images/picture_1.png,0,"[-11.733433509789462, 11.733433509789464]",-11.733433509789462,11.733433509789464,images/picture_2.png,1,"[11.733433509789462, -11.733433509789466]",11.733433509789462,-11.733433509789464,images/picture_3.png,2,"[-11.733433509789466, -11.733433509789462]",-11.733433509789464,-11.733433509789462,0,1,1,0.7965871810939458,1.7965871810939458,1.2034128189060542,3.0,1,1.5465871810939458,0,4.0,3.0,1,2,9,0,9,0,0,3,3,8,,,,,,,568.6524872910231,568.6524872910231,569.6517538749613,570.2045317080338,570.4516219580546,570.4516219580546,570.4516219580546,571.6517442499753,571.6517442499753,571.6517442499753,571.6517442499753,572.6514216659125,200004,003,2023-03-31_11h01.23.241,DMS_et_12-36,2022.2.4,None,
81,UNPRED,12,0.7965871810939458,1,images/picture_2.png,images/picture_1.png,0,"[-11.733433509789466, -11.733433509789462]",-11.733433509789464,-11.733433509789462,images/picture_2.png,1,"[11.733433509789464, 11.733433509789462]",11.733433509789464,11.733433509789462,images/picture_3.png,2,"[11.733433509789462, -11.733433509789466]",11.733433509789462,-11.733433509789464,0,1,1,0.7965871810939458,1.7965871810939458,1.2034128189060542,3.0,1,1.5465871810939458,0,4.0,3.0,1,2,9,0,9,0,0,4,4,0,,,,,,,572.6514216659125,572.6514216659125,573.6517775000539,574.2049614579882,574.437586790882,574.437586790882,574.437586790882,575.6517566659022,575.6517566659022,575.6517566659022,575.6517566659022,576.6511656660587,200004,003,2023-03-31_11h01.23.241,DMS_et_12-36,2022.2.4,None,
84,UNPRED,12,0.7965871810939458,1,images/picture_2.png,images/picture_1.png,0,"[-11.733433509789462, 11.733433509789464]",-11.733433509789462,11.733433509789464,images/picture_2.png,1,"[11.733433509789464, 11.733433509789462]",11.733433509789464,11.733433509789462,images/picture_3.png,2,"[-11.733433509789466, -11.733433509789462]",-11.733433509789464,-11.733433509789462,0,1,1,0.7965871810939458,1.7965871810939458,1.2034128189060542,3.0,1,1.5465871810939458,0,4.0,3.0,1,2,9,0,9,0,0,5,5,3,,,,,,,576.6511656660587,576.6511656660587,577.6517223329283,578.2043058329728,578.4516340410337,578.4516340410337,578.4516340410337,579.6517422499601,579.6517422499601,579.6517422499601,579.6517422499601,580.6703553749248,200004,003,2023-03-31_11h01.23.241,DMS_et_12-36,2022.2.4,None,
86,UNPRED,12,0.7965871810939458,2,images/picture_3.png,images/picture_1.png,0,"[-11.733433509789462, 11.733433509789464]",-11.733433509789462,11.733433509789464,images/picture_2.png,1,"[11.733433509789462, -11.733433509789466]",11.733433509789462,-11.733433509789464,images/picture_3.png,2,"[-11.733433509789466, -11.733433509789462]",-11.733433509789464,-11.733433509789462,0,1,1,0.7965871810939458,1.7965871810939458,1.2034128189060542,3.0,1,1.5465871810939458,0,4.0,3.0,1,2,9,0,9,0,0,6,6,5,,,,,,,580.6703553749248,580.6703553749248,581.6851053328719,582.2182308749761,582.4515267079696,582.4515267079696,582.4515267079696,583.6706163750496,583.6706163750496,583.6706163750496,583.6515512499027,584.6518909160513,200004,003,2023-03-31_11h01.23.241,DMS_et_12-36,2022.2.4,None,
87,UNPRED,12,0.7965871810939458,1,images/picture_2.png,images/picture_1.png,0,"[-11.733433509789466, -11.733433509789462]",-11.733433509789464,-11.733433509789462,images/picture_2.png,1,"[-11.733433509789462, 11.733433509789464]",-11.733433509789462,11.733433509789464,images/picture_3.png,2,"[11.733433509789462, -11.733433509789466]",11.733433509789462,-11.733433509789464,0,1,1,0.7965871810939458,1.7965871810939458,1.2034128189060542,3.0,1,1.5465871810939458,0,4.0,3.0,1,2,9,0,9,0,0,7,7,6,,,,,,,584.6518909160513,584.6518909160513,585.6517634158954,586.2041702498682,586.4517430409323,586.4517430409323,586.4517430409323,587.6517859159503,587.6517859159503,587.6517859159503,587.6517859159503,588.651106499834,200004,003,2023-03-31_11h01.23.241,DMS_et_12-36,2022.2.4,None,
82,UNPRED,12,0.7965871810939458,1,images/picture_2.png,images/picture_1.png,0,"[-11.733433509789466, -11.733433509789462]",-11.733433509789464,-11.733433509789462,images/picture_2.png,1,"[11.733433509789464, 11.733433509789462]",11.733433509789464,11.733433509789462,images/picture_3.png,2,"[11.733433509789462, -11.733433509789466]",11.733433509789462,-11.733433509789464,0,1,1,0.7965871810939458,1.7965871810939458,1.2034128189060542,3.0,1,1.5465871810939458,0,4.0,3.0,1,2,9,0,9,0,0,8,8,1,,,,,,,588.651106499834,588.651106499834,589.651764290873,590.2043250829447,590.4518188750371,590.4518188750371,590.4518188750371,591.6517569159623,591.6517569159623,591.6517569159623,591.6517569159623,592.7574049159884,200004,003,2023-03-31_11h01.23.241,DMS_et_12-36,2022.2.4,None,
,,,,,,,,,,,,,,,,,,,,,,,,,,,,,,,,,,,9,0,9,0,,,,,,,,,592.7574049159884,604.7848492078483,,,,,,,,,,,,,200004,003,2023-03-31_11h01.23.241,DMS_et_12-36,2022.2.4,None,
98,PRED,12,0.7965871810939458,1,images/picture_2.png,images/picture_1.png,0,"[-11.733433509789466, -11.733433509789462]",-11.733433509789464,-11.733433509789462,images/picture_2.png,1,"[-11.733433509789462, 11.733433509789464]",-11.733433509789462,11.733433509789464,images/picture_3.png,2,"[11.733433509789464, 11.733433509789462]",11.733433509789464,11.733433509789462,0,1,1,0.7965871810939458,1.7965871810939458,1.2034128189060542,3.0,1,1.5465871810939458,0,4.0,3.0,1,2,10,0,10,0,0,0,0,8,,,,,,,604.7848492078483,604.7848492078483,605.7852542079054,606.3379406658933,606.5850986659061,606.5850986659061,606.5850986659061,607.7850113748573,607.7850113748573,607.7850113748573,607.7850113748573,608.7849741659593,200004,003,2023-03-31_11h01.23.241,DMS_et_12-36,2022.2.4,None,
92,PRED,12,0.7965871810939458,1,images/picture_2.png,images/picture_1.png,0,"[-11.733433509789466, -11.733433509789462]",-11.733433509789464,-11.733433509789462,images/picture_2.png,1,"[11.733433509789464, 11.733433509789462]",11.733433509789464,11.733433509789462,images/picture_3.png,2,"[11.733433509789462, -11.733433509789466]",11.733433509789462,-11.733433509789464,0,1,1,0.7965871810939458,1.7965871810939458,1.2034128189060542,3.0,1,1.5465871810939458,0,4.0,3.0,1,2,10,0,10,0,0,1,1,2,,,,,,,608.7849741659593,608.7849741659593,609.7850522079971,610.3375274578575,610.585003624903,610.585003624903,610.585003624903,611.7850527500268,611.7850527500268,611.7850527500268,611.7850527500268,612.784604415996,200004,003,2023-03-31_11h01.23.241,DMS_et_12-36,2022.2.4,None,
93,PRED,12,0.7965871810939458,1,images/picture_2.png,images/picture_1.png,0,"[-11.733433509789466, -11.733433509789462]",-11.733433509789464,-11.733433509789462,images/picture_2.png,1,"[11.733433509789464, 11.733433509789462]",11.733433509789464,11.733433509789462,images/picture_3.png,2,"[-11.733433509789462, 11.733433509789464]",-11.733433509789462,11.733433509789464,0,1,1,0.7965871810939458,1.7965871810939458,1.2034128189060542,3.0,1,1.5465871810939458,0,4.0,3.0,1,2,10,0,10,0,0,2,2,3,,,,,,,612.784604415996,612.784604415996,613.7849022909068,614.3371044159867,614.5852022499312,614.5852022499312,614.5852022499312,615.7850456249435,615.7850456249435,615.7850456249435,615.7850456249435,616.7844847079832,200004,003,2023-03-31_11h01.23.241,DMS_et_12-36,2022.2.4,None,
90,PRED,12,0.7965871810939458,1,images/picture_2.png,images/picture_1.png,0,"[-11.733433509789462, 11.733433509789464]",-11.733433509789462,11.733433509789464,images/picture_2.png,1,"[11.733433509789464, 11.733433509789462]",11.733433509789464,11.733433509789462,images/picture_3.png,2,"[-11.733433509789466, -11.733433509789462]",-11.733433509789464,-11.733433509789462,0,1,1,0.7965871810939458,1.7965871810939458,1.2034128189060542,3.0,1,1.5465871810939458,0,4.0,3.0,1,2,10,0,10,0,0,3,3,0,,,,,,,616.7844847079832,616.7844847079832,617.7850732910447,618.3376934160478,618.5850424158853,618.5850424158853,618.5850424158853,619.785101040965,619.785101040965,619.785101040965,619.785101040965,620.7845949160401,200004,003,2023-03-31_11h01.23.241,DMS_et_12-36,2022.2.4,None,
94,PRED,12,0.7965871810939458,1,images/picture_2.png,images/picture_1.png,0,"[-11.733433509789466, -11.733433509789462]",-11.733433509789464,-11.733433509789462,images/picture_2.png,1,"[-11.733433509789462, 11.733433509789464]",-11.733433509789462,11.733433509789464,images/picture_3.png,2,"[11.733433509789464, 11.733433509789462]",11.733433509789464,11.733433509789462,0,1,1,0.7965871810939458,1.7965871810939458,1.2034128189060542,3.0,1,1.5465871810939458,0,4.0,3.0,1,2,10,0,10,0,0,4,4,4,,,,,,,620.7845949160401,620.7845949160401,621.7851572909858,622.3375540408306,622.585076957941,622.585076957941,622.585076957941,623.8037704578601,623.8037704578601,623.8037704578601,623.7848137910478,624.7843557498418,200004,003,2023-03-31_11h01.23.241,DMS_et_12-36,2022.2.4,None,
97,PRED,12,0.7965871810939458,1,images/picture_2.png,images/picture_1.png,0,"[11.733433509789464, 11.733433509789462]",11.733433509789464,11.733433509789462,images/picture_2.png,1,"[-11.733433509789466, -11.733433509789462]",-11.733433509789464,-11.733433509789462,images/picture_3.png,2,"[11.733433509789462, -11.733433509789466]",11.733433509789462,-11.733433509789464,0,1,1,0.7965871810939458,1.7965871810939458,1.2034128189060542,3.0,1,1.5465871810939458,0,4.0,3.0,1,2,10,0,10,0,0,5,5,7,,,,,,,624.7843557498418,624.7843557498418,625.7850570830051,626.3378174998797,626.5852336660028,626.5852336660028,626.5852336660028,627.7850568748545,627.7850568748545,627.7850568748545,627.7850568748545,628.7847508748528,200004,003,2023-03-31_11h01.23.241,DMS_et_12-36,2022.2.4,None,
96,PRED,12,0.7965871810939458,1,images/picture_2.png,images/picture_1.png,0,"[11.733433509789462, -11.733433509789466]",11.733433509789462,-11.733433509789464,images/picture_2.png,1,"[11.733433509789464, 11.733433509789462]",11.733433509789464,11.733433509789462,images/picture_3.png,2,"[-11.733433509789466, -11.733433509789462]",-11.733433509789464,-11.733433509789462,0,1,1,0.7965871810939458,1.7965871810939458,1.2034128189060542,3.0,1,1.5465871810939458,0,4.0,3.0,1,2,10,0,10,0,0,6,6,6,,,,,,,628.7847508748528,628.7847508748528,629.7851151658688,630.3377011248376,630.5712311249226,630.5712311249226,630.5712311249226,631.7852579159662,631.7852579159662,631.7852579159662,631.7852579159662,632.7841534579638,200004,003,2023-03-31_11h01.23.241,DMS_et_12-36,2022.2.4,None,
91,PRED,12,0.7965871810939458,1,images/picture_2.png,images/picture_1.png,0,"[-11.733433509789466, -11.733433509789462]",-11.733433509789464,-11.733433509789462,images/picture_2.png,1,"[11.733433509789464, 11.733433509789462]",11.733433509789464,11.733433509789462,images/picture_3.png,2,"[11.733433509789462, -11.733433509789466]",11.733433509789462,-11.733433509789464,0,1,1,0.7965871810939458,1.7965871810939458,1.2034128189060542,3.0,1,1.5465871810939458,0,4.0,3.0,1,2,10,0,10,0,0,7,7,1,,,,,,,632.7841534579638,632.7841534579638,633.7848387910053,634.3371329158545,634.5848709999118,634.5848709999118,634.5848709999118,635.7850572909229,635.7850572909229,635.7850572909229,635.7850572909229,636.7843481658492,200004,003,2023-03-31_11h01.23.241,DMS_et_12-36,2022.2.4,None,
95,PRED,12,0.7965871810939458,1,images/picture_2.png,images/picture_1.png,0,"[-11.733433509789466, -11.733433509789462]",-11.733433509789464,-11.733433509789462,images/picture_2.png,1,"[11.733433509789462, -11.733433509789466]",11.733433509789462,-11.733433509789464,images/picture_3.png,2,"[-11.733433509789462, 11.733433509789464]",-11.733433509789462,11.733433509789464,0,1,1,0.7965871810939458,1.7965871810939458,1.2034128189060542,3.0,1,1.5465871810939458,0,4.0,3.0,1,2,10,0,10,0,0,8,8,5,,,,,,,636.7843481658492,636.7843481658492,637.7851368328556,638.3378314999864,638.5850569580216,638.5850569580216,638.5850569580216,639.7852672080044,639.7852672080044,639.7852672080044,639.7852672080044,640.8904581249226,200004,003,2023-03-31_11h01.23.241,DMS_et_12-36,2022.2.4,None,
,,,,,,,,,,,,,,,,,,,,,,,,,,,,,,,,,,,10,0,10,0,,,,,,,,,640.8904581249226,652.9209769158624,,,,,,,,,,,,,200004,003,2023-03-31_11h01.23.241,DMS_et_12-36,2022.2.4,None,
101,UNPRED,12,0.7965871810939458,1,images/picture_2.png,images/picture_1.png,0,"[-11.733433509789462, 11.733433509789464]",-11.733433509789462,11.733433509789464,images/picture_2.png,1,"[-11.733433509789466, -11.733433509789462]",-11.733433509789464,-11.733433509789462,images/picture_3.png,2,"[11.733433509789462, -11.733433509789466]",11.733433509789462,-11.733433509789464,0,1,1,0.7965871810939458,1.7965871810939458,1.2034128189060542,3.0,1,1.5465871810939458,0,4.0,3.0,1,2,11,0,11,0,0,0,0,2,,,,,,,652.9209769158624,652.9209769158624,653.9181105829775,654.4702924578451,654.718253958039,654.718253958039,654.718253958039,655.9185792498756,655.9185792498756,655.9185792498756,655.9185792498756,656.9179382908624,200004,003,2023-03-31_11h01.23.241,DMS_et_12-36,2022.2.4,None,
105,UNPRED,12,0.7965871810939458,1,images/picture_2.png,images/picture_1.png,0,"[11.733433509789464, 11.733433509789462]",11.733433509789464,11.733433509789462,images/picture_2.png,1,"[11.733433509789462, -11.733433509789466]",11.733433509789462,-11.733433509789464,images/picture_3.png,2,"[-11.733433509789462, 11.733433509789464]",-11.733433509789462,11.733433509789464,0,1,1,0.7965871810939458,1.7965871810939458,1.2034128189060542,3.0,1,1.5465871810939458,0,4.0,3.0,1,2,11,0,11,0,0,1,1,6,,,,,,,656.9179382908624,656.9179382908624,657.9184757908806,658.4715469579678,658.7045419998467,658.7045419998467,658.7045419998467,659.9185967908707,659.9185967908707,659.9185967908707,659.9185967908707,660.9369812910445,200004,003,2023-03-31_11h01.23.241,DMS_et_12-36,2022.2.4,None,
103,UNPRED,12,0.7965871810939458,2,images/picture_3.png,images/picture_1.png,0,"[11.733433509789464, 11.733433509789462]",11.733433509789464,11.733433509789462,images/picture_2.png,1,"[-11.733433509789462, 11.733433509789464]",-11.733433509789462,11.733433509789464,images/picture_3.png,2,"[-11.733433509789466, -11.733433509789462]",-11.733433509789464,-11.733433509789462,0,1,1,0.7965871810939458,1.7965871810939458,1.2034128189060542,3.0,1,1.5465871810939458,0,4.0,3.0,1,2,11,0,11,0,0,2,2,4,,,,,,,660.9369812910445,660.9369812910445,661.9518499998376,662.4852758748457,662.7044830829836,662.7044830829836,662.7044830829836,663.9186082498636,663.9186082498636,663.9186082498636,663.9186082498636,664.9181454579812,200004,003,2023-03-31_11h01.23.241,DMS_et_12-36,2022.2.4,None,
107,UNPRED,12,0.7965871810939458,0,images/picture_1.png,images/picture_1.png,0,"[11.733433509789464, 11.733433509789462]",11.733433509789464,11.733433509789462,images/picture_2.png,1,"[-11.733433509789462, 11.733433509789464]",-11.733433509789462,11.733433509789464,images/picture_3.png,2,"[11.733433509789462, -11.733433509789466]",11.733433509789462,-11.733433509789464,0,1,1,0.7965871810939458,1.7965871810939458,1.2034128189060542,3.0,1,1.5465871810939458,0,4.0,3.0,1,2,11,0,11,0,0,3,3,8,,,,,,,664.9181454579812,664.9181454579812,665.9184439999517,666.4710525409319,666.7043214580044,666.7043214580044,666.7043214580044,667.9185325829312,667.9185325829312,667.9185325829312,667.9185325829312,668.9182111248374,200004,003,2023-03-31_11h01.23.241,DMS_et_12-36,2022.2.4,None,
106,UNPRED,12,0.7965871810939458,1,images/picture_2.png,images/picture_1.png,0,"[11.733433509789462, -11.733433509789466]",11.733433509789462,-11.733433509789464,images/picture_2.png,1,"[-11.733433509789466, -11.733433509789462]",-11.733433509789464,-11.733433509789462,images/picture_3.png,2,"[-11.733433509789462, 11.733433509789464]",-11.733433509789462,11.733433509789464,0,1,1,0.7965871810939458,1.7965871810939458,1.2034128189060542,3.0,1,1.5465871810939458,0,4.0,3.0,1,2,11,0,11,0,0,4,4,7,,,,,,,668.9182111248374,668.9182111248374,669.9185064160265,670.4710974160116,670.7046708329581,670.7046708329581,670.7046708329581,671.9185391659848,671.9185391659848,671.9185391659848,671.9185391659848,672.9180656250101,200004,003,2023-03-31_11h01.23.241,DMS_et_12-36,2022.2.4,None,
99,UNPRED,12,0.7965871810939458,0,images/picture_1.png,images/picture_1.png,0,"[-11.733433509789466, -11.733433509789462]",-11.733433509789464,-11.733433509789462,images/picture_2.png,1,"[11.733433509789462, -11.733433509789466]",11.733433509789462,-11.733433509789464,images/picture_3.png,2,"[11.733433509789464, 11.733433509789462]",11.733433509789464,11.733433509789462,0,1,1,0.7965871810939458,1.7965871810939458,1.2034128189060542,3.0,1,1.5465871810939458,0,4.0,3.0,1,2,11,0,11,0,0,5,5,0,,,,,,,672.9180656250101,672.9180656250101,673.9184933330398,674.4709936250001,674.7184981249738,674.7184981249738,674.7184981249738,675.9371681660414,675.9371681660414,675.9371681660414,675.9182977080345,676.9182235829066,200004,003,2023-03-31_11h01.23.241,DMS_et_12-36,2022.2.4,None,
102,UNPRED,12,0.7965871810939458,0,images/picture_1.png,images/picture_1.png,0,"[-11.733433509789466, -11.733433509789462]",-11.733433509789464,-11.733433509789462,images/picture_2.png,1,"[11.733433509789462, -11.733433509789466]",11.733433509789462,-11.733433509789464,images/picture_3.png,2,"[11.733433509789464, 11.733433509789462]",11.733433509789464,11.733433509789462,0,1,1,0.7965871810939458,1.7965871810939458,1.2034128189060542,3.0,1,1.5465871810939458,0,4.0,3.0,1,2,11,0,11,0,0,6,6,3,,,,,,,676.9182235829066,676.9182235829066,677.918503790861,678.4711487500463,678.7184872080106,678.7184872080106,678.7184872080106,679.918489750009,679.918489750009,679.918489750009,679.918489750009,680.9176615409087,200004,003,2023-03-31_11h01.23.241,DMS_et_12-36,2022.2.4,None,
100,UNPRED,12,0.7965871810939458,1,images/picture_2.png,images/picture_1.png,0,"[-11.733433509789462, 11.733433509789464]",-11.733433509789462,11.733433509789464,images/picture_2.png,1,"[11.733433509789464, 11.733433509789462]",11.733433509789464,11.733433509789462,images/picture_3.png,2,"[-11.733433509789466, -11.733433509789462]",-11.733433509789464,-11.733433509789462,0,1,1,0.7965871810939458,1.7965871810939458,1.2034128189060542,3.0,1,1.5465871810939458,0,4.0,3.0,1,2,11,0,11,0,0,7,7,1,,,,,,,680.9176615409087,680.9176615409087,681.9185150410049,682.4710267910268,682.7182532909792,682.7182532909792,682.7182532909792,683.9185626248363,683.9185626248363,683.9185626248363,683.9185626248363,684.9369985829107,200004,003,2023-03-31_11h01.23.241,DMS_et_12-36,2022.2.4,None,
104,UNPRED,12,0.7965871810939458,2,images/picture_3.png,images/picture_1.png,0,"[11.733433509789462, -11.733433509789466]",11.733433509789462,-11.733433509789464,images/picture_2.png,1,"[-11.733433509789462, 11.733433509789464]",-11.733433509789462,11.733433509789464,images/picture_3.png,2,"[-11.733433509789466, -11.733433509789462]",-11.733433509789464,-11.733433509789462,0,1,1,0.7965871810939458,1.7965871810939458,1.2034128189060542,3.0,1,1.5465871810939458,0,4.0,3.0,1,2,11,0,11,0,0,8,8,5,,,,,,,684.9369985829107,684.9369985829107,685.9516567080282,686.485240082955,686.7184801248368,686.7184801248368,686.7184801248368,687.9185399159323,687.9185399159323,687.9185399159323,687.9185399159323,689.083649457898,200004,003,2023-03-31_11h01.23.241,DMS_et_12-36,2022.2.4,None,
,,,,,,,,,,,,,,,,,,,,,,,,,,,,,,,,,,,11,0,11,0,,,,,,,,,689.083649457898,701.2137808748521,,,,,,,,,,,,,200004,003,2023-03-31_11h01.23.241,DMS_et_12-36,2022.2.4,None,
,,,,,,,,,,,,,,,,,,,,,,,,,,,,,,,,,,,,,,,,,,,,,,,701.2137808748521,713.7467917080503,,,,,,,,,,,,,,,,,,,
