trial_count,blockType,blockNum,delay_time,stimImage_i,stimImage,responseImage1,responseImage1_i,responseImage1_pos,responseImage1_X,responseImage1_Y,responseImage2,responseImage2_i,responseImage2_pos,responseImage2_X,responseImage2_Y,responseImage3,responseImage3_i,responseImage3_pos,responseImage3_X,responseImage3_Y,cue_onset,cue_dur,delay_onset,delay_dur,resp_onset,resp_dur,rest_onset,rest_dur,circle_dur,circle_onset,blocks.thisRepN,blocks.thisTrialN,blocks.thisN,blocks.thisIndex,trials.thisRepN,trials.thisTrialN,trials.thisN,trials.thisIndex,key_resp.started,text.started,key_resp.keys,key_resp.rt,text_2.started,text_2.stopped,etRecord.started,sample.started,Delay.started,sample.stopped,Delay.stopped,Response_1.started,Response_2.started,Response_3.started,polygon.started,Response_1.stopped,Response_2.stopped,Response_3.stopped,etRecord.stopped,polygon.stopped,participant,session,date,expName,psychopyVersion,frameRate,
,,,,,,,,,,,,,,,,,,,,,,,,,,,,,,,,,,,,,,,38.75455862493254,38.75455862493254,t,59.16763462498784,,,,,,,,,,,,,,,,,200003,004,2023-03-22_13h30.05.434,DMS_BEST_eyetracking_DAN_base_12-36_looped_10minWORKING,2022.2.4,None,
6,PRED,12,0.9072601912047684,1,images/picture_2.png,images/picture_1.png,0,"[11.733433509789462, -11.733433509789466]",11.733433509789462,-11.733433509789464,images/picture_2.png,1,"[-11.733433509789466, -11.733433509789462]",-11.733433509789464,-11.733433509789462,images/picture_3.png,2,"[11.733433509789464, 11.733433509789462]",11.733433509789464,11.733433509789462,0,1,1,0.9072601912047684,1.9072601912047684,1.0927398087952316,3,1,1.6572601912047684,0,0,0,0,0,0,0,0,6,,,,,97.9410717919236,109.98283970798366,,,,,,,,,,,,,,,200003,004,2023-03-22_13h30.05.434,DMS_BEST_eyetracking_DAN_base_12-36_looped_10minWORKING,2022.2.4,None,
6,PRED,12,0.9072601912047684,1,images/picture_2.png,images/picture_1.png,0,"[11.733433509789462, -11.733433509789466]",11.733433509789462,-11.733433509789464,images/picture_2.png,1,"[-11.733433509789466, -11.733433509789462]",-11.733433509789464,-11.733433509789462,images/picture_3.png,2,"[11.733433509789464, 11.733433509789462]",11.733433509789464,11.733433509789462,0,1,1,0.9072601912047684,1.9072601912047684,1.0927398087952316,3,1,1.6572601912047684,0,0,0,0,0,0,0,0,6,,,,,,,0.006009374978020787,109.98283970798366,109.98283970798366,110.98788245790638,111.65448008291423,111.88752733299043,111.88752733299043,111.88752733299043,112.97448745800648,112.98787358298432,112.98787358298432,112.98787358298432,4.008359832921997,114.0077665419085,200003,004,2023-03-22_13h30.05.434,DMS_BEST_eyetracking_DAN_base_12-36_looped_10minWORKING,2022.2.4,None,
4,PRED,12,1.0148499904640569,1,images/picture_2.png,images/picture_1.png,0,"[-11.733433509789466, -11.733433509789462]",-11.733433509789464,-11.733433509789462,images/picture_2.png,1,"[-11.733433509789462, 11.733433509789464]",-11.733433509789462,11.733433509789464,images/picture_3.png,2,"[11.733433509789462, -11.733433509789466]",11.733433509789462,-11.733433509789464,0,1,1,1.0148499904640569,2.0148499904640564,0.9851500095359432,3,1,1.7648499904640564,0,0,0,0,0,0,1,1,4,,,,,,,,,,,,,,,,,,,,,200003,004,2023-03-22_13h30.05.434,DMS_BEST_eyetracking_DAN_base_12-36_looped_10minWORKING,2022.2.4,None,
4,PRED,12,1.0148499904640569,1,images/picture_2.png,images/picture_1.png,0,"[-11.733433509789466, -11.733433509789462]",-11.733433509789464,-11.733433509789462,images/picture_2.png,1,"[-11.733433509789462, 11.733433509789464]",-11.733433509789462,11.733433509789464,images/picture_3.png,2,"[11.733433509789462, -11.733433509789466]",11.733433509789462,-11.733433509789464,0,1,1,1.0148499904640569,2.0148499904640564,0.9851500095359432,3,1,1.7648499904640564,0,0,0,0,0,0,1,1,4,,,,,,,0.00489499990362674,114.0077665419085,114.0077665419085,115.02117083291523,115.78750758292153,116.00671304191928,116.00671304191928,116.00671304191928,116.9879782499047,117.00716949999332,117.00716949999332,117.00716949999332,4.0301459999755025,117.98798874998465,200003,004,2023-03-22_13h30.05.434,DMS_BEST_eyetracking_DAN_base_12-36_looped_10minWORKING,2022.2.4,None,
5,PRED,12,0.6484907610820563,1,images/picture_2.png,images/picture_1.png,0,"[-11.733433509789466, -11.733433509789462]",-11.733433509789464,-11.733433509789462,images/picture_2.png,1,"[-11.733433509789462, 11.733433509789464]",-11.733433509789462,11.733433509789464,images/picture_3.png,2,"[11.733433509789462, -11.733433509789466]",11.733433509789462,-11.733433509789464,0,1,1,0.6484907610820563,1.6484907610820565,1.3515092389179435,3,1,1.3984907610820565,0,0,0,0,0,0,2,2,5,,,,,,,,,,,,,,,,,,,,,200003,004,2023-03-22_13h30.05.434,DMS_BEST_eyetracking_DAN_base_12-36_looped_10minWORKING,2022.2.4,None,
5,PRED,12,0.6484907610820563,1,images/picture_2.png,images/picture_1.png,0,"[-11.733433509789466, -11.733433509789462]",-11.733433509789464,-11.733433509789462,images/picture_2.png,1,"[-11.733433509789462, 11.733433509789464]",-11.733433509789462,11.733433509789464,images/picture_3.png,2,"[11.733433509789462, -11.733433509789466]",11.733433509789462,-11.733433509789464,0,1,1,0.6484907610820563,1.6484907610820565,1.3515092389179435,3,1,1.3984907610820565,0,0,0,0,0,0,2,2,5,,,,,,,0.005248375004157424,118.0411368329078,118.0411368329078,119.05553262494504,119.45477254199795,119.67437945795245,119.67437945795245,119.67437945795245,121.02116887492593,121.04093454196118,121.04093454196118,121.04093454196118,4.0299289169488475,122.0211702499073,200003,004,2023-03-22_13h30.05.434,DMS_BEST_eyetracking_DAN_base_12-36_looped_10minWORKING,2022.2.4,None,
1,PRED,12,0.6844991033503903,1,images/picture_2.png,images/picture_1.png,0,"[-11.733433509789462, 11.733433509789464]",-11.733433509789462,11.733433509789464,images/picture_2.png,1,"[11.733433509789462, -11.733433509789466]",11.733433509789462,-11.733433509789464,images/picture_3.png,2,"[-11.733433509789466, -11.733433509789462]",-11.733433509789464,-11.733433509789462,0,1,1,0.6844991033503903,1.6844991033503902,1.3155008966496098,3,1,1.4344991033503902,0,0,0,0,0,0,3,3,1,,,,,,,,,,,,,,,,,,,,,200003,004,2023-03-22_13h30.05.434,DMS_BEST_eyetracking_DAN_base_12-36_looped_10minWORKING,2022.2.4,None,
1,PRED,12,0.6844991033503903,1,images/picture_2.png,images/picture_1.png,0,"[-11.733433509789462, 11.733433509789464]",-11.733433509789462,11.733433509789464,images/picture_2.png,1,"[11.733433509789462, -11.733433509789466]",11.733433509789462,-11.733433509789464,images/picture_3.png,2,"[-11.733433509789466, -11.733433509789462]",-11.733433509789464,-11.733433509789462,0,1,1,0.6844991033503903,1.6844991033503902,1.3155008966496098,3,1,1.4344991033503902,0,0,0,0,0,0,3,3,1,,,,,,,0.004810874932445586,122.07441741693765,122.07441741693765,123.08788841695059,123.52117320790421,123.74103862489574,123.74103862489574,123.74103862489574,125.05455370794516,125.05455370794516,125.05455370794516,125.05455370794516,4.030174999963492,126.05454166699201,200003,004,2023-03-22_13h30.05.434,DMS_BEST_eyetracking_DAN_base_12-36_looped_10minWORKING,2022.2.4,None,
8,PRED,12,0.652029832137516,1,images/picture_2.png,images/picture_1.png,0,"[-11.733433509789466, -11.733433509789462]",-11.733433509789464,-11.733433509789462,images/picture_2.png,1,"[11.733433509789462, -11.733433509789466]",11.733433509789462,-11.733433509789464,images/picture_3.png,2,"[-11.733433509789462, 11.733433509789464]",-11.733433509789462,11.733433509789464,0,1,1,0.652029832137516,1.6520298321375158,1.3479701678624842,3,1,1.4020298321375158,0,0,0,0,0,0,4,4,8,,,,,,,,,,,,,,,,,,,,,200003,004,2023-03-22_13h30.05.434,DMS_BEST_eyetracking_DAN_base_12-36_looped_10minWORKING,2022.2.4,None,
8,PRED,12,0.652029832137516,1,images/picture_2.png,images/picture_1.png,0,"[-11.733433509789466, -11.733433509789462]",-11.733433509789464,-11.733433509789462,images/picture_2.png,1,"[11.733433509789462, -11.733433509789466]",11.733433509789462,-11.733433509789464,images/picture_3.png,2,"[-11.733433509789462, 11.733433509789464]",-11.733433509789462,11.733433509789464,0,1,1,0.652029832137516,1.6520298321375158,1.3479701678624842,3,1,1.4020298321375158,0,0,0,0,0,0,4,4,8,,,,,,,0.0021479170536622405,126.087199667003,126.087199667003,127.08793583291117,127.48760887491517,127.74129529192578,127.74129529192578,127.74129529192578,129.0878463749541,129.0878463749541,129.0878463749541,129.0878463749541,3.9976389589719474,130.10782949998975,200003,004,2023-03-22_13h30.05.434,DMS_BEST_eyetracking_DAN_base_12-36_looped_10minWORKING,2022.2.4,None,
2,PRED,12,0.5978630544157932,1,images/picture_2.png,images/picture_1.png,0,"[-11.733433509789462, 11.733433509789464]",-11.733433509789462,11.733433509789464,images/picture_2.png,1,"[11.733433509789462, -11.733433509789466]",11.733433509789462,-11.733433509789464,images/picture_3.png,2,"[-11.733433509789466, -11.733433509789462]",-11.733433509789464,-11.733433509789462,0,1,1,0.5978630544157932,1.5978630544157932,1.4021369455842068,3,1,1.3478630544157932,0,0,0,0,0,0,5,5,2,,,,,,,,,,,,,,,,,,,,,200003,004,2023-03-22_13h30.05.434,DMS_BEST_eyetracking_DAN_base_12-36_looped_10minWORKING,2022.2.4,None,
2,PRED,12,0.5978630544157932,1,images/picture_2.png,images/picture_1.png,0,"[-11.733433509789462, 11.733433509789464]",-11.733433509789462,11.733433509789464,images/picture_2.png,1,"[11.733433509789462, -11.733433509789466]",11.733433509789462,-11.733433509789464,images/picture_3.png,2,"[-11.733433509789466, -11.733433509789462]",-11.733433509789464,-11.733433509789462,0,1,1,0.5978630544157932,1.5978630544157932,1.4021369455842068,3,1,1.3478630544157932,0,0,0,0,0,0,5,5,2,,,,,,,0.005114207975566387,130.10782949998975,130.10782949998975,131.12124320794828,131.45471600000747,131.68760970793664,131.68760970793664,131.68760970793664,133.08785445790272,133.08785445790272,133.08785445790272,133.08785445790272,4.0296581669244915,134.0879605419468,200003,004,2023-03-22_13h30.05.434,DMS_BEST_eyetracking_DAN_base_12-36_looped_10minWORKING,2022.2.4,None,
7,PRED,12,1.0584840173737884,1,images/picture_2.png,images/picture_1.png,0,"[11.733433509789462, -11.733433509789466]",11.733433509789462,-11.733433509789464,images/picture_2.png,1,"[-11.733433509789462, 11.733433509789464]",-11.733433509789462,11.733433509789464,images/picture_3.png,2,"[-11.733433509789466, -11.733433509789462]",-11.733433509789464,-11.733433509789462,0,1,1,1.0584840173737884,2.0584840173737886,0.9415159826262116,3,1,1.8084840173737888,0,0,0,0,0,0,6,6,7,,,,,,,,,,,,,,,,,,,,,200003,004,2023-03-22_13h30.05.434,DMS_BEST_eyetracking_DAN_base_12-36_looped_10minWORKING,2022.2.4,None,
7,PRED,12,1.0584840173737884,1,images/picture_2.png,images/picture_1.png,0,"[11.733433509789462, -11.733433509789466]",11.733433509789462,-11.733433509789464,images/picture_2.png,1,"[-11.733433509789462, 11.733433509789464]",-11.733433509789462,11.733433509789464,images/picture_3.png,2,"[-11.733433509789466, -11.733433509789462]",-11.733433509789464,-11.733433509789462,0,1,1,1.0584840173737884,2.0584840173737886,0.9415159826262116,3,1,1.8084840173737888,0,0,0,0,0,0,6,6,7,,,,,,,0.004783499985933304,134.14102929190267,134.14102929190267,135.15425304195378,135.95427845790982,136.17349208297674,136.17349208297674,136.17349208297674,137.12120145792142,137.12120145792142,137.12120145792142,137.12120145792142,4.030624333070591,138.12134762492497,200003,004,2023-03-22_13h30.05.434,DMS_BEST_eyetracking_DAN_base_12-36_looped_10minWORKING,2022.2.4,None,
3,PRED,12,0.6602056684434219,1,images/picture_2.png,images/picture_1.png,0,"[11.733433509789462, -11.733433509789466]",11.733433509789462,-11.733433509789464,images/picture_2.png,1,"[-11.733433509789462, 11.733433509789464]",-11.733433509789462,11.733433509789464,images/picture_3.png,2,"[11.733433509789464, 11.733433509789462]",11.733433509789464,11.733433509789462,0,1,1,0.6602056684434219,1.660205668443422,1.339794331556578,3,1,1.410205668443422,0,0,0,0,0,0,7,7,3,,,,,,,,,,,,,,,,,,,,,200003,004,2023-03-22_13h30.05.434,DMS_BEST_eyetracking_DAN_base_12-36_looped_10minWORKING,2022.2.4,None,
3,PRED,12,0.6602056684434219,1,images/picture_2.png,images/picture_1.png,0,"[11.733433509789462, -11.733433509789466]",11.733433509789462,-11.733433509789464,images/picture_2.png,1,"[-11.733433509789462, 11.733433509789464]",-11.733433509789462,11.733433509789464,images/picture_3.png,2,"[11.733433509789464, 11.733433509789462]",11.733433509789464,11.733433509789462,0,1,1,0.6602056684434219,1.660205668443422,1.339794331556578,3,1,1.410205668443422,0,0,0,0,0,0,7,7,3,,,,,,,0.0053765419870615005,138.1742394999601,138.1742394999601,139.18797649990302,139.58796187490225,139.80770024994854,139.80770024994854,139.80770024994854,141.15474512497894,141.15474512497894,141.15474512497894,141.15474512497894,4.029110083007254,142.15463883290067,200003,004,2023-03-22_13h30.05.434,DMS_BEST_eyetracking_DAN_base_12-36_looped_10minWORKING,2022.2.4,None,
0,PRED,12,1.085968388404266,1,images/picture_2.png,images/picture_1.png,0,"[-11.733433509789462, 11.733433509789464]",-11.733433509789462,11.733433509789464,images/picture_2.png,1,"[11.733433509789462, -11.733433509789466]",11.733433509789462,-11.733433509789464,images/picture_3.png,2,"[11.733433509789464, 11.733433509789462]",11.733433509789464,11.733433509789462,0,1,1,1.085968388404266,2.085968388404266,0.914031611595734,3,1,1.835968388404266,0,0,0,0,0,0,8,8,0,,,,,,,,,,,,,,,,,,,,,200003,004,2023-03-22_13h30.05.434,DMS_BEST_eyetracking_DAN_base_12-36_looped_10minWORKING,2022.2.4,None,
0,PRED,12,1.085968388404266,1,images/picture_2.png,images/picture_1.png,0,"[-11.733433509789462, 11.733433509789464]",-11.733433509789462,11.733433509789464,images/picture_2.png,1,"[11.733433509789462, -11.733433509789466]",11.733433509789462,-11.733433509789464,images/picture_3.png,2,"[11.733433509789464, 11.733433509789462]",11.733433509789464,11.733433509789462,0,1,1,1.085968388404266,2.085968388404266,0.914031611595734,3,1,1.835968388404266,0,0,0,0,0,0,8,8,0,,,,,,,0.005013374960981309,142.20769079192542,142.20769079192542,143.22135741694365,144.05466345790774,144.27444629196543,144.27444629196543,144.27444629196543,145.18796299991664,145.18796299991664,145.18796299991664,145.18796299991664,4.029395167017356,146.1875769579783,200003,004,2023-03-22_13h30.05.434,DMS_BEST_eyetracking_DAN_base_12-36_looped_10minWORKING,2022.2.4,None,
,,,,,,,,,,,,,,,,,,,,,,,,,,,,,,,0,0,0,0,,,,,,,,,146.2404155419208,158.2961432079319,,,,,,,,,,,,,,,200003,004,2023-03-22_13h30.05.434,DMS_BEST_eyetracking_DAN_base_12-36_looped_10minWORKING,2022.2.4,None,
15,UNPRED,12,0.6372711349070641,2,images/picture_3.png,images/picture_1.png,0,"[11.733433509789464, 11.733433509789462]",11.733433509789464,11.733433509789462,images/picture_2.png,1,"[11.733433509789462, -11.733433509789466]",11.733433509789462,-11.733433509789464,images/picture_3.png,2,"[-11.733433509789462, 11.733433509789464]",-11.733433509789462,11.733433509789464,0,1,1,0.6372711349070641,1.6372711349070639,1.3627288650929361,3,1,1.3872711349070639,0,1,0,1,0,0,0,0,6,,,,,,,,,,,,,,,,,,,,,200003,004,2023-03-22_13h30.05.434,DMS_BEST_eyetracking_DAN_base_12-36_looped_10minWORKING,2022.2.4,None,
15,UNPRED,12,0.6372711349070641,2,images/picture_3.png,images/picture_1.png,0,"[11.733433509789464, 11.733433509789462]",11.733433509789464,11.733433509789462,images/picture_2.png,1,"[11.733433509789462, -11.733433509789466]",11.733433509789462,-11.733433509789464,images/picture_3.png,2,"[-11.733433509789462, 11.733433509789464]",-11.733433509789462,11.733433509789464,0,1,1,0.6372711349070641,1.6372711349070639,1.3627288650929361,3,1,1.3872711349070639,0,1,0,1,0,0,0,0,6,,,,,,,0.02105708292219788,158.2961432079319,158.2961432079319,159.3073478329461,159.6881099579623,159.90687733294908,159.90687733294908,159.90687733294908,161.2743093749741,161.2743093749741,161.2743093749741,161.2743093749741,4.0203976249322295,162.28795062494464,200003,004,2023-03-22_13h30.05.434,DMS_BEST_eyetracking_DAN_base_12-36_looped_10minWORKING,2022.2.4,None,
11,UNPRED,12,0.507640114684306,0,images/picture_1.png,images/picture_1.png,0,"[-11.733433509789462, 11.733433509789464]",-11.733433509789462,11.733433509789464,images/picture_2.png,1,"[-11.733433509789466, -11.733433509789462]",-11.733433509789464,-11.733433509789462,images/picture_3.png,2,"[11.733433509789464, 11.733433509789462]",11.733433509789464,11.733433509789462,0,1,1,0.507640114684306,1.5076401146843057,1.4923598853156943,3,1,1.257640114684306,0,1,0,1,0,0,1,1,2,,,,,,,,,,,,,,,,,,,,,200003,004,2023-03-22_13h30.05.434,DMS_BEST_eyetracking_DAN_base_12-36_looped_10minWORKING,2022.2.4,None,
11,UNPRED,12,0.507640114684306,0,images/picture_1.png,images/picture_1.png,0,"[-11.733433509789462, 11.733433509789464]",-11.733433509789462,11.733433509789464,images/picture_2.png,1,"[-11.733433509789466, -11.733433509789462]",-11.733433509789464,-11.733433509789462,images/picture_3.png,2,"[11.733433509789464, 11.733433509789462]",11.733433509789464,11.733433509789462,0,1,1,0.507640114684306,1.5076401146843057,1.4923598853156943,3,1,1.257640114684306,0,1,0,1,0,0,1,1,2,,,,,,,0.008055833051912487,162.3087238749722,162.3087238749722,163.32139016699512,163.57381620793603,163.80775808298495,163.80775808298495,163.80775808298495,165.3078682499472,165.3078682499472,165.3078682499472,165.3078682499472,4.014419833081774,166.32058729196433,200003,004,2023-03-22_13h30.05.434,DMS_BEST_eyetracking_DAN_base_12-36_looped_10minWORKING,2022.2.4,None,
9,UNPRED,12,0.6576804543211954,1,images/picture_2.png,images/picture_1.png,0,"[-11.733433509789466, -11.733433509789462]",-11.733433509789464,-11.733433509789462,images/picture_2.png,1,"[11.733433509789462, -11.733433509789466]",11.733433509789462,-11.733433509789464,images/picture_3.png,2,"[11.733433509789464, 11.733433509789462]",11.733433509789464,11.733433509789462,0,1,1,0.6576804543211954,1.6576804543211954,1.3423195456788046,3,1,1.4076804543211954,0,1,0,1,0,0,2,2,0,,,,,,,,,,,,,,,,,,,,,200003,004,2023-03-22_13h30.05.434,DMS_BEST_eyetracking_DAN_base_12-36_looped_10minWORKING,2022.2.4,None,
9,UNPRED,12,0.6576804543211954,1,images/picture_2.png,images/picture_1.png,0,"[-11.733433509789466, -11.733433509789462]",-11.733433509789464,-11.733433509789462,images/picture_2.png,1,"[11.733433509789462, -11.733433509789466]",11.733433509789462,-11.733433509789464,images/picture_3.png,2,"[11.733433509789464, 11.733433509789462]",11.733433509789464,11.733433509789462,0,1,1,0.6576804543211954,1.6576804543211954,1.3423195456788046,3,1,1.4076804543211954,0,1,0,1,0,0,2,2,0,,,,,,,0.0035384580260142684,166.32058729196433,166.32058729196433,167.32128020795062,167.74014099990018,167.97467508295085,167.97467508295085,167.97467508295085,169.32137691695243,169.32137691695243,169.32137691695243,169.32137691695243,3.9992633749498054,170.34066633298062,200003,004,2023-03-22_13h30.05.434,DMS_BEST_eyetracking_DAN_base_12-36_looped_10minWORKING,2022.2.4,None,
10,UNPRED,12,0.7986170711461928,1,images/picture_2.png,images/picture_1.png,0,"[11.733433509789464, 11.733433509789462]",11.733433509789464,11.733433509789462,images/picture_2.png,1,"[-11.733433509789466, -11.733433509789462]",-11.733433509789464,-11.733433509789462,images/picture_3.png,2,"[11.733433509789462, -11.733433509789466]",11.733433509789462,-11.733433509789464,0,1,1,0.7986170711461928,1.7986170711461928,1.2013829288538072,3,1,1.5486170711461928,0,1,0,1,0,0,3,3,1,,,,,,,,,,,,,,,,,,,,,200003,004,2023-03-22_13h30.05.434,DMS_BEST_eyetracking_DAN_base_12-36_looped_10minWORKING,2022.2.4,None,
10,UNPRED,12,0.7986170711461928,1,images/picture_2.png,images/picture_1.png,0,"[11.733433509789464, 11.733433509789462]",11.733433509789464,11.733433509789462,images/picture_2.png,1,"[-11.733433509789466, -11.733433509789462]",-11.733433509789464,-11.733433509789462,images/picture_3.png,2,"[11.733433509789462, -11.733433509789466]",11.733433509789462,-11.733433509789464,0,1,1,0.7986170711461928,1.7986170711461928,1.2013829288538072,3,1,1.5486170711461928,0,1,0,1,0,0,3,3,1,,,,,,,0.005085791926831007,170.34066633298062,170.34066633298062,171.3546994579956,171.8879656669451,172.12118199991528,172.12118199991528,172.12118199991528,173.32128579192795,173.32128579192795,173.32128579192795,173.32128579192795,4.029701833962463,174.32123308291193,200003,004,2023-03-22_13h30.05.434,DMS_BEST_eyetracking_DAN_base_12-36_looped_10minWORKING,2022.2.4,None,
13,UNPRED,12,0.6825613813057582,0,images/picture_1.png,images/picture_1.png,0,"[11.733433509789462, -11.733433509789466]",11.733433509789462,-11.733433509789464,images/picture_2.png,1,"[-11.733433509789466, -11.733433509789462]",-11.733433509789464,-11.733433509789462,images/picture_3.png,2,"[-11.733433509789462, 11.733433509789464]",-11.733433509789462,11.733433509789464,0,1,1,0.6825613813057582,1.6825613813057585,1.3174386186942415,3,1,1.4325613813057585,0,1,0,1,0,0,4,4,4,,,,,,,,,,,,,,,,,,,,,200003,004,2023-03-22_13h30.05.434,DMS_BEST_eyetracking_DAN_base_12-36_looped_10minWORKING,2022.2.4,None,
13,UNPRED,12,0.6825613813057582,0,images/picture_1.png,images/picture_1.png,0,"[11.733433509789462, -11.733433509789466]",11.733433509789462,-11.733433509789464,images/picture_2.png,1,"[-11.733433509789466, -11.733433509789462]",-11.733433509789464,-11.733433509789462,images/picture_3.png,2,"[-11.733433509789462, 11.733433509789464]",-11.733433509789462,11.733433509789464,0,1,1,0.6825613813057582,1.6825613813057585,1.3174386186942415,3,1,1.4325613813057585,0,1,0,1,0,0,4,4,4,,,,,,,0.004728500032797456,174.37463449989446,174.37463449989446,175.38791216700338,175.82138937490527,176.0411926669767,176.0411926669767,176.0411926669767,177.35448095796164,177.37356658291537,177.37356658291537,177.37356658291537,4.029209916945547,178.35468370793387,200003,004,2023-03-22_13h30.05.434,DMS_BEST_eyetracking_DAN_base_12-36_looped_10minWORKING,2022.2.4,None,
12,UNPRED,12,0.6228454604180496,0,images/picture_1.png,images/picture_1.png,0,"[-11.733433509789466, -11.733433509789462]",-11.733433509789464,-11.733433509789462,images/picture_2.png,1,"[-11.733433509789462, 11.733433509789464]",-11.733433509789462,11.733433509789464,images/picture_3.png,2,"[11.733433509789462, -11.733433509789466]",11.733433509789462,-11.733433509789464,0,1,1,0.6228454604180496,1.6228454604180496,1.3771545395819504,3,1,1.3728454604180496,0,1,0,1,0,0,5,5,3,,,,,,,,,,,,,,,,,,,,,200003,004,2023-03-22_13h30.05.434,DMS_BEST_eyetracking_DAN_base_12-36_looped_10minWORKING,2022.2.4,None,
12,UNPRED,12,0.6228454604180496,0,images/picture_1.png,images/picture_1.png,0,"[-11.733433509789466, -11.733433509789462]",-11.733433509789464,-11.733433509789462,images/picture_2.png,1,"[-11.733433509789462, 11.733433509789464]",-11.733433509789462,11.733433509789464,images/picture_3.png,2,"[11.733433509789462, -11.733433509789466]",11.733433509789462,-11.733433509789464,0,1,1,0.6228454604180496,1.6228454604180496,1.3771545395819504,3,1,1.3728454604180496,0,1,0,1,0,0,5,5,3,,,,,,,0.003556958050467074,178.38878562499303,178.38878562499303,179.38790374994278,179.77445987495594,180.0078161249403,180.0078161249403,180.0078161249403,181.38794183300342,181.38794183300342,181.38794183300342,181.38794183300342,3.997050791978836,182.38849225000013,200003,004,2023-03-22_13h30.05.434,DMS_BEST_eyetracking_DAN_base_12-36_looped_10minWORKING,2022.2.4,None,
17,UNPRED,12,0.9936259742508848,0,images/picture_1.png,images/picture_1.png,0,"[-11.733433509789466, -11.733433509789462]",-11.733433509789464,-11.733433509789462,images/picture_2.png,1,"[-11.733433509789462, 11.733433509789464]",-11.733433509789462,11.733433509789464,images/picture_3.png,2,"[11.733433509789462, -11.733433509789466]",11.733433509789462,-11.733433509789464,0,1,1,0.9936259742508848,1.9936259742508848,1.0063740257491154,3,1,1.7436259742508846,0,1,0,1,0,0,6,6,8,,,,,,,,,,,,,,,,,,,,,200003,004,2023-03-22_13h30.05.434,DMS_BEST_eyetracking_DAN_base_12-36_looped_10minWORKING,2022.2.4,None,
17,UNPRED,12,0.9936259742508848,0,images/picture_1.png,images/picture_1.png,0,"[-11.733433509789466, -11.733433509789462]",-11.733433509789464,-11.733433509789462,images/picture_2.png,1,"[-11.733433509789462, 11.733433509789464]",-11.733433509789462,11.733433509789464,images/picture_3.png,2,"[11.733433509789462, -11.733433509789466]",11.733433509789462,-11.733433509789464,0,1,1,0.9936259742508848,1.9936259742508848,1.0063740257491154,3,1,1.7436259742508846,0,1,0,1,0,0,6,6,8,,,,,,,0.0033847499871626496,182.38849225000013,182.38849225000013,183.38795683300123,184.14077220798936,184.3744851249503,184.3744851249503,184.3744851249503,185.38788191694766,185.38788191694766,185.38788191694766,185.38788191694766,3.997683708090335,186.40832849999424,200003,004,2023-03-22_13h30.05.434,DMS_BEST_eyetracking_DAN_base_12-36_looped_10minWORKING,2022.2.4,None,
16,UNPRED,12,1.111927923390302,0,images/picture_1.png,images/picture_1.png,0,"[11.733433509789462, -11.733433509789466]",11.733433509789462,-11.733433509789464,images/picture_2.png,1,"[11.733433509789464, 11.733433509789462]",11.733433509789464,11.733433509789462,images/picture_3.png,2,"[-11.733433509789462, 11.733433509789464]",-11.733433509789462,11.733433509789464,0,1,1,1.111927923390302,2.1119279233903017,0.8880720766096979,3,1,1.8619279233903017,0,1,0,1,0,0,7,7,7,,,,,,,,,,,,,,,,,,,,,200003,004,2023-03-22_13h30.05.434,DMS_BEST_eyetracking_DAN_base_12-36_looped_10minWORKING,2022.2.4,None,
16,UNPRED,12,1.111927923390302,0,images/picture_1.png,images/picture_1.png,0,"[11.733433509789462, -11.733433509789466]",11.733433509789462,-11.733433509789464,images/picture_2.png,1,"[11.733433509789464, 11.733433509789462]",11.733433509789464,11.733433509789462,images/picture_3.png,2,"[-11.733433509789462, 11.733433509789464]",-11.733433509789462,11.733433509789464,0,1,1,1.111927923390302,2.1119279233903017,0.8880720766096979,3,1,1.8619279233903017,0,1,0,1,0,0,7,7,7,,,,,,,0.0034338339464738965,186.40832849999424,186.40832849999424,187.4211477499921,188.27419383300003,188.48776258295402,188.48776258295402,188.48776258295402,189.38819899992086,189.38819899992086,189.38819899992086,189.38819899992086,4.029439833946526,190.388135666959,200003,004,2023-03-22_13h30.05.434,DMS_BEST_eyetracking_DAN_base_12-36_looped_10minWORKING,2022.2.4,None,
14,UNPRED,12,0.9117375725030024,2,images/picture_3.png,images/picture_1.png,0,"[-11.733433509789462, 11.733433509789464]",-11.733433509789462,11.733433509789464,images/picture_2.png,1,"[-11.733433509789466, -11.733433509789462]",-11.733433509789464,-11.733433509789462,images/picture_3.png,2,"[11.733433509789464, 11.733433509789462]",11.733433509789464,11.733433509789462,0,1,1,0.9117375725030024,1.9117375725030024,1.0882624274969976,3,1,1.6617375725030024,0,1,0,1,0,0,8,8,5,,,,,,,,,,,,,,,,,,,,,200003,004,2023-03-22_13h30.05.434,DMS_BEST_eyetracking_DAN_base_12-36_looped_10minWORKING,2022.2.4,None,
14,UNPRED,12,0.9117375725030024,2,images/picture_3.png,images/picture_1.png,0,"[-11.733433509789462, 11.733433509789464]",-11.733433509789462,11.733433509789464,images/picture_2.png,1,"[-11.733433509789466, -11.733433509789462]",-11.733433509789464,-11.733433509789462,images/picture_3.png,2,"[11.733433509789464, 11.733433509789462]",11.733433509789464,11.733433509789462,0,1,1,0.9117375725030024,1.9117375725030024,1.0882624274969976,3,1,1.6617375725030024,0,1,0,1,0,0,8,8,5,,,,,,,0.022529750014655292,190.4413820829941,190.4413820829941,191.4548841669457,192.10742983291857,192.32104750000872,192.32104750000872,192.32104750000872,193.42140254192054,193.42140254192054,193.42140254192054,193.42140254192054,4.030040999990888,194.4213748750044,200003,004,2023-03-22_13h30.05.434,DMS_BEST_eyetracking_DAN_base_12-36_looped_10minWORKING,2022.2.4,None,
,,,,,,,,,,,,,,,,,,,,,,,,,,,,,,,1,0,1,0,,,,,,,,,194.49957304191776,206.52315420797095,,,,,,,,,,,,,,,200003,004,2023-03-22_13h30.05.434,DMS_BEST_eyetracking_DAN_base_12-36_looped_10minWORKING,2022.2.4,None,
25,PRED,12,1.135164988758909,0,images/picture_1.png,images/picture_1.png,0,"[11.733433509789462, -11.733433509789466]",11.733433509789462,-11.733433509789464,images/picture_2.png,1,"[11.733433509789464, 11.733433509789462]",11.733433509789464,11.733433509789462,images/picture_3.png,2,"[-11.733433509789462, 11.733433509789464]",-11.733433509789462,11.733433509789464,0,1,1,1.135164988758909,2.135164988758909,0.8648350112410909,3,1,1.885164988758909,0,2,0,2,0,0,0,0,7,,,,,,,,,,,,,,,,,,,,,200003,004,2023-03-22_13h30.05.434,DMS_BEST_eyetracking_DAN_base_12-36_looped_10minWORKING,2022.2.4,None,
25,PRED,12,1.135164988758909,0,images/picture_1.png,images/picture_1.png,0,"[11.733433509789462, -11.733433509789466]",11.733433509789462,-11.733433509789464,images/picture_2.png,1,"[11.733433509789464, 11.733433509789462]",11.733433509789464,11.733433509789462,images/picture_3.png,2,"[-11.733433509789462, 11.733433509789464]",-11.733433509789462,11.733433509789464,0,1,1,1.135164988758909,2.135164988758909,0.8648350112410909,3,1,1.885164988758909,0,2,0,2,0,0,0,0,7,,,,,,,0.004936041077598929,206.52315420797095,206.52315420797095,207.52092479192652,208.42111645790283,208.65448345791083,208.65448345791083,208.65448345791083,209.52155754191335,209.52155754191335,209.52155754191335,209.52155754191335,3.997083791065961,210.52179383300245,200003,004,2023-03-22_13h30.05.434,DMS_BEST_eyetracking_DAN_base_12-36_looped_10minWORKING,2022.2.4,None,
22,PRED,12,0.7995331296193963,0,images/picture_1.png,images/picture_1.png,0,"[-11.733433509789466, -11.733433509789462]",-11.733433509789464,-11.733433509789462,images/picture_2.png,1,"[11.733433509789464, 11.733433509789462]",11.733433509789464,11.733433509789462,images/picture_3.png,2,"[11.733433509789462, -11.733433509789466]",11.733433509789462,-11.733433509789464,0,1,1,0.7995331296193963,1.7995331296193964,1.2004668703806036,3,1,1.5495331296193964,0,2,0,2,0,0,1,1,4,,,,,,,,,,,,,,,,,,,,,200003,004,2023-03-22_13h30.05.434,DMS_BEST_eyetracking_DAN_base_12-36_looped_10minWORKING,2022.2.4,None,
22,PRED,12,0.7995331296193963,0,images/picture_1.png,images/picture_1.png,0,"[-11.733433509789466, -11.733433509789462]",-11.733433509789464,-11.733433509789462,images/picture_2.png,1,"[11.733433509789464, 11.733433509789462]",11.733433509789464,11.733433509789462,images/picture_3.png,2,"[11.733433509789462, -11.733433509789466]",11.733433509789462,-11.733433509789464,0,1,1,0.7995331296193963,1.7995331296193964,1.2004668703806036,3,1,1.5495331296193964,0,2,0,2,0,0,1,1,4,,,,,,,0.0034424590412527323,210.52179383300245,210.52179383300245,211.52143641700968,212.07419470790774,212.32112804194912,212.32112804194912,212.32112804194912,213.52139308291953,213.52139308291953,213.52139308291953,213.52139308291953,3.996926667052321,214.541299332981,200003,004,2023-03-22_13h30.05.434,DMS_BEST_eyetracking_DAN_base_12-36_looped_10minWORKING,2022.2.4,None,
23,PRED,12,0.8196202228761961,0,images/picture_1.png,images/picture_1.png,0,"[-11.733433509789466, -11.733433509789462]",-11.733433509789464,-11.733433509789462,images/picture_2.png,1,"[11.733433509789464, 11.733433509789462]",11.733433509789464,11.733433509789462,images/picture_3.png,2,"[11.733433509789462, -11.733433509789466]",11.733433509789462,-11.733433509789464,0,1,1,0.8196202228761961,1.819620222876196,1.1803797771238038,3,1,1.5696202228761962,0,2,0,2,0,0,2,2,5,,,,,,,,,,,,,,,,,,,,,200003,004,2023-03-22_13h30.05.434,DMS_BEST_eyetracking_DAN_base_12-36_looped_10minWORKING,2022.2.4,None,
23,PRED,12,0.8196202228761961,0,images/picture_1.png,images/picture_1.png,0,"[-11.733433509789466, -11.733433509789462]",-11.733433509789464,-11.733433509789462,images/picture_2.png,1,"[11.733433509789464, 11.733433509789462]",11.733433509789464,11.733433509789462,images/picture_3.png,2,"[11.733433509789462, -11.733433509789466]",11.733433509789462,-11.733433509789464,0,1,1,0.8196202228761961,1.819620222876196,1.1803797771238038,3,1,1.5696202228761962,0,2,0,2,0,0,2,2,5,,,,,,,0.0037372499937191606,214.541299332981,214.541299332981,215.5546614169143,216.1214238749817,216.34126979194116,216.34126979194116,216.34126979194116,217.5209980829386,217.5209980829386,217.5209980829386,217.5209980829386,4.029629083001055,218.52108783298172,200003,004,2023-03-22_13h30.05.434,DMS_BEST_eyetracking_DAN_base_12-36_looped_10minWORKING,2022.2.4,None,
24,PRED,12,1.0877902128356105,0,images/picture_1.png,images/picture_1.png,0,"[-11.733433509789462, 11.733433509789464]",-11.733433509789462,11.733433509789464,images/picture_2.png,1,"[11.733433509789462, -11.733433509789466]",11.733433509789462,-11.733433509789464,images/picture_3.png,2,"[11.733433509789464, 11.733433509789462]",11.733433509789464,11.733433509789462,0,1,1,1.0877902128356105,2.0877902128356105,0.9122097871643896,3,1,1.8377902128356105,0,2,0,2,0,0,3,3,6,,,,,,,,,,,,,,,,,,,,,200003,004,2023-03-22_13h30.05.434,DMS_BEST_eyetracking_DAN_base_12-36_looped_10minWORKING,2022.2.4,None,
24,PRED,12,1.0877902128356105,0,images/picture_1.png,images/picture_1.png,0,"[-11.733433509789462, 11.733433509789464]",-11.733433509789462,11.733433509789464,images/picture_2.png,1,"[11.733433509789462, -11.733433509789466]",11.733433509789462,-11.733433509789464,images/picture_3.png,2,"[11.733433509789464, 11.733433509789462]",11.733433509789464,11.733433509789462,0,1,1,1.0877902128356105,2.0877902128356105,0.9122097871643896,3,1,1.8377902128356105,0,2,0,2,0,0,3,3,6,,,,,,,0.001546708052046597,218.5541817919584,218.5541817919584,219.5547030000016,220.40754354197998,220.64141712500714,220.64141712500714,220.64141712500714,221.55471766693518,221.55471766693518,221.55471766693518,221.55471766693518,3.9976306660100818,222.55523320799693,200003,004,2023-03-22_13h30.05.434,DMS_BEST_eyetracking_DAN_base_12-36_looped_10minWORKING,2022.2.4,None,
21,PRED,12,0.6724833982233754,0,images/picture_1.png,images/picture_1.png,0,"[11.733433509789464, 11.733433509789462]",11.733433509789464,11.733433509789462,images/picture_2.png,1,"[-11.733433509789466, -11.733433509789462]",-11.733433509789464,-11.733433509789462,images/picture_3.png,2,"[-11.733433509789462, 11.733433509789464]",-11.733433509789462,11.733433509789464,0,1,1,0.6724833982233754,1.672483398223375,1.327516601776625,3,1,1.422483398223375,0,2,0,2,0,0,4,4,3,,,,,,,,,,,,,,,,,,,,,200003,004,2023-03-22_13h30.05.434,DMS_BEST_eyetracking_DAN_base_12-36_looped_10minWORKING,2022.2.4,None,
21,PRED,12,0.6724833982233754,0,images/picture_1.png,images/picture_1.png,0,"[11.733433509789464, 11.733433509789462]",11.733433509789464,11.733433509789462,images/picture_2.png,1,"[-11.733433509789466, -11.733433509789462]",-11.733433509789464,-11.733433509789462,images/picture_3.png,2,"[-11.733433509789462, 11.733433509789464]",-11.733433509789462,11.733433509789464,0,1,1,0.6724833982233754,1.672483398223375,1.327516601776625,3,1,1.422483398223375,0,2,0,2,0,0,4,4,3,,,,,,,0.0033993329852819443,222.55523320799693,222.55523320799693,223.55472541693598,223.987963499967,224.2210221249843,224.2210221249843,224.2210221249843,225.55467045796104,225.55467045796104,225.55467045796104,225.55467045796104,3.997405375004746,226.55578504200093,200003,004,2023-03-22_13h30.05.434,DMS_BEST_eyetracking_DAN_base_12-36_looped_10minWORKING,2022.2.4,None,
26,PRED,12,0.5262462588301637,0,images/picture_1.png,images/picture_1.png,0,"[-11.733433509789462, 11.733433509789464]",-11.733433509789462,11.733433509789464,images/picture_2.png,1,"[11.733433509789464, 11.733433509789462]",11.733433509789464,11.733433509789462,images/picture_3.png,2,"[11.733433509789462, -11.733433509789466]",11.733433509789462,-11.733433509789464,0,1,1,0.5262462588301637,1.5262462588301635,1.4737537411698365,3,1,1.2762462588301635,0,2,0,2,0,0,5,5,8,,,,,,,,,,,,,,,,,,,,,200003,004,2023-03-22_13h30.05.434,DMS_BEST_eyetracking_DAN_base_12-36_looped_10minWORKING,2022.2.4,None,
26,PRED,12,0.5262462588301637,0,images/picture_1.png,images/picture_1.png,0,"[-11.733433509789462, 11.733433509789464]",-11.733433509789462,11.733433509789464,images/picture_2.png,1,"[11.733433509789464, 11.733433509789462]",11.733433509789464,11.733433509789462,images/picture_3.png,2,"[11.733433509789462, -11.733433509789466]",11.733433509789462,-11.733433509789464,0,1,1,0.5262462588301637,1.5262462588301635,1.4737537411698365,3,1,1.2762462588301635,0,2,0,2,0,0,5,5,8,,,,,,,0.003394249943085015,226.55578504200093,226.55578504200093,227.55473433295265,227.84037620795425,228.07334050000645,228.07334050000645,228.07334050000645,229.55466037499718,229.55466037499718,229.55466037499718,229.55466037499718,3.9969361249823123,230.57431033300236,200003,004,2023-03-22_13h30.05.434,DMS_BEST_eyetracking_DAN_base_12-36_looped_10minWORKING,2022.2.4,None,
19,PRED,12,0.6206013050642262,0,images/picture_1.png,images/picture_1.png,0,"[-11.733433509789462, 11.733433509789464]",-11.733433509789462,11.733433509789464,images/picture_2.png,1,"[-11.733433509789466, -11.733433509789462]",-11.733433509789464,-11.733433509789462,images/picture_3.png,2,"[11.733433509789464, 11.733433509789462]",11.733433509789464,11.733433509789462,0,1,1,0.6206013050642262,1.6206013050642258,1.3793986949357742,3,1,1.3706013050642258,0,2,0,2,0,0,6,6,1,,,,,,,,,,,,,,,,,,,,,200003,004,2023-03-22_13h30.05.434,DMS_BEST_eyetracking_DAN_base_12-36_looped_10minWORKING,2022.2.4,None,
19,PRED,12,0.6206013050642262,0,images/picture_1.png,images/picture_1.png,0,"[-11.733433509789462, 11.733433509789464]",-11.733433509789462,11.733433509789464,images/picture_2.png,1,"[-11.733433509789466, -11.733433509789462]",-11.733433509789464,-11.733433509789462,images/picture_3.png,2,"[11.733433509789464, 11.733433509789462]",11.733433509789464,11.733433509789462,0,1,1,0.6206013050642262,1.6206013050642258,1.3793986949357742,3,1,1.3706013050642258,0,2,0,2,0,0,6,6,1,,,,,,,0.003934209002181888,230.57431033300236,230.57431033300236,231.58763008296955,231.95486408297438,232.17486591695342,232.17486591695342,232.17486591695342,233.55470599990804,233.55470599990804,233.55470599990804,233.55470599990804,4.028625875012949,234.554800957907,200003,004,2023-03-22_13h30.05.434,DMS_BEST_eyetracking_DAN_base_12-36_looped_10minWORKING,2022.2.4,None,
20,PRED,12,0.764602036569652,0,images/picture_1.png,images/picture_1.png,0,"[-11.733433509789466, -11.733433509789462]",-11.733433509789464,-11.733433509789462,images/picture_2.png,1,"[11.733433509789464, 11.733433509789462]",11.733433509789464,11.733433509789462,images/picture_3.png,2,"[11.733433509789462, -11.733433509789466]",11.733433509789462,-11.733433509789464,0,1,1,0.764602036569652,1.764602036569652,1.2353979634303478,3,1,1.514602036569652,0,2,0,2,0,0,7,7,2,,,,,,,,,,,,,,,,,,,,,200003,004,2023-03-22_13h30.05.434,DMS_BEST_eyetracking_DAN_base_12-36_looped_10minWORKING,2022.2.4,None,
20,PRED,12,0.764602036569652,0,images/picture_1.png,images/picture_1.png,0,"[-11.733433509789466, -11.733433509789462]",-11.733433509789464,-11.733433509789462,images/picture_2.png,1,"[11.733433509789464, 11.733433509789462]",11.733433509789464,11.733433509789462,images/picture_3.png,2,"[11.733433509789462, -11.733433509789466]",11.733433509789462,-11.733433509789464,0,1,1,0.764602036569652,1.764602036569652,1.2353979634303478,3,1,1.514602036569652,0,2,0,2,0,0,7,7,2,,,,,,,0.003443749970756471,234.58850262500346,234.58850262500346,235.5881351249991,236.1079091669526,236.3545340419514,236.3545340419514,236.3545340419514,237.58796279190574,237.58796279190574,237.58796279190574,237.58796279190574,3.996731666964479,238.58759179199114,200003,004,2023-03-22_13h30.05.434,DMS_BEST_eyetracking_DAN_base_12-36_looped_10minWORKING,2022.2.4,None,
18,PRED,12,0.6747303873547179,0,images/picture_1.png,images/picture_1.png,0,"[11.733433509789462, -11.733433509789466]",11.733433509789462,-11.733433509789464,images/picture_2.png,1,"[-11.733433509789466, -11.733433509789462]",-11.733433509789464,-11.733433509789462,images/picture_3.png,2,"[-11.733433509789462, 11.733433509789464]",-11.733433509789462,11.733433509789464,0,1,1,0.6747303873547179,1.6747303873547181,1.325269612645282,3,1,1.4247303873547181,0,2,0,2,0,0,8,8,0,,,,,,,,,,,,,,,,,,,,,200003,004,2023-03-22_13h30.05.434,DMS_BEST_eyetracking_DAN_base_12-36_looped_10minWORKING,2022.2.4,None,
18,PRED,12,0.6747303873547179,0,images/picture_1.png,images/picture_1.png,0,"[11.733433509789462, -11.733433509789466]",11.733433509789462,-11.733433509789464,images/picture_2.png,1,"[-11.733433509789466, -11.733433509789462]",-11.733433509789464,-11.733433509789462,images/picture_3.png,2,"[-11.733433509789462, 11.733433509789464]",-11.733433509789462,11.733433509789464,0,1,1,0.6747303873547179,1.6747303873547181,1.325269612645282,3,1,1.4247303873547181,0,2,0,2,0,0,8,8,0,,,,,,,0.0015276670455932617,238.58759179199114,238.58759179199114,239.5881522919517,240.02162749995477,240.25470833294094,240.25470833294094,240.25470833294094,241.58812320791185,241.58812320791185,241.58812320791185,241.58812320791185,3.998268667026423,242.64071262499783,200003,004,2023-03-22_13h30.05.434,DMS_BEST_eyetracking_DAN_base_12-36_looped_10minWORKING,2022.2.4,None,
,,,,,,,,,,,,,,,,,,,,,,,,,,,,,,,2,0,2,0,,,,,,,,,242.64071262499783,254.6770504169399,,,,,,,,,,,,,,,200003,004,2023-03-22_13h30.05.434,DMS_BEST_eyetracking_DAN_base_12-36_looped_10minWORKING,2022.2.4,None,
28,UNPRED,12,0.6714725648037103,1,images/picture_2.png,images/picture_1.png,0,"[-11.733433509789466, -11.733433509789462]",-11.733433509789464,-11.733433509789462,images/picture_2.png,1,"[11.733433509789462, -11.733433509789466]",11.733433509789462,-11.733433509789464,images/picture_3.png,2,"[-11.733433509789462, 11.733433509789464]",-11.733433509789462,11.733433509789464,0,1,1,0.6714725648037103,1.6714725648037103,1.3285274351962897,3,1,1.4214725648037103,0,3,0,3,0,0,0,0,1,,,,,,,,,,,,,,,,,,,,,200003,004,2023-03-22_13h30.05.434,DMS_BEST_eyetracking_DAN_base_12-36_looped_10minWORKING,2022.2.4,None,
28,UNPRED,12,0.6714725648037103,1,images/picture_2.png,images/picture_1.png,0,"[-11.733433509789466, -11.733433509789462]",-11.733433509789464,-11.733433509789462,images/picture_2.png,1,"[11.733433509789462, -11.733433509789466]",11.733433509789462,-11.733433509789464,images/picture_3.png,2,"[-11.733433509789462, 11.733433509789464]",-11.733433509789462,11.733433509789464,0,1,1,0.6714725648037103,1.6714725648037103,1.3285274351962897,3,1,1.4214725648037103,0,3,0,3,0,0,0,0,1,,,,,,,0.005105874966830015,254.6770504169399,254.6770504169399,255.68800020799972,256.1074915420031,256.34075299999677,256.34075299999677,256.34075299999677,257.6742937079398,257.6742937079398,257.6742937079398,257.6742937079398,4.008772082976066,258.6875904999906,200003,004,2023-03-22_13h30.05.434,DMS_BEST_eyetracking_DAN_base_12-36_looped_10minWORKING,2022.2.4,None,
29,UNPRED,12,0.5181601575364547,0,images/picture_1.png,images/picture_1.png,0,"[11.733433509789462, -11.733433509789466]",11.733433509789462,-11.733433509789464,images/picture_2.png,1,"[-11.733433509789462, 11.733433509789464]",-11.733433509789462,11.733433509789464,images/picture_3.png,2,"[11.733433509789464, 11.733433509789462]",11.733433509789464,11.733433509789462,0,1,1,0.5181601575364547,1.5181601575364547,1.4818398424635453,3,1,1.2681601575364547,0,3,0,3,0,0,1,1,2,,,,,,,,,,,,,,,,,,,,,200003,004,2023-03-22_13h30.05.434,DMS_BEST_eyetracking_DAN_base_12-36_looped_10minWORKING,2022.2.4,None,
29,UNPRED,12,0.5181601575364547,0,images/picture_1.png,images/picture_1.png,0,"[11.733433509789462, -11.733433509789466]",11.733433509789462,-11.733433509789464,images/picture_2.png,1,"[-11.733433509789462, 11.733433509789464]",-11.733433509789462,11.733433509789464,images/picture_3.png,2,"[11.733433509789464, 11.733433509789462]",11.733433509789464,11.733433509789462,0,1,1,0.5181601575364547,1.5181601575364547,1.4818398424635453,3,1,1.2681601575364547,0,3,0,3,0,0,1,1,2,,,,,,,0.0018837079405784607,258.6875904999906,258.6875904999906,259.6881363329012,259.95491887500975,260.20770391693804,260.20770391693804,260.20770391693804,261.68807162495796,261.68807162495796,261.68807162495796,261.68807162495796,3.9996660829056054,262.7100228329655,200003,004,2023-03-22_13h30.05.434,DMS_BEST_eyetracking_DAN_base_12-36_looped_10minWORKING,2022.2.4,None,
30,UNPRED,12,0.6513996621326421,2,images/picture_3.png,images/picture_1.png,0,"[-11.733433509789462, 11.733433509789464]",-11.733433509789462,11.733433509789464,images/picture_2.png,1,"[11.733433509789462, -11.733433509789466]",11.733433509789462,-11.733433509789464,images/picture_3.png,2,"[11.733433509789464, 11.733433509789462]",11.733433509789464,11.733433509789462,0,1,1,0.6513996621326421,1.6513996621326419,1.3486003378673581,3,1,1.4013996621326419,0,3,0,3,0,0,2,2,3,,,,,,,,,,,,,,,,,,,,,200003,004,2023-03-22_13h30.05.434,DMS_BEST_eyetracking_DAN_base_12-36_looped_10minWORKING,2022.2.4,None,
30,UNPRED,12,0.6513996621326421,2,images/picture_3.png,images/picture_1.png,0,"[-11.733433509789462, 11.733433509789464]",-11.733433509789462,11.733433509789464,images/picture_2.png,1,"[11.733433509789462, -11.733433509789466]",11.733433509789462,-11.733433509789464,images/picture_3.png,2,"[11.733433509789464, 11.733433509789462]",11.733433509789464,11.733433509789462,0,1,1,0.6513996621326421,1.6513996621326419,1.3486003378673581,3,1,1.4013996621326419,0,3,0,3,0,0,2,2,3,,,,,,,0.02449937502387911,262.7100228329655,262.7100228329655,263.72100024996325,264.12139833299443,264.34075470792595,264.34075470792595,264.34075470792595,265.68819466698915,265.68819466698915,265.68819466698915,265.68819466698915,4.029638375039212,266.68794733297545,200003,004,2023-03-22_13h30.05.434,DMS_BEST_eyetracking_DAN_base_12-36_looped_10minWORKING,2022.2.4,None,
32,UNPRED,12,0.9150724036132888,2,images/picture_3.png,images/picture_1.png,0,"[-11.733433509789462, 11.733433509789464]",-11.733433509789462,11.733433509789464,images/picture_2.png,1,"[11.733433509789462, -11.733433509789466]",11.733433509789462,-11.733433509789464,images/picture_3.png,2,"[11.733433509789464, 11.733433509789462]",11.733433509789464,11.733433509789462,0,1,1,0.9150724036132888,1.915072403613289,1.084927596386711,3,1,1.665072403613289,0,3,0,3,0,0,3,3,5,,,,,,,,,,,,,,,,,,,,,200003,004,2023-03-22_13h30.05.434,DMS_BEST_eyetracking_DAN_base_12-36_looped_10minWORKING,2022.2.4,None,
32,UNPRED,12,0.9150724036132888,2,images/picture_3.png,images/picture_1.png,0,"[-11.733433509789462, 11.733433509789464]",-11.733433509789462,11.733433509789464,images/picture_2.png,1,"[11.733433509789462, -11.733433509789466]",11.733433509789462,-11.733433509789464,images/picture_3.png,2,"[11.733433509789464, 11.733433509789462]",11.733433509789464,11.733433509789462,0,1,1,0.9150724036132888,1.915072403613289,1.084927596386711,3,1,1.665072403613289,0,3,0,3,0,0,3,3,5,,,,,,,0.018210250069387257,266.7409935829928,266.7409935829928,267.7546905420022,268.4217262919992,268.6403253749013,268.6403253749013,268.6403253749013,269.72104424994905,269.74043541692663,269.74043541692663,269.74043541692663,4.0302213340764865,270.72140462498646,200003,004,2023-03-22_13h30.05.434,DMS_BEST_eyetracking_DAN_base_12-36_looped_10minWORKING,2022.2.4,None,
33,UNPRED,12,0.7983820978916679,2,images/picture_3.png,images/picture_1.png,0,"[11.733433509789462, -11.733433509789466]",11.733433509789462,-11.733433509789464,images/picture_2.png,1,"[-11.733433509789462, 11.733433509789464]",-11.733433509789462,11.733433509789464,images/picture_3.png,2,"[11.733433509789464, 11.733433509789462]",11.733433509789464,11.733433509789462,0,1,1,0.7983820978916679,1.798382097891668,1.201617902108332,3,1,1.548382097891668,0,3,0,3,0,0,4,4,6,,,,,,,,,,,,,,,,,,,,,200003,004,2023-03-22_13h30.05.434,DMS_BEST_eyetracking_DAN_base_12-36_looped_10minWORKING,2022.2.4,None,
33,UNPRED,12,0.7983820978916679,2,images/picture_3.png,images/picture_1.png,0,"[11.733433509789462, -11.733433509789466]",11.733433509789462,-11.733433509789464,images/picture_2.png,1,"[-11.733433509789462, 11.733433509789464]",-11.733433509789462,11.733433509789464,images/picture_3.png,2,"[11.733433509789464, 11.733433509789462]",11.733433509789464,11.733433509789462,0,1,1,0.7983820978916679,1.798382097891668,1.201617902108332,3,1,1.548382097891668,0,3,0,3,0,0,4,4,6,,,,,,,0.01886712503619492,270.7740044579841,270.7740044579841,271.78813104191795,272.3213622919284,272.55458604195155,272.55458604195155,272.55458604195155,273.75485512497835,273.75485512497835,273.75485512497835,273.75485512497835,4.029715583077632,274.7546926669311,200003,004,2023-03-22_13h30.05.434,DMS_BEST_eyetracking_DAN_base_12-36_looped_10minWORKING,2022.2.4,None,
31,UNPRED,12,1.0227133837263245,0,images/picture_1.png,images/picture_1.png,0,"[11.733433509789464, 11.733433509789462]",11.733433509789464,11.733433509789462,images/picture_2.png,1,"[-11.733433509789462, 11.733433509789464]",-11.733433509789462,11.733433509789464,images/picture_3.png,2,"[-11.733433509789466, -11.733433509789462]",-11.733433509789464,-11.733433509789462,0,1,1,1.0227133837263245,2.0227133837263245,0.9772866162736756,3,1,1.7727133837263245,0,3,0,3,0,0,5,5,4,,,,,,,,,,,,,,,,,,,,,200003,004,2023-03-22_13h30.05.434,DMS_BEST_eyetracking_DAN_base_12-36_looped_10minWORKING,2022.2.4,None,
31,UNPRED,12,1.0227133837263245,0,images/picture_1.png,images/picture_1.png,0,"[11.733433509789464, 11.733433509789462]",11.733433509789464,11.733433509789462,images/picture_2.png,1,"[-11.733433509789462, 11.733433509789464]",-11.733433509789462,11.733433509789464,images/picture_3.png,2,"[-11.733433509789466, -11.733433509789462]",-11.733433509789464,-11.733433509789462,0,1,1,1.0227133837263245,2.0227133837263245,0.9772866162736756,3,1,1.7727133837263245,0,3,0,3,0,0,5,5,4,,,,,,,0.0074850000673905015,274.80786374991294,274.80786374991294,275.82146016694605,276.5881474579219,276.8075177919818,276.8075177919818,276.8075177919818,277.7881838749163,277.7881838749163,277.7881838749163,277.7881838749163,4.029438792029396,278.7882022499107,200003,004,2023-03-22_13h30.05.434,DMS_BEST_eyetracking_DAN_base_12-36_looped_10minWORKING,2022.2.4,None,
35,UNPRED,12,0.8284328964922321,2,images/picture_3.png,images/picture_1.png,0,"[-11.733433509789462, 11.733433509789464]",-11.733433509789462,11.733433509789464,images/picture_2.png,1,"[11.733433509789464, 11.733433509789462]",11.733433509789464,11.733433509789462,images/picture_3.png,2,"[-11.733433509789466, -11.733433509789462]",-11.733433509789464,-11.733433509789462,0,1,1,0.8284328964922321,1.8284328964922318,1.1715671035077682,3,1,1.5784328964922318,0,3,0,3,0,0,6,6,8,,,,,,,,,,,,,,,,,,,,,200003,004,2023-03-22_13h30.05.434,DMS_BEST_eyetracking_DAN_base_12-36_looped_10minWORKING,2022.2.4,None,
35,UNPRED,12,0.8284328964922321,2,images/picture_3.png,images/picture_1.png,0,"[-11.733433509789462, 11.733433509789464]",-11.733433509789462,11.733433509789464,images/picture_2.png,1,"[11.733433509789464, 11.733433509789462]",11.733433509789464,11.733433509789462,images/picture_3.png,2,"[-11.733433509789466, -11.733433509789462]",-11.733433509789464,-11.733433509789462,0,1,1,0.8284328964922321,1.8284328964922318,1.1715671035077682,3,1,1.5784328964922318,0,3,0,3,0,0,6,6,8,,,,,,,0.01727329206187278,278.840042833006,278.840042833006,279.8546574169304,280.4212981669698,280.6407705829479,280.6407705829479,280.6407705829479,281.8214238329092,281.8214238329092,281.8214238329092,281.8214238329092,4.030337583972141,282.82145974994637,200003,004,2023-03-22_13h30.05.434,DMS_BEST_eyetracking_DAN_base_12-36_looped_10minWORKING,2022.2.4,None,
34,UNPRED,12,0.7795304113484804,0,images/picture_1.png,images/picture_1.png,0,"[-11.733433509789466, -11.733433509789462]",-11.733433509789464,-11.733433509789462,images/picture_2.png,1,"[11.733433509789464, 11.733433509789462]",11.733433509789464,11.733433509789462,images/picture_3.png,2,"[-11.733433509789462, 11.733433509789464]",-11.733433509789462,11.733433509789464,0,1,1,0.7795304113484804,1.7795304113484804,1.2204695886515196,3,1,1.5295304113484804,0,3,0,3,0,0,7,7,7,,,,,,,,,,,,,,,,,,,,,200003,004,2023-03-22_13h30.05.434,DMS_BEST_eyetracking_DAN_base_12-36_looped_10minWORKING,2022.2.4,None,
34,UNPRED,12,0.7795304113484804,0,images/picture_1.png,images/picture_1.png,0,"[-11.733433509789466, -11.733433509789462]",-11.733433509789464,-11.733433509789462,images/picture_2.png,1,"[11.733433509789464, 11.733433509789462]",11.733433509789464,11.733433509789462,images/picture_3.png,2,"[-11.733433509789462, 11.733433509789464]",-11.733433509789462,11.733433509789464,0,1,1,0.7795304113484804,1.7795304113484804,1.2204695886515196,3,1,1.5295304113484804,0,3,0,3,0,0,7,7,7,,,,,,,0.006043582921847701,282.87483937491197,282.87483937491197,283.8882031670073,284.4074452079367,284.6212804169627,284.6212804169627,284.6212804169627,285.85469712491613,285.85469712491613,285.85469712491613,285.85469712491613,4.029703832929954,286.8548583749216,200003,004,2023-03-22_13h30.05.434,DMS_BEST_eyetracking_DAN_base_12-36_looped_10minWORKING,2022.2.4,None,
27,UNPRED,12,0.9693790419368932,1,images/picture_2.png,images/picture_1.png,0,"[-11.733433509789462, 11.733433509789464]",-11.733433509789462,11.733433509789464,images/picture_2.png,1,"[-11.733433509789466, -11.733433509789462]",-11.733433509789464,-11.733433509789462,images/picture_3.png,2,"[11.733433509789464, 11.733433509789462]",11.733433509789464,11.733433509789462,0,1,1,0.9693790419368932,1.9693790419368933,1.0306209580631067,3,1,1.7193790419368933,0,3,0,3,0,0,8,8,0,,,,,,,,,,,,,,,,,,,,,200003,004,2023-03-22_13h30.05.434,DMS_BEST_eyetracking_DAN_base_12-36_looped_10minWORKING,2022.2.4,None,
27,UNPRED,12,0.9693790419368932,1,images/picture_2.png,images/picture_1.png,0,"[-11.733433509789462, 11.733433509789464]",-11.733433509789462,11.733433509789464,images/picture_2.png,1,"[-11.733433509789466, -11.733433509789462]",-11.733433509789464,-11.733433509789462,images/picture_3.png,2,"[11.733433509789464, 11.733433509789462]",11.733433509789464,11.733433509789462,0,1,1,0.9693790419368932,1.9693790419368933,1.0306209580631067,3,1,1.7193790419368933,0,3,0,3,0,0,8,8,0,,,,,,,0.007213958888314664,286.9082867919933,286.9082867919933,287.92134837491903,288.640313791926,288.8546210419154,288.8546210419154,288.8546210419154,289.8878839579411,289.8878839579411,289.8878839579411,289.8878839579411,4.029927041963674,290.888275916921,200003,004,2023-03-22_13h30.05.434,DMS_BEST_eyetracking_DAN_base_12-36_looped_10minWORKING,2022.2.4,None,
,,,,,,,,,,,,,,,,,,,,,,,,,,,,,,,3,0,3,0,,,,,,,,,290.9850506669609,303.0104982079938,,,,,,,,,,,,,,,200003,004,2023-03-22_13h30.05.434,DMS_BEST_eyetracking_DAN_base_12-36_looped_10minWORKING,2022.2.4,None,
43,PRED,12,0.6703809491897377,0,images/picture_1.png,images/picture_1.png,0,"[-11.733433509789466, -11.733433509789462]",-11.733433509789464,-11.733433509789462,images/picture_2.png,1,"[11.733433509789462, -11.733433509789466]",11.733433509789462,-11.733433509789464,images/picture_3.png,2,"[11.733433509789464, 11.733433509789462]",11.733433509789464,11.733433509789462,0,1,1,0.6703809491897377,1.6703809491897377,1.3296190508102623,3,1,1.4203809491897377,0,4,0,4,0,0,0,0,7,,,,,,,,,,,,,,,,,,,,,200003,004,2023-03-22_13h30.05.434,DMS_BEST_eyetracking_DAN_base_12-36_looped_10minWORKING,2022.2.4,None,
43,PRED,12,0.6703809491897377,0,images/picture_1.png,images/picture_1.png,0,"[-11.733433509789466, -11.733433509789462]",-11.733433509789464,-11.733433509789462,images/picture_2.png,1,"[11.733433509789462, -11.733433509789466]",11.733433509789462,-11.733433509789464,images/picture_3.png,2,"[11.733433509789464, 11.733433509789462]",11.733433509789464,11.733433509789462,0,1,1,0.6703809491897377,1.6703809491897377,1.3296190508102623,3,1,1.4203809491897377,0,4,0,4,0,0,0,0,7,,,,,,,0.004366541979834437,303.0104982079938,303.0104982079938,304.02153945795726,304.44110937498044,304.67365487490315,304.67365487490315,304.67365487490315,306.0078371670097,306.0078371670097,306.0078371670097,306.0078371670097,4.008916457998566,307.02222458296455,200003,004,2023-03-22_13h30.05.434,DMS_BEST_eyetracking_DAN_base_12-36_looped_10minWORKING,2022.2.4,None,
41,PRED,12,1.150746333221523,0,images/picture_1.png,images/picture_1.png,0,"[11.733433509789462, -11.733433509789466]",11.733433509789462,-11.733433509789464,images/picture_2.png,1,"[11.733433509789464, 11.733433509789462]",11.733433509789464,11.733433509789462,images/picture_3.png,2,"[-11.733433509789466, -11.733433509789462]",-11.733433509789464,-11.733433509789462,0,1,1,1.150746333221523,2.150746333221523,0.8492536667784769,3,1,1.900746333221523,0,4,0,4,0,0,1,1,5,,,,,,,,,,,,,,,,,,,,,200003,004,2023-03-22_13h30.05.434,DMS_BEST_eyetracking_DAN_base_12-36_looped_10minWORKING,2022.2.4,None,
41,PRED,12,1.150746333221523,0,images/picture_1.png,images/picture_1.png,0,"[11.733433509789462, -11.733433509789466]",11.733433509789462,-11.733433509789464,images/picture_2.png,1,"[11.733433509789464, 11.733433509789462]",11.733433509789464,11.733433509789462,images/picture_3.png,2,"[-11.733433509789466, -11.733433509789462]",-11.733433509789464,-11.733433509789462,0,1,1,1.150746333221523,2.150746333221523,0.8492536667784769,3,1,1.900746333221523,0,4,0,4,0,0,1,1,5,,,,,,,0.00352341600228101,307.02222458296455,307.02222458296455,308.02144091692753,308.92139120795764,309.17419512500055,309.17419512500055,309.17419512500055,310.021103041945,310.021103041945,310.021103041945,310.021103041945,3.9968663330655545,311.0210635829717,200003,004,2023-03-22_13h30.05.434,DMS_BEST_eyetracking_DAN_base_12-36_looped_10minWORKING,2022.2.4,None,
40,PRED,12,0.7547348334434012,0,images/picture_1.png,images/picture_1.png,0,"[11.733433509789464, 11.733433509789462]",11.733433509789464,11.733433509789462,images/picture_2.png,1,"[-11.733433509789466, -11.733433509789462]",-11.733433509789464,-11.733433509789462,images/picture_3.png,2,"[11.733433509789462, -11.733433509789466]",11.733433509789462,-11.733433509789464,0,1,1,0.7547348334434012,1.7547348334434012,1.2452651665565988,3,1,1.5047348334434012,0,4,0,4,0,0,2,2,4,,,,,,,,,,,,,,,,,,,,,200003,004,2023-03-22_13h30.05.434,DMS_BEST_eyetracking_DAN_base_12-36_looped_10minWORKING,2022.2.4,None,
40,PRED,12,0.7547348334434012,0,images/picture_1.png,images/picture_1.png,0,"[11.733433509789464, 11.733433509789462]",11.733433509789464,11.733433509789462,images/picture_2.png,1,"[-11.733433509789466, -11.733433509789462]",-11.733433509789464,-11.733433509789462,images/picture_3.png,2,"[11.733433509789462, -11.733433509789466]",11.733433509789462,-11.733433509789464,0,1,1,0.7547348334434012,1.7547348334434012,1.2452651665565988,3,1,1.5047348334434012,0,4,0,4,0,0,2,2,4,,,,,,,0.0030092919478192925,311.0210635829717,311.0210635829717,312.02153162495233,312.54085737490095,312.7742737919325,312.7742737919325,312.7742737919325,314.0214514579857,314.0214514579857,314.0214514579857,314.0214514579857,3.9970782079035416,315.04087716690265,200003,004,2023-03-22_13h30.05.434,DMS_BEST_eyetracking_DAN_base_12-36_looped_10minWORKING,2022.2.4,None,
42,PRED,12,0.6095578274773886,0,images/picture_1.png,images/picture_1.png,0,"[-11.733433509789466, -11.733433509789462]",-11.733433509789464,-11.733433509789462,images/picture_2.png,1,"[-11.733433509789462, 11.733433509789464]",-11.733433509789462,11.733433509789464,images/picture_3.png,2,"[11.733433509789464, 11.733433509789462]",11.733433509789464,11.733433509789462,0,1,1,0.6095578274773886,1.6095578274773883,1.3904421725226117,3,1,1.3595578274773883,0,4,0,4,0,0,3,3,6,,,,,,,,,,,,,,,,,,,,,200003,004,2023-03-22_13h30.05.434,DMS_BEST_eyetracking_DAN_base_12-36_looped_10minWORKING,2022.2.4,None,
42,PRED,12,0.6095578274773886,0,images/picture_1.png,images/picture_1.png,0,"[-11.733433509789466, -11.733433509789462]",-11.733433509789464,-11.733433509789462,images/picture_2.png,1,"[-11.733433509789462, 11.733433509789464]",-11.733433509789462,11.733433509789464,images/picture_3.png,2,"[11.733433509789464, 11.733433509789462]",11.733433509789464,11.733433509789462,0,1,1,0.6095578274773886,1.6095578274773883,1.3904421725226117,3,1,1.3595578274773883,0,4,0,4,0,0,3,3,6,,,,,,,0.003497250028885901,315.04087716690265,315.04087716690265,316.0548434999073,316.40768595796544,316.62118575000204,316.62118575000204,316.62118575000204,318.0214490419021,318.0214490419021,318.0214490419021,318.0214490419021,4.029362499946728,319.0214270419674,200003,004,2023-03-22_13h30.05.434,DMS_BEST_eyetracking_DAN_base_12-36_looped_10minWORKING,2022.2.4,None,
37,PRED,12,0.9728021490861356,0,images/picture_1.png,images/picture_1.png,0,"[11.733433509789464, 11.733433509789462]",11.733433509789464,11.733433509789462,images/picture_2.png,1,"[-11.733433509789466, -11.733433509789462]",-11.733433509789464,-11.733433509789462,images/picture_3.png,2,"[-11.733433509789462, 11.733433509789464]",-11.733433509789462,11.733433509789464,0,1,1,0.9728021490861356,1.972802149086136,1.0271978509138644,3,1,1.7228021490861356,0,4,0,4,0,0,4,4,1,,,,,,,,,,,,,,,,,,,,,200003,004,2023-03-22_13h30.05.434,DMS_BEST_eyetracking_DAN_base_12-36_looped_10minWORKING,2022.2.4,None,
37,PRED,12,0.9728021490861356,0,images/picture_1.png,images/picture_1.png,0,"[11.733433509789464, 11.733433509789462]",11.733433509789464,11.733433509789462,images/picture_2.png,1,"[-11.733433509789466, -11.733433509789462]",-11.733433509789464,-11.733433509789462,images/picture_3.png,2,"[-11.733433509789462, 11.733433509789464]",-11.733433509789462,11.733433509789464,0,1,1,0.9728021490861356,1.972802149086136,1.0271978509138644,3,1,1.7228021490861356,0,4,0,4,0,0,4,4,1,,,,,,,0.0034600000362843275,319.0554502919549,319.0554502919549,320.05433549999725,320.7878471669974,321.0217828329187,321.0217828329187,321.0217828329187,322.05483974993695,322.05483974993695,322.05483974993695,322.05483974993695,3.996971416985616,323.0551807919983,200003,004,2023-03-22_13h30.05.434,DMS_BEST_eyetracking_DAN_base_12-36_looped_10minWORKING,2022.2.4,None,
36,PRED,12,0.7122588664263707,0,images/picture_1.png,images/picture_1.png,0,"[11.733433509789462, -11.733433509789466]",11.733433509789462,-11.733433509789464,images/picture_2.png,1,"[-11.733433509789466, -11.733433509789462]",-11.733433509789464,-11.733433509789462,images/picture_3.png,2,"[11.733433509789464, 11.733433509789462]",11.733433509789464,11.733433509789462,0,1,1,0.7122588664263707,1.7122588664263707,1.2877411335736293,3,1,1.4622588664263707,0,4,0,4,0,0,5,5,0,,,,,,,,,,,,,,,,,,,,,200003,004,2023-03-22_13h30.05.434,DMS_BEST_eyetracking_DAN_base_12-36_looped_10minWORKING,2022.2.4,None,
36,PRED,12,0.7122588664263707,0,images/picture_1.png,images/picture_1.png,0,"[11.733433509789462, -11.733433509789466]",11.733433509789462,-11.733433509789464,images/picture_2.png,1,"[-11.733433509789466, -11.733433509789462]",-11.733433509789464,-11.733433509789462,images/picture_3.png,2,"[11.733433509789464, 11.733433509789462]",11.733433509789464,11.733433509789462,0,1,1,0.7122588664263707,1.7122588664263707,1.2877411335736293,3,1,1.4622588664263707,0,4,0,4,0,0,5,5,0,,,,,,,0.0031641669338569045,323.0551807919983,323.0551807919983,324.054879333009,324.5214262919035,324.75473783293273,324.75473783293273,324.75473783293273,326.0548700829968,326.0548700829968,326.0548700829968,326.0548700829968,3.9960353749338537,327.05427170800976,200003,004,2023-03-22_13h30.05.434,DMS_BEST_eyetracking_DAN_base_12-36_looped_10minWORKING,2022.2.4,None,
44,PRED,12,0.6361030519674638,0,images/picture_1.png,images/picture_1.png,0,"[11.733433509789464, 11.733433509789462]",11.733433509789464,11.733433509789462,images/picture_2.png,1,"[11.733433509789462, -11.733433509789466]",11.733433509789462,-11.733433509789464,images/picture_3.png,2,"[-11.733433509789462, 11.733433509789464]",-11.733433509789462,11.733433509789464,0,1,1,0.6361030519674638,1.6361030519674638,1.3638969480325362,3,1,1.3861030519674638,0,4,0,4,0,0,6,6,8,,,,,,,,,,,,,,,,,,,,,200003,004,2023-03-22_13h30.05.434,DMS_BEST_eyetracking_DAN_base_12-36_looped_10minWORKING,2022.2.4,None,
44,PRED,12,0.6361030519674638,0,images/picture_1.png,images/picture_1.png,0,"[11.733433509789464, 11.733433509789462]",11.733433509789464,11.733433509789462,images/picture_2.png,1,"[11.733433509789462, -11.733433509789466]",11.733433509789462,-11.733433509789464,images/picture_3.png,2,"[-11.733433509789462, 11.733433509789464]",-11.733433509789462,11.733433509789464,0,1,1,0.6361030519674638,1.6361030519674638,1.3638969480325362,3,1,1.3861030519674638,0,4,0,4,0,0,6,6,8,,,,,,,0.001262541045434773,327.05427170800976,327.05427170800976,328.05482962494716,328.454709332902,328.6880251249531,328.6880251249531,328.6880251249531,330.05452558293473,330.05452558293473,330.05452558293473,330.05452558293473,3.998835458070971,331.05444558290765,200003,004,2023-03-22_13h30.05.434,DMS_BEST_eyetracking_DAN_base_12-36_looped_10minWORKING,2022.2.4,None,
38,PRED,12,1.1463054943422617,0,images/picture_1.png,images/picture_1.png,0,"[11.733433509789462, -11.733433509789466]",11.733433509789462,-11.733433509789464,images/picture_2.png,1,"[-11.733433509789462, 11.733433509789464]",-11.733433509789462,11.733433509789464,images/picture_3.png,2,"[-11.733433509789466, -11.733433509789462]",-11.733433509789464,-11.733433509789462,0,1,1,1.1463054943422617,2.1463054943422613,0.8536945056577385,3,1,1.8963054943422613,0,4,0,4,0,0,7,7,2,,,,,,,,,,,,,,,,,,,,,200003,004,2023-03-22_13h30.05.434,DMS_BEST_eyetracking_DAN_base_12-36_looped_10minWORKING,2022.2.4,None,
38,PRED,12,1.1463054943422617,0,images/picture_1.png,images/picture_1.png,0,"[11.733433509789462, -11.733433509789466]",11.733433509789462,-11.733433509789464,images/picture_2.png,1,"[-11.733433509789462, 11.733433509789464]",-11.733433509789462,11.733433509789464,images/picture_3.png,2,"[-11.733433509789466, -11.733433509789462]",-11.733433509789464,-11.733433509789462,0,1,1,1.1463054943422617,2.1463054943422613,0.8536945056577385,3,1,1.8963054943422613,0,4,0,4,0,0,7,7,2,,,,,,,0.0014052910264581442,331.05444558290765,331.05444558290765,332.0548885829048,332.9546785829589,333.1881450829096,333.1881450829096,333.1881450829096,334.05489008291624,334.05489008291624,334.05489008291624,334.05489008291624,3.9990779999643564,335.05551091698,200003,004,2023-03-22_13h30.05.434,DMS_BEST_eyetracking_DAN_base_12-36_looped_10minWORKING,2022.2.4,None,
39,PRED,12,1.0140237931366665,0,images/picture_1.png,images/picture_1.png,0,"[11.733433509789462, -11.733433509789466]",11.733433509789462,-11.733433509789464,images/picture_2.png,1,"[-11.733433509789462, 11.733433509789464]",-11.733433509789462,11.733433509789464,images/picture_3.png,2,"[-11.733433509789466, -11.733433509789462]",-11.733433509789464,-11.733433509789462,0,1,1,1.0140237931366665,2.0140237931366665,0.9859762068633336,3,1,1.7640237931366665,0,4,0,4,0,0,8,8,3,,,,,,,,,,,,,,,,,,,,,200003,004,2023-03-22_13h30.05.434,DMS_BEST_eyetracking_DAN_base_12-36_looped_10minWORKING,2022.2.4,None,
39,PRED,12,1.0140237931366665,0,images/picture_1.png,images/picture_1.png,0,"[11.733433509789462, -11.733433509789466]",11.733433509789462,-11.733433509789464,images/picture_2.png,1,"[-11.733433509789462, 11.733433509789464]",-11.733433509789462,11.733433509789464,images/picture_3.png,2,"[-11.733433509789466, -11.733433509789462]",-11.733433509789464,-11.733433509789462,0,1,1,1.0140237931366665,2.0140237931366665,0.9859762068633336,3,1,1.7640237931366665,0,4,0,4,0,0,8,8,3,,,,,,,0.0034137920010834932,335.05551091698,335.05551091698,336.05510020791553,336.8218070419971,337.0544794999296,337.0544794999296,337.0544794999296,338.0547267079819,338.0547267079819,338.0547267079819,338.0547267079819,3.9969991670222953,339.12971895793453,200003,004,2023-03-22_13h30.05.434,DMS_BEST_eyetracking_DAN_base_12-36_looped_10minWORKING,2022.2.4,None,
,,,,,,,,,,,,,,,,,,,,,,,,,,,,,,,4,0,4,0,,,,,,,,,339.12971895793453,351.14077066699974,,,,,,,,,,,,,,,200003,004,2023-03-22_13h30.05.434,DMS_BEST_eyetracking_DAN_base_12-36_looped_10minWORKING,2022.2.4,None,
52,UNPRED,12,0.7605574993864123,0,images/picture_1.png,images/picture_1.png,0,"[-11.733433509789466, -11.733433509789462]",-11.733433509789464,-11.733433509789462,images/picture_2.png,1,"[11.733433509789462, -11.733433509789466]",11.733433509789462,-11.733433509789464,images/picture_3.png,2,"[11.733433509789464, 11.733433509789462]",11.733433509789464,11.733433509789462,0,1,1,0.7605574993864123,1.7605574993864122,1.2394425006135878,3,1,1.5105574993864122,0,5,0,5,0,0,0,0,7,,,,,,,,,,,,,,,,,,,,,200003,004,2023-03-22_13h30.05.434,DMS_BEST_eyetracking_DAN_base_12-36_looped_10minWORKING,2022.2.4,None,
52,UNPRED,12,0.7605574993864123,0,images/picture_1.png,images/picture_1.png,0,"[-11.733433509789466, -11.733433509789462]",-11.733433509789464,-11.733433509789462,images/picture_2.png,1,"[11.733433509789462, -11.733433509789466]",11.733433509789462,-11.733433509789464,images/picture_3.png,2,"[11.733433509789464, 11.733433509789462]",11.733433509789464,11.733433509789462,0,1,1,0.7605574993864123,1.7605574993864122,1.2394425006135878,3,1,1.5105574993864122,0,5,0,5,0,0,0,0,7,,,,,,,0.0017927499720826745,351.14077066699974,351.14077066699974,352.15518429200165,352.65490666695405,352.9072883329354,352.9072883329354,352.9072883329354,354.1409936249256,354.15486758295447,354.15486758295447,354.15486758295447,4.0093416669406,355.17481162492186,200003,004,2023-03-22_13h30.05.434,DMS_BEST_eyetracking_DAN_base_12-36_looped_10minWORKING,2022.2.4,None,
51,UNPRED,12,0.6932375542018676,2,images/picture_3.png,images/picture_1.png,0,"[-11.733433509789462, 11.733433509789464]",-11.733433509789462,11.733433509789464,images/picture_2.png,1,"[11.733433509789464, 11.733433509789462]",11.733433509789464,11.733433509789462,images/picture_3.png,2,"[11.733433509789462, -11.733433509789466]",11.733433509789462,-11.733433509789464,0,1,1,0.6932375542018676,1.6932375542018676,1.3067624457981324,3,1,1.4432375542018676,0,5,0,5,0,0,1,1,6,,,,,,,,,,,,,,,,,,,,,200003,004,2023-03-22_13h30.05.434,DMS_BEST_eyetracking_DAN_base_12-36_looped_10minWORKING,2022.2.4,None,
51,UNPRED,12,0.6932375542018676,2,images/picture_3.png,images/picture_1.png,0,"[-11.733433509789462, 11.733433509789464]",-11.733433509789462,11.733433509789464,images/picture_2.png,1,"[11.733433509789464, 11.733433509789462]",11.733433509789464,11.733433509789462,images/picture_3.png,2,"[11.733433509789462, -11.733433509789466]",11.733433509789462,-11.733433509789464,0,1,1,0.6932375542018676,1.6932375542018676,1.3067624457981324,3,1,1.4432375542018676,0,5,0,5,0,0,1,1,6,,,,,,,0.02211237500887364,355.17481162492186,355.17481162492186,356.1882436249871,356.62164283299353,356.8416152499849,356.8416152499849,356.8416152499849,358.1549142919248,358.1549142919248,358.1549142919248,358.1549142919248,4.0289065829711035,359.1545645419974,200003,004,2023-03-22_13h30.05.434,DMS_BEST_eyetracking_DAN_base_12-36_looped_10minWORKING,2022.2.4,None,
53,UNPRED,12,0.821079918251912,2,images/picture_3.png,images/picture_1.png,0,"[11.733433509789462, -11.733433509789466]",11.733433509789462,-11.733433509789464,images/picture_2.png,1,"[11.733433509789464, 11.733433509789462]",11.733433509789464,11.733433509789462,images/picture_3.png,2,"[-11.733433509789462, 11.733433509789464]",-11.733433509789462,11.733433509789464,0,1,1,0.821079918251912,1.821079918251912,1.1789200817480878,3,1,1.571079918251912,0,5,0,5,0,0,2,2,8,,,,,,,,,,,,,,,,,,,,,200003,004,2023-03-22_13h30.05.434,DMS_BEST_eyetracking_DAN_base_12-36_looped_10minWORKING,2022.2.4,None,
53,UNPRED,12,0.821079918251912,2,images/picture_3.png,images/picture_1.png,0,"[11.733433509789462, -11.733433509789466]",11.733433509789462,-11.733433509789464,images/picture_2.png,1,"[11.733433509789464, 11.733433509789462]",11.733433509789464,11.733433509789462,images/picture_3.png,2,"[-11.733433509789462, 11.733433509789464]",-11.733433509789462,11.733433509789464,0,1,1,0.821079918251912,1.821079918251912,1.1789200817480878,3,1,1.571079918251912,0,5,0,5,0,0,2,2,8,,,,,,,0.007358458009548485,359.1887168328976,359.1887168328976,360.18824574991595,360.77385599992704,361.00671958294697,361.00671958294697,361.00671958294697,362.1881149999099,362.1881149999099,362.1881149999099,362.1881149999099,3.9998916670447215,363.2074116669828,200003,004,2023-03-22_13h30.05.434,DMS_BEST_eyetracking_DAN_base_12-36_looped_10minWORKING,2022.2.4,None,
47,UNPRED,12,1.1175049390935758,2,images/picture_3.png,images/picture_1.png,0,"[11.733433509789462, -11.733433509789466]",11.733433509789462,-11.733433509789464,images/picture_2.png,1,"[-11.733433509789466, -11.733433509789462]",-11.733433509789464,-11.733433509789462,images/picture_3.png,2,"[11.733433509789464, 11.733433509789462]",11.733433509789464,11.733433509789462,0,1,1,1.1175049390935758,2.117504939093576,0.8824950609064239,3,1,1.867504939093576,0,5,0,5,0,0,3,3,2,,,,,,,,,,,,,,,,,,,,,200003,004,2023-03-22_13h30.05.434,DMS_BEST_eyetracking_DAN_base_12-36_looped_10minWORKING,2022.2.4,None,
47,UNPRED,12,1.1175049390935758,2,images/picture_3.png,images/picture_1.png,0,"[11.733433509789462, -11.733433509789466]",11.733433509789462,-11.733433509789464,images/picture_2.png,1,"[-11.733433509789466, -11.733433509789462]",-11.733433509789464,-11.733433509789462,images/picture_3.png,2,"[11.733433509789464, 11.733433509789462]",11.733433509789464,11.733433509789462,0,1,1,1.1175049390935758,2.117504939093576,0.8824950609064239,3,1,1.867504939093576,0,5,0,5,0,0,3,3,2,,,,,,,0.019005000009201467,363.2074116669828,363.2074116669828,364.2216266669566,365.0880536669865,365.30779766698834,365.30779766698834,365.30779766698834,366.1882090419531,366.1882090419531,366.1882090419531,366.1882090419531,4.029372958000749,367.18830595794134,200003,004,2023-03-22_13h30.05.434,DMS_BEST_eyetracking_DAN_base_12-36_looped_10minWORKING,2022.2.4,None,
45,UNPRED,12,1.1204305768898006,0,images/picture_1.png,images/picture_1.png,0,"[11.733433509789464, 11.733433509789462]",11.733433509789464,11.733433509789462,images/picture_2.png,1,"[-11.733433509789466, -11.733433509789462]",-11.733433509789464,-11.733433509789462,images/picture_3.png,2,"[11.733433509789462, -11.733433509789466]",11.733433509789462,-11.733433509789464,0,1,1,1.1204305768898006,2.1204305768898006,0.8795694231101994,3,1,1.8704305768898009,0,5,0,5,0,0,4,4,0,,,,,,,,,,,,,,,,,,,,,200003,004,2023-03-22_13h30.05.434,DMS_BEST_eyetracking_DAN_base_12-36_looped_10minWORKING,2022.2.4,None,
45,UNPRED,12,1.1204305768898006,0,images/picture_1.png,images/picture_1.png,0,"[11.733433509789464, 11.733433509789462]",11.733433509789464,11.733433509789462,images/picture_2.png,1,"[-11.733433509789466, -11.733433509789462]",-11.733433509789464,-11.733433509789462,images/picture_3.png,2,"[11.733433509789462, -11.733433509789466]",11.733433509789462,-11.733433509789464,0,1,1,1.1204305768898006,2.1204305768898006,0.8795694231101994,3,1,1.8704305768898009,0,5,0,5,0,0,4,4,0,,,,,,,0.006879832944832742,367.2412970419973,367.2412970419973,368.2548153749667,369.121534707956,369.3409768329002,369.3409768329002,369.3409768329002,370.22155262494925,370.22155262494925,370.22155262494925,370.22155262494925,4.029397291946225,371.22109916689806,200003,004,2023-03-22_13h30.05.434,DMS_BEST_eyetracking_DAN_base_12-36_looped_10minWORKING,2022.2.4,None,
48,UNPRED,12,0.5668473168368431,1,images/picture_2.png,images/picture_1.png,0,"[11.733433509789462, -11.733433509789466]",11.733433509789462,-11.733433509789464,images/picture_2.png,1,"[11.733433509789464, 11.733433509789462]",11.733433509789464,11.733433509789462,images/picture_3.png,2,"[-11.733433509789462, 11.733433509789464]",-11.733433509789462,11.733433509789464,0,1,1,0.5668473168368431,1.5668473168368429,1.4331526831631571,3,1,1.316847316836843,0,5,0,5,0,0,5,5,3,,,,,,,,,,,,,,,,,,,,,200003,004,2023-03-22_13h30.05.434,DMS_BEST_eyetracking_DAN_base_12-36_looped_10minWORKING,2022.2.4,None,
48,UNPRED,12,0.5668473168368431,1,images/picture_2.png,images/picture_1.png,0,"[11.733433509789462, -11.733433509789466]",11.733433509789462,-11.733433509789464,images/picture_2.png,1,"[11.733433509789464, 11.733433509789462]",11.733433509789464,11.733433509789462,images/picture_3.png,2,"[-11.733433509789462, 11.733433509789464]",-11.733433509789462,11.733433509789464,0,1,1,0.5668473168368431,1.5668473168368429,1.4331526831631571,3,1,1.316847316836843,0,5,0,5,0,0,5,5,3,,,,,,,0.003384375013411045,371.25428270793054,371.25428270793054,372.25491874990985,372.5744709999999,372.82126645790413,372.82126645790413,372.82126645790413,374.2549011670053,374.2549011670053,374.2549011670053,374.2549011670053,3.9993951249634847,375.2748576669255,200003,004,2023-03-22_13h30.05.434,DMS_BEST_eyetracking_DAN_base_12-36_looped_10minWORKING,2022.2.4,None,
49,UNPRED,12,0.7882662081280258,0,images/picture_1.png,images/picture_1.png,0,"[11.733433509789462, -11.733433509789466]",11.733433509789462,-11.733433509789464,images/picture_2.png,1,"[-11.733433509789466, -11.733433509789462]",-11.733433509789464,-11.733433509789462,images/picture_3.png,2,"[-11.733433509789462, 11.733433509789464]",-11.733433509789462,11.733433509789464,0,1,1,0.7882662081280258,1.7882662081280258,1.2117337918719742,3,1,1.5382662081280258,0,5,0,5,0,0,6,6,4,,,,,,,,,,,,,,,,,,,,,200003,004,2023-03-22_13h30.05.434,DMS_BEST_eyetracking_DAN_base_12-36_looped_10minWORKING,2022.2.4,None,
49,UNPRED,12,0.7882662081280258,0,images/picture_1.png,images/picture_1.png,0,"[11.733433509789462, -11.733433509789466]",11.733433509789462,-11.733433509789464,images/picture_2.png,1,"[-11.733433509789466, -11.733433509789462]",-11.733433509789464,-11.733433509789462,images/picture_3.png,2,"[-11.733433509789462, 11.733433509789464]",-11.733433509789462,11.733433509789464,0,1,1,0.7882662081280258,1.7882662081280258,1.2117337918719742,3,1,1.5382662081280258,0,5,0,5,0,0,6,6,4,,,,,,,0.004833374987356365,375.2748576669255,375.2748576669255,376.2881312079262,376.82145758299157,377.04112579196226,377.04112579196226,377.04112579196226,378.25497445790097,378.25497445790097,378.25497445790097,378.25497445790097,4.029729583999142,379.25495795800816,200003,004,2023-03-22_13h30.05.434,DMS_BEST_eyetracking_DAN_base_12-36_looped_10minWORKING,2022.2.4,None,
50,UNPRED,12,0.5434063005691836,0,images/picture_1.png,images/picture_1.png,0,"[-11.733433509789462, 11.733433509789464]",-11.733433509789462,11.733433509789464,images/picture_2.png,1,"[11.733433509789462, -11.733433509789466]",11.733433509789462,-11.733433509789464,images/picture_3.png,2,"[-11.733433509789466, -11.733433509789462]",-11.733433509789464,-11.733433509789462,0,1,1,0.5434063005691836,1.5434063005691836,1.4565936994308164,3,1,1.2934063005691836,0,5,0,5,0,0,7,7,5,,,,,,,,,,,,,,,,,,,,,200003,004,2023-03-22_13h30.05.434,DMS_BEST_eyetracking_DAN_base_12-36_looped_10minWORKING,2022.2.4,None,
50,UNPRED,12,0.5434063005691836,0,images/picture_1.png,images/picture_1.png,0,"[-11.733433509789462, 11.733433509789464]",-11.733433509789462,11.733433509789464,images/picture_2.png,1,"[11.733433509789462, -11.733433509789466]",11.733433509789462,-11.733433509789464,images/picture_3.png,2,"[-11.733433509789466, -11.733433509789462]",-11.733433509789464,-11.733433509789462,0,1,1,0.5434063005691836,1.5434063005691836,1.4565936994308164,3,1,1.2934063005691836,0,5,0,5,0,0,7,7,5,,,,,,,0.0034162920201197267,379.3078283749055,379.3078283749055,380.32164441701025,380.6076763329329,380.82148216699716,380.82148216699716,380.82148216699716,382.28802149998955,382.28802149998955,382.28802149998955,382.28802149998955,4.029657250037417,383.28831866697874,200003,004,2023-03-22_13h30.05.434,DMS_BEST_eyetracking_DAN_base_12-36_looped_10minWORKING,2022.2.4,None,
46,UNPRED,12,1.045986652524861,0,images/picture_1.png,images/picture_1.png,0,"[11.733433509789464, 11.733433509789462]",11.733433509789464,11.733433509789462,images/picture_2.png,1,"[-11.733433509789462, 11.733433509789464]",-11.733433509789462,11.733433509789464,images/picture_3.png,2,"[-11.733433509789466, -11.733433509789462]",-11.733433509789464,-11.733433509789462,0,1,1,1.045986652524861,2.045986652524861,0.9540133474751392,3,1,1.795986652524861,0,5,0,5,0,0,8,8,1,,,,,,,,,,,,,,,,,,,,,200003,004,2023-03-22_13h30.05.434,DMS_BEST_eyetracking_DAN_base_12-36_looped_10minWORKING,2022.2.4,None,
46,UNPRED,12,1.045986652524861,0,images/picture_1.png,images/picture_1.png,0,"[11.733433509789464, 11.733433509789462]",11.733433509789464,11.733433509789462,images/picture_2.png,1,"[-11.733433509789462, 11.733433509789464]",-11.733433509789462,11.733433509789464,images/picture_3.png,2,"[-11.733433509789466, -11.733433509789462]",-11.733433509789464,-11.733433509789462,0,1,1,1.045986652524861,2.045986652524861,0.9540133474751392,3,1,1.795986652524861,0,5,0,5,0,0,8,8,1,,,,,,,0.0032574579818174243,383.32224520796444,383.32224520796444,384.32163987495005,385.12138408294413,385.35464562498964,385.35464562498964,385.35464562498964,386.3216220419854,386.3216220419854,386.3216220419854,386.3216220419854,3.997072833008133,387.40605887491256,200003,004,2023-03-22_13h30.05.434,DMS_BEST_eyetracking_DAN_base_12-36_looped_10minWORKING,2022.2.4,None,
,,,,,,,,,,,,,,,,,,,,,,,,,,,,,,,5,0,5,0,,,,,,,,,387.40605887491256,399.42783174989745,,,,,,,,,,,,,,,200003,004,2023-03-22_13h30.05.434,DMS_BEST_eyetracking_DAN_base_12-36_looped_10minWORKING,2022.2.4,None,
61,PRED,12,0.9639928768783774,0,images/picture_1.png,images/picture_1.png,0,"[-11.733433509789466, -11.733433509789462]",-11.733433509789464,-11.733433509789462,images/picture_2.png,1,"[-11.733433509789462, 11.733433509789464]",-11.733433509789462,11.733433509789464,images/picture_3.png,2,"[11.733433509789464, 11.733433509789462]",11.733433509789464,11.733433509789462,0,1,1,0.9639928768783774,1.9639928768783772,1.0360071231216226,3,1,1.7139928768783774,0,6,0,6,0,0,0,0,7,,,,,,,,,,,,,,,,,,,,,200003,004,2023-03-22_13h30.05.434,DMS_BEST_eyetracking_DAN_base_12-36_looped_10minWORKING,2022.2.4,None,
61,PRED,12,0.9639928768783774,0,images/picture_1.png,images/picture_1.png,0,"[-11.733433509789466, -11.733433509789462]",-11.733433509789464,-11.733433509789462,images/picture_2.png,1,"[-11.733433509789462, 11.733433509789464]",-11.733433509789462,11.733433509789464,images/picture_3.png,2,"[11.733433509789464, 11.733433509789462]",11.733433509789464,11.733433509789462,0,1,1,0.9639928768783774,1.9639928768783772,1.0360071231216226,3,1,1.7139928768783774,0,6,0,6,0,0,0,0,7,,,,,,,0.002759625087492168,399.42783174989745,399.42783174989745,400.4410181249259,401.1549472080078,401.3879688750021,401.3879688750021,401.3879688750021,402.4210317078978,402.4210317078978,402.4210317078978,402.4210317078978,4.00439170806203,403.42162020795513,200003,004,2023-03-22_13h30.05.434,DMS_BEST_eyetracking_DAN_base_12-36_looped_10minWORKING,2022.2.4,None,
54,PRED,12,0.7347640215399446,0,images/picture_1.png,images/picture_1.png,0,"[-11.733433509789462, 11.733433509789464]",-11.733433509789462,11.733433509789464,images/picture_2.png,1,"[11.733433509789462, -11.733433509789466]",11.733433509789462,-11.733433509789464,images/picture_3.png,2,"[11.733433509789464, 11.733433509789462]",11.733433509789464,11.733433509789462,0,1,1,0.7347640215399446,1.7347640215399447,1.2652359784600553,3,1,1.4847640215399447,0,6,0,6,0,0,1,1,0,,,,,,,,,,,,,,,,,,,,,200003,004,2023-03-22_13h30.05.434,DMS_BEST_eyetracking_DAN_base_12-36_looped_10minWORKING,2022.2.4,None,
54,PRED,12,0.7347640215399446,0,images/picture_1.png,images/picture_1.png,0,"[-11.733433509789462, 11.733433509789464]",-11.733433509789462,11.733433509789464,images/picture_2.png,1,"[11.733433509789462, -11.733433509789466]",11.733433509789462,-11.733433509789464,images/picture_3.png,2,"[11.733433509789464, 11.733433509789462]",11.733433509789464,11.733433509789462,0,1,1,0.7347640215399446,1.7347640215399447,1.2652359784600553,3,1,1.4847640215399447,0,6,0,6,0,0,1,1,0,,,,,,,0.003532332950271666,403.44042208290193,403.44042208290193,404.4549506249605,404.92161249998026,405.17433424992487,405.17433424992487,405.17433424992487,406.4214563749265,406.4549022499705,406.4549022499705,406.4549022499705,4.016072166967206,407.4216561669018,200003,004,2023-03-22_13h30.05.434,DMS_BEST_eyetracking_DAN_base_12-36_looped_10minWORKING,2022.2.4,None,
55,PRED,12,0.5695611953739883,0,images/picture_1.png,images/picture_1.png,0,"[11.733433509789462, -11.733433509789466]",11.733433509789462,-11.733433509789464,images/picture_2.png,1,"[11.733433509789464, 11.733433509789462]",11.733433509789464,11.733433509789462,images/picture_3.png,2,"[-11.733433509789466, -11.733433509789462]",-11.733433509789464,-11.733433509789462,0,1,1,0.5695611953739883,1.5695611953739883,1.4304388046260117,3,1,1.3195611953739883,0,6,0,6,0,0,2,2,1,,,,,,,,,,,,,,,,,,,,,200003,004,2023-03-22_13h30.05.434,DMS_BEST_eyetracking_DAN_base_12-36_looped_10minWORKING,2022.2.4,None,
55,PRED,12,0.5695611953739883,0,images/picture_1.png,images/picture_1.png,0,"[11.733433509789462, -11.733433509789466]",11.733433509789462,-11.733433509789464,images/picture_2.png,1,"[11.733433509789464, 11.733433509789462]",11.733433509789464,11.733433509789462,images/picture_3.png,2,"[-11.733433509789466, -11.733433509789462]",-11.733433509789464,-11.733433509789462,0,1,1,0.5695611953739883,1.5695611953739883,1.4304388046260117,3,1,1.3195611953739883,0,6,0,6,0,0,2,2,1,,,,,,,0.003483292064629495,407.4557603748981,407.4557603748981,408.4549799169181,408.7884247499751,409.0212687079329,409.0212687079329,409.0212687079329,410.4549104999751,410.4549104999751,410.4549104999751,410.4549104999751,3.9971957920351997,411.45501024997793,200003,004,2023-03-22_13h30.05.434,DMS_BEST_eyetracking_DAN_base_12-36_looped_10minWORKING,2022.2.4,None,
60,PRED,12,1.1404214298386954,0,images/picture_1.png,images/picture_1.png,0,"[-11.733433509789466, -11.733433509789462]",-11.733433509789464,-11.733433509789462,images/picture_2.png,1,"[-11.733433509789462, 11.733433509789464]",-11.733433509789462,11.733433509789464,images/picture_3.png,2,"[11.733433509789462, -11.733433509789466]",11.733433509789462,-11.733433509789464,0,1,1,1.1404214298386954,2.1404214298386948,0.8595785701613046,3,1,1.8904214298386952,0,6,0,6,0,0,3,3,6,,,,,,,,,,,,,,,,,,,,,200003,004,2023-03-22_13h30.05.434,DMS_BEST_eyetracking_DAN_base_12-36_looped_10minWORKING,2022.2.4,None,
60,PRED,12,1.1404214298386954,0,images/picture_1.png,images/picture_1.png,0,"[-11.733433509789466, -11.733433509789462]",-11.733433509789464,-11.733433509789462,images/picture_2.png,1,"[-11.733433509789462, 11.733433509789464]",-11.733433509789462,11.733433509789464,images/picture_3.png,2,"[11.733433509789462, -11.733433509789466]",11.733433509789462,-11.733433509789464,0,1,1,1.1404214298386954,2.1404214298386948,0.8595785701613046,3,1,1.8904214298386952,0,6,0,6,0,0,3,3,6,,,,,,,0.0029169589979574084,411.45501024997793,411.45501024997793,412.4544333749218,413.3550597919384,413.58814179198816,413.58814179198816,413.58814179198816,414.45489012496546,414.45489012496546,414.45489012496546,414.45489012496546,3.9970721669960767,415.4743784579914,200003,004,2023-03-22_13h30.05.434,DMS_BEST_eyetracking_DAN_base_12-36_looped_10minWORKING,2022.2.4,None,
58,PRED,12,1.0017032910284032,0,images/picture_1.png,images/picture_1.png,0,"[-11.733433509789466, -11.733433509789462]",-11.733433509789464,-11.733433509789462,images/picture_2.png,1,"[11.733433509789464, 11.733433509789462]",11.733433509789464,11.733433509789462,images/picture_3.png,2,"[-11.733433509789462, 11.733433509789464]",-11.733433509789462,11.733433509789464,0,1,1,1.0017032910284032,2.001703291028403,0.9982967089715968,3,1,1.7517032910284032,0,6,0,6,0,0,4,4,4,,,,,,,,,,,,,,,,,,,,,200003,004,2023-03-22_13h30.05.434,DMS_BEST_eyetracking_DAN_base_12-36_looped_10minWORKING,2022.2.4,None,
58,PRED,12,1.0017032910284032,0,images/picture_1.png,images/picture_1.png,0,"[-11.733433509789466, -11.733433509789462]",-11.733433509789464,-11.733433509789462,images/picture_2.png,1,"[11.733433509789464, 11.733433509789462]",11.733433509789464,11.733433509789462,images/picture_3.png,2,"[-11.733433509789462, 11.733433509789464]",-11.733433509789462,11.733433509789464,0,1,1,1.0017032910284032,2.001703291028403,0.9982967089715968,3,1,1.7517032910284032,0,6,0,6,0,0,4,4,4,,,,,,,0.0035157089587301016,415.4743784579914,415.4743784579914,416.48817133298144,417.2412895419402,417.45487729192246,417.45487729192246,417.45487729192246,418.45491770794615,418.45491770794615,418.45491770794615,418.45491770794615,4.029294291976839,419.45468887500465,200003,004,2023-03-22_13h30.05.434,DMS_BEST_eyetracking_DAN_base_12-36_looped_10minWORKING,2022.2.4,None,
62,PRED,12,0.7340751798282945,0,images/picture_1.png,images/picture_1.png,0,"[11.733433509789462, -11.733433509789466]",11.733433509789462,-11.733433509789464,images/picture_2.png,1,"[11.733433509789464, 11.733433509789462]",11.733433509789464,11.733433509789462,images/picture_3.png,2,"[-11.733433509789466, -11.733433509789462]",-11.733433509789464,-11.733433509789462,0,1,1,0.7340751798282945,1.7340751798282945,1.2659248201717055,3,1,1.4840751798282945,0,6,0,6,0,0,5,5,8,,,,,,,,,,,,,,,,,,,,,200003,004,2023-03-22_13h30.05.434,DMS_BEST_eyetracking_DAN_base_12-36_looped_10minWORKING,2022.2.4,None,
62,PRED,12,0.7340751798282945,0,images/picture_1.png,images/picture_1.png,0,"[11.733433509789462, -11.733433509789466]",11.733433509789462,-11.733433509789464,images/picture_2.png,1,"[11.733433509789464, 11.733433509789462]",11.733433509789464,11.733433509789462,images/picture_3.png,2,"[-11.733433509789466, -11.733433509789462]",-11.733433509789464,-11.733433509789462,0,1,1,0.7340751798282945,1.7340751798282945,1.2659248201717055,3,1,1.4840751798282945,0,6,0,6,0,0,5,5,8,,,,,,,0.0035672920057550073,419.4892124579055,419.4892124579055,420.48785454197787,420.98804674996063,421.2210300419247,421.2210300419247,421.2210300419247,422.4875937079778,422.4875937079778,422.4875937079778,422.4875937079778,3.9955398340243846,423.48752441699617,200003,004,2023-03-22_13h30.05.434,DMS_BEST_eyetracking_DAN_base_12-36_looped_10minWORKING,2022.2.4,None,
56,PRED,12,0.9693217546183172,0,images/picture_1.png,images/picture_1.png,0,"[-11.733433509789466, -11.733433509789462]",-11.733433509789464,-11.733433509789462,images/picture_2.png,1,"[11.733433509789464, 11.733433509789462]",11.733433509789464,11.733433509789462,images/picture_3.png,2,"[-11.733433509789462, 11.733433509789464]",-11.733433509789462,11.733433509789464,0,1,1,0.9693217546183172,1.9693217546183173,1.0306782453816827,3,1,1.7193217546183173,0,6,0,6,0,0,6,6,2,,,,,,,,,,,,,,,,,,,,,200003,004,2023-03-22_13h30.05.434,DMS_BEST_eyetracking_DAN_base_12-36_looped_10minWORKING,2022.2.4,None,
56,PRED,12,0.9693217546183172,0,images/picture_1.png,images/picture_1.png,0,"[-11.733433509789466, -11.733433509789462]",-11.733433509789464,-11.733433509789462,images/picture_2.png,1,"[11.733433509789464, 11.733433509789462]",11.733433509789464,11.733433509789462,images/picture_3.png,2,"[-11.733433509789462, 11.733433509789464]",-11.733433509789462,11.733433509789464,0,1,1,0.9693217546183172,1.9693217546183173,1.0306782453816827,3,1,1.7193217546183173,0,6,0,6,0,0,6,6,2,,,,,,,0.001247250009328127,423.48752441699617,423.48752441699617,424.4881668749731,425.22138354193885,425.4545066249557,425.4545066249557,425.4545066249557,426.48800399992615,426.48800399992615,426.48800399992615,426.48800399992615,3.999562249984592,427.50762904190924,200003,004,2023-03-22_13h30.05.434,DMS_BEST_eyetracking_DAN_base_12-36_looped_10minWORKING,2022.2.4,None,
57,PRED,12,1.1492250282428915,0,images/picture_1.png,images/picture_1.png,0,"[-11.733433509789466, -11.733433509789462]",-11.733433509789464,-11.733433509789462,images/picture_2.png,1,"[-11.733433509789462, 11.733433509789464]",-11.733433509789462,11.733433509789464,images/picture_3.png,2,"[11.733433509789462, -11.733433509789466]",11.733433509789462,-11.733433509789464,0,1,1,1.1492250282428915,2.1492250282428915,0.8507749717571083,3,1,1.8992250282428917,0,6,0,6,0,0,7,7,3,,,,,,,,,,,,,,,,,,,,,200003,004,2023-03-22_13h30.05.434,DMS_BEST_eyetracking_DAN_base_12-36_looped_10minWORKING,2022.2.4,None,
57,PRED,12,1.1492250282428915,0,images/picture_1.png,images/picture_1.png,0,"[-11.733433509789466, -11.733433509789462]",-11.733433509789464,-11.733433509789462,images/picture_2.png,1,"[-11.733433509789462, 11.733433509789464]",-11.733433509789462,11.733433509789464,images/picture_3.png,2,"[11.733433509789462, -11.733433509789466]",11.733433509789462,-11.733433509789464,0,1,1,1.1492250282428915,2.1492250282428915,0.8507749717571083,3,1,1.8992250282428917,0,6,0,6,0,0,7,7,3,,,,,,,0.003563040983863175,427.50762904190924,427.50762904190924,428.52137637499254,429.42107362498064,429.6409961669706,429.6409961669706,429.6409961669706,430.48813270800747,430.50764483294915,430.50764483294915,430.50764483294915,4.029280833085068,431.48791566700675,200003,004,2023-03-22_13h30.05.434,DMS_BEST_eyetracking_DAN_base_12-36_looped_10minWORKING,2022.2.4,None,
59,PRED,12,1.0666931530475032,0,images/picture_1.png,images/picture_1.png,0,"[11.733433509789464, 11.733433509789462]",11.733433509789464,11.733433509789462,images/picture_2.png,1,"[-11.733433509789466, -11.733433509789462]",-11.733433509789464,-11.733433509789462,images/picture_3.png,2,"[11.733433509789462, -11.733433509789466]",11.733433509789462,-11.733433509789464,0,1,1,1.0666931530475032,2.0666931530475035,0.9333068469524968,3,1,1.8166931530475037,0,6,0,6,0,0,8,8,5,,,,,,,,,,,,,,,,,,,,,200003,004,2023-03-22_13h30.05.434,DMS_BEST_eyetracking_DAN_base_12-36_looped_10minWORKING,2022.2.4,None,
59,PRED,12,1.0666931530475032,0,images/picture_1.png,images/picture_1.png,0,"[11.733433509789464, 11.733433509789462]",11.733433509789464,11.733433509789462,images/picture_2.png,1,"[-11.733433509789466, -11.733433509789462]",-11.733433509789464,-11.733433509789462,images/picture_3.png,2,"[11.733433509789462, -11.733433509789466]",11.733433509789462,-11.733433509789464,0,1,1,1.0666931530475032,2.0666931530475035,0.9333068469524968,3,1,1.8166931530475037,0,6,0,6,0,0,8,8,5,,,,,,,0.0034284580033272505,431.54108083294705,431.54108083294705,432.5543390419334,433.3544298330089,433.5877805829514,433.5877805829514,433.5877805829514,434.5213526249863,434.5213526249863,434.5213526249863,434.5213526249863,4.029649000032805,435.5214143329067,200003,004,2023-03-22_13h30.05.434,DMS_BEST_eyetracking_DAN_base_12-36_looped_10minWORKING,2022.2.4,None,
,,,,,,,,,,,,,,,,,,,,,,,,,,,,,,,6,0,6,0,,,,,,,,,435.6417268329533,447.674373082933,,,,,,,,,,,,,,,200003,004,2023-03-22_13h30.05.434,DMS_BEST_eyetracking_DAN_base_12-36_looped_10minWORKING,2022.2.4,None,
70,UNPRED,12,0.5761878730887828,0,images/picture_1.png,images/picture_1.png,0,"[-11.733433509789462, 11.733433509789464]",-11.733433509789462,11.733433509789464,images/picture_2.png,1,"[-11.733433509789466, -11.733433509789462]",-11.733433509789464,-11.733433509789462,images/picture_3.png,2,"[11.733433509789464, 11.733433509789462]",11.733433509789464,11.733433509789462,0,1,1,0.5761878730887828,1.5761878730887828,1.4238121269112172,3,1,1.3261878730887828,0,7,0,7,0,0,0,0,7,,,,,,,,,,,,,,,,,,,,,200003,004,2023-03-22_13h30.05.434,DMS_BEST_eyetracking_DAN_base_12-36_looped_10minWORKING,2022.2.4,None,
70,UNPRED,12,0.5761878730887828,0,images/picture_1.png,images/picture_1.png,0,"[-11.733433509789462, 11.733433509789464]",-11.733433509789462,11.733433509789464,images/picture_2.png,1,"[-11.733433509789466, -11.733433509789462]",-11.733433509789464,-11.733433509789462,images/picture_3.png,2,"[11.733433509789464, 11.733433509789462]",11.733433509789464,11.733433509789462,0,1,1,0.5761878730887828,1.5761878730887828,1.4238121269112172,3,1,1.3261878730887828,0,7,0,7,0,0,0,0,7,,,,,,,0.002889416995458305,447.674373082933,447.674373082933,448.6878252919996,449.00773016700987,449.25438408297487,449.25438408297487,449.25438408297487,450.67428170796484,450.68811579199973,450.68811579199973,450.68811579199973,4.010112749994732,451.7082261668984,200003,004,2023-03-22_13h30.05.434,DMS_BEST_eyetracking_DAN_base_12-36_looped_10minWORKING,2022.2.4,None,
67,UNPRED,12,0.5783358795285204,0,images/picture_1.png,images/picture_1.png,0,"[-11.733433509789466, -11.733433509789462]",-11.733433509789464,-11.733433509789462,images/picture_2.png,1,"[11.733433509789464, 11.733433509789462]",11.733433509789464,11.733433509789462,images/picture_3.png,2,"[11.733433509789462, -11.733433509789466]",11.733433509789462,-11.733433509789464,0,1,1,0.5783358795285204,1.5783358795285205,1.4216641204714795,3,1,1.3283358795285205,0,7,0,7,0,0,1,1,4,,,,,,,,,,,,,,,,,,,,,200003,004,2023-03-22_13h30.05.434,DMS_BEST_eyetracking_DAN_base_12-36_looped_10minWORKING,2022.2.4,None,
67,UNPRED,12,0.5783358795285204,0,images/picture_1.png,images/picture_1.png,0,"[-11.733433509789466, -11.733433509789462]",-11.733433509789464,-11.733433509789462,images/picture_2.png,1,"[11.733433509789464, 11.733433509789462]",11.733433509789464,11.733433509789462,images/picture_3.png,2,"[11.733433509789462, -11.733433509789466]",11.733433509789462,-11.733433509789464,0,1,1,0.5783358795285204,1.5783358795285205,1.4216641204714795,3,1,1.3283358795285205,0,7,0,7,0,0,1,1,4,,,,,,,0.003730083000846207,451.7082261668984,451.7082261668984,452.7208999169525,453.0400514169596,453.25418662501033,453.25418662501033,453.25418662501033,454.6881605829112,454.6881605829112,454.6881605829112,454.6881605829112,4.029528291081078,455.6879114579642,200003,004,2023-03-22_13h30.05.434,DMS_BEST_eyetracking_DAN_base_12-36_looped_10minWORKING,2022.2.4,None,
69,UNPRED,12,0.6036993858057125,1,images/picture_2.png,images/picture_1.png,0,"[11.733433509789462, -11.733433509789466]",11.733433509789462,-11.733433509789464,images/picture_2.png,1,"[11.733433509789464, 11.733433509789462]",11.733433509789464,11.733433509789462,images/picture_3.png,2,"[-11.733433509789466, -11.733433509789462]",-11.733433509789464,-11.733433509789462,0,1,1,0.6036993858057125,1.6036993858057125,1.3963006141942875,3,1,1.3536993858057125,0,7,0,7,0,0,2,2,6,,,,,,,,,,,,,,,,,,,,,200003,004,2023-03-22_13h30.05.434,DMS_BEST_eyetracking_DAN_base_12-36_looped_10minWORKING,2022.2.4,None,
69,UNPRED,12,0.6036993858057125,1,images/picture_2.png,images/picture_1.png,0,"[11.733433509789462, -11.733433509789466]",11.733433509789462,-11.733433509789464,images/picture_2.png,1,"[11.733433509789464, 11.733433509789462]",11.733433509789464,11.733433509789462,images/picture_3.png,2,"[-11.733433509789466, -11.733433509789462]",-11.733433509789464,-11.733433509789462,0,1,1,0.6036993858057125,1.6036993858057125,1.3963006141942875,3,1,1.3536993858057125,0,7,0,7,0,0,2,2,6,,,,,,,0.004799875081516802,455.7407171250088,455.7407171250088,456.7546862079762,457.10729650000576,457.320963999955,457.320963999955,457.320963999955,458.72139562491793,458.72139562491793,458.72139562491793,458.72139562491793,4.0295422920025885,459.72206170798745,200003,004,2023-03-22_13h30.05.434,DMS_BEST_eyetracking_DAN_base_12-36_looped_10minWORKING,2022.2.4,None,
63,UNPRED,12,0.768599172909223,1,images/picture_2.png,images/picture_1.png,0,"[-11.733433509789466, -11.733433509789462]",-11.733433509789464,-11.733433509789462,images/picture_2.png,1,"[11.733433509789462, -11.733433509789466]",11.733433509789462,-11.733433509789464,images/picture_3.png,2,"[-11.733433509789462, 11.733433509789464]",-11.733433509789462,11.733433509789464,0,1,1,0.768599172909223,1.7685991729092232,1.2314008270907773,3,1,1.5185991729092232,0,7,0,7,0,0,3,3,0,,,,,,,,,,,,,,,,,,,,,200003,004,2023-03-22_13h30.05.434,DMS_BEST_eyetracking_DAN_base_12-36_looped_10minWORKING,2022.2.4,None,
63,UNPRED,12,0.768599172909223,1,images/picture_2.png,images/picture_1.png,0,"[-11.733433509789466, -11.733433509789462]",-11.733433509789464,-11.733433509789462,images/picture_2.png,1,"[11.733433509789462, -11.733433509789466]",11.733433509789462,-11.733433509789464,images/picture_3.png,2,"[-11.733433509789462, 11.733433509789464]",-11.733433509789462,11.733433509789464,0,1,1,0.768599172909223,1.7685991729092232,1.2314008270907773,3,1,1.5185991729092232,0,7,0,7,0,0,3,3,0,,,,,,,0.0021745419362559915,459.7551057499368,459.7551057499368,460.7546339579858,461.2879205829231,461.5209763329476,461.5209763329476,461.5209763329476,462.7546097919112,462.7546097919112,462.7546097919112,462.7546097919112,3.997474042000249,463.77360499999486,200003,004,2023-03-22_13h30.05.434,DMS_BEST_eyetracking_DAN_base_12-36_looped_10minWORKING,2022.2.4,None,
