trial_count,blockType,blockNum,delay_time,stimImage_i,stimImage,responseImage1,responseImage1_i,responseImage1_pos,responseImage1_X,responseImage1_Y,responseImage2,responseImage2_i,responseImage2_pos,responseImage2_X,responseImage2_Y,responseImage3,responseImage3_i,responseImage3_pos,responseImage3_X,responseImage3_Y,cue_onset,cue_dur,delay_onset,delay_dur,resp_onset,resp_dur,rest_onset,rest_dur,circle_dur,circle_onset,blocks.thisRepN,blocks.thisTrialN,blocks.thisN,blocks.thisIndex,trials.thisRepN,trials.thisTrialN,trials.thisN,trials.thisIndex,key_resp.started,text.started,key_resp.keys,key_resp.rt,text_2.started,text_2.stopped,etRecord.started,sample.started,Delay.started,sample.stopped,Delay.stopped,Response_1.started,Response_2.started,Response_3.started,Response_1.stopped,Response_2.stopped,Response_3.stopped,polygon.started,etRecord.stopped,polygon.stopped,participant,session,date,expName,psychopyVersion,frameRate,
,,,,,,,,,,,,,,,,,,,,,,,,,,,,,,,,,,,,,,,27.927825208986178,27.927825208986178,t,33.12749104102841,,,,,,,,,,,,,,,,,200002,007,2023-03-16_16h37.49.948,DMS_BEST_eyetracking_DAN_base_12-36_looped_10minWORKING,2022.2.4,None,
2,PRED,12,0.940041745433854,1,images/picture_2.png,images/picture_1.png,0,"[-11.733433509789466, -11.733433509789462]",-11.733433509789464,-11.733433509789462,images/picture_2.png,1,"[11.733433509789462, -11.733433509789466]",11.733433509789462,-11.733433509789464,images/picture_3.png,2,"[-11.733433509789462, 11.733433509789464]",-11.733433509789462,11.733433509789464,0,1,1,0.940041745433854,1.9400417454338537,1.059958254566146,3,1,1.690041745433854,0,0,0,0,0,0,0,0,2,,,,,61.063056666986085,73.08594237500802,,,,,,,,,,,,,,,200002,007,2023-03-16_16h37.49.948,DMS_BEST_eyetracking_DAN_base_12-36_looped_10minWORKING,2022.2.4,None,
2,PRED,12,0.940041745433854,1,images/picture_2.png,images/picture_1.png,0,"[-11.733433509789466, -11.733433509789462]",-11.733433509789464,-11.733433509789462,images/picture_2.png,1,"[11.733433509789462, -11.733433509789466]",11.733433509789462,-11.733433509789464,images/picture_3.png,2,"[-11.733433509789462, 11.733433509789464]",-11.733433509789462,11.733433509789464,0,1,1,0.940041745433854,1.9400417454338537,1.059958254566146,3,1,1.690041745433854,0,0,0,0,0,0,0,0,2,,,,,,,0.004259374982211739,73.08594237500802,73.08594237500802,74.09635695902398,74.78186899999855,75.01543516700622,75.01543516700622,75.01543516700622,76.08158424997237,76.08158424997237,76.08158424997237,76.08158424997237,4.011732665996533,77.09597820899216,200002,007,2023-03-16_16h37.49.948,DMS_BEST_eyetracking_DAN_base_12-36_looped_10minWORKING,2022.2.4,None,
0,PRED,12,0.6925764669201891,1,images/picture_2.png,images/picture_1.png,0,"[11.733433509789462, -11.733433509789466]",11.733433509789462,-11.733433509789464,images/picture_2.png,1,"[-11.733433509789466, -11.733433509789462]",-11.733433509789464,-11.733433509789462,images/picture_3.png,2,"[11.733433509789464, 11.733433509789462]",11.733433509789464,11.733433509789462,0,1,1,0.6925764669201891,1.692576466920189,1.307423533079811,3,1,1.442576466920189,0,0,0,0,0,0,1,1,0,,,,,,,,,,,,,,,,,,,,,200002,007,2023-03-16_16h37.49.948,DMS_BEST_eyetracking_DAN_base_12-36_looped_10minWORKING,2022.2.4,None,
0,PRED,12,0.6925764669201891,1,images/picture_2.png,images/picture_1.png,0,"[11.733433509789462, -11.733433509789466]",11.733433509789462,-11.733433509789464,images/picture_2.png,1,"[-11.733433509789466, -11.733433509789462]",-11.733433509789464,-11.733433509789462,images/picture_3.png,2,"[11.733433509789464, 11.733433509789462]",11.733433509789464,11.733433509789462,0,1,1,0.6925764669201891,1.692576466920189,1.307423533079811,3,1,1.442576466920189,0,0,0,0,0,0,1,1,0,,,,,,,0.0021510840160772204,77.09597820899216,77.09597820899216,78.09629258402856,78.54863283399027,78.78208341699792,78.78208341699792,78.78208341699792,80.09607537498232,80.09607537498232,80.09607537498232,80.09607537498232,3.9971845840336755,81.09587295900565,200002,007,2023-03-16_16h37.49.948,DMS_BEST_eyetracking_DAN_base_12-36_looped_10minWORKING,2022.2.4,None,
7,PRED,12,1.1474923680241245,1,images/picture_2.png,images/picture_1.png,0,"[11.733433509789464, 11.733433509789462]",11.733433509789464,11.733433509789462,images/picture_2.png,1,"[11.733433509789462, -11.733433509789466]",11.733433509789462,-11.733433509789464,images/picture_3.png,2,"[-11.733433509789462, 11.733433509789464]",-11.733433509789462,11.733433509789464,0,1,1,1.1474923680241245,2.1474923680241247,0.8525076319758755,3,1,1.897492368024125,0,0,0,0,0,0,2,2,7,,,,,,,,,,,,,,,,,,,,,200002,007,2023-03-16_16h37.49.948,DMS_BEST_eyetracking_DAN_base_12-36_looped_10minWORKING,2022.2.4,None,
7,PRED,12,1.1474923680241245,1,images/picture_2.png,images/picture_1.png,0,"[11.733433509789464, 11.733433509789462]",11.733433509789464,11.733433509789462,images/picture_2.png,1,"[11.733433509789462, -11.733433509789466]",11.733433509789462,-11.733433509789464,images/picture_3.png,2,"[-11.733433509789462, 11.733433509789464]",-11.733433509789462,11.733433509789464,0,1,1,1.1474923680241245,2.1474923680241247,0.8525076319758755,3,1,1.897492368024125,0,0,0,0,0,0,2,2,7,,,,,,,0.0021147910156287253,81.09587295900565,81.09587295900565,82.09599950001575,82.99626074999105,83.22951454197755,83.22951454197755,83.22951454197755,84.09623020899016,84.09623020899016,84.09623020899016,84.09623020899016,3.9963179160258733,85.09580125001958,200002,007,2023-03-16_16h37.49.948,DMS_BEST_eyetracking_DAN_base_12-36_looped_10minWORKING,2022.2.4,None,
3,PRED,12,1.179629970262449,1,images/picture_2.png,images/picture_1.png,0,"[11.733433509789462, -11.733433509789466]",11.733433509789462,-11.733433509789464,images/picture_2.png,1,"[11.733433509789464, 11.733433509789462]",11.733433509789464,11.733433509789462,images/picture_3.png,2,"[-11.733433509789462, 11.733433509789464]",-11.733433509789462,11.733433509789464,0,1,1,1.179629970262449,2.1796299702624493,0.8203700297375507,3,1,1.929629970262449,0,0,0,0,0,0,3,3,3,,,,,,,,,,,,,,,,,,,,,200002,007,2023-03-16_16h37.49.948,DMS_BEST_eyetracking_DAN_base_12-36_looped_10minWORKING,2022.2.4,None,
3,PRED,12,1.179629970262449,1,images/picture_2.png,images/picture_1.png,0,"[11.733433509789462, -11.733433509789466]",11.733433509789462,-11.733433509789464,images/picture_2.png,1,"[11.733433509789464, 11.733433509789462]",11.733433509789464,11.733433509789462,images/picture_3.png,2,"[-11.733433509789462, 11.733433509789464]",-11.733433509789462,11.733433509789464,0,1,1,1.179629970262449,2.1796299702624493,0.8203700297375507,3,1,1.929629970262449,0,0,0,0,0,0,3,3,3,,,,,,,0.0019160829833708704,85.09580125001958,85.09580125001958,86.09609008400002,87.02973758400185,87.26245325000491,87.26245325000491,87.26245325000491,88.0957887499826,88.0957887499826,88.0957887499826,88.0957887499826,3.9981672079884447,89.09590945899254,200002,007,2023-03-16_16h37.49.948,DMS_BEST_eyetracking_DAN_base_12-36_looped_10minWORKING,2022.2.4,None,
5,PRED,12,0.5225196515079282,1,images/picture_2.png,images/picture_1.png,0,"[11.733433509789462, -11.733433509789466]",11.733433509789462,-11.733433509789464,images/picture_2.png,1,"[-11.733433509789462, 11.733433509789464]",-11.733433509789462,11.733433509789464,images/picture_3.png,2,"[11.733433509789464, 11.733433509789462]",11.733433509789464,11.733433509789462,0,1,1,0.5225196515079282,1.5225196515079282,1.4774803484920718,3,1,1.2725196515079282,0,0,0,0,0,0,4,4,5,,,,,,,,,,,,,,,,,,,,,200002,007,2023-03-16_16h37.49.948,DMS_BEST_eyetracking_DAN_base_12-36_looped_10minWORKING,2022.2.4,None,
5,PRED,12,0.5225196515079282,1,images/picture_2.png,images/picture_1.png,0,"[11.733433509789462, -11.733433509789466]",11.733433509789462,-11.733433509789464,images/picture_2.png,1,"[-11.733433509789462, 11.733433509789464]",-11.733433509789462,11.733433509789464,images/picture_3.png,2,"[11.733433509789464, 11.733433509789462]",11.733433509789464,11.733433509789462,0,1,1,0.5225196515079282,1.5225196515079282,1.4774803484920718,3,1,1.2725196515079282,0,0,0,0,0,0,4,4,5,,,,,,,0.0026475419872440398,89.09590945899254,89.09590945899254,90.09574125002837,90.38212000002386,90.61477275000652,90.61477275000652,90.61477275000652,92.09590387501521,92.09590387501521,92.09590387501521,92.09590387501521,3.9964073339942843,93.09580429201014,200002,007,2023-03-16_16h37.49.948,DMS_BEST_eyetracking_DAN_base_12-36_looped_10minWORKING,2022.2.4,None,
4,PRED,12,0.9777879201633548,1,images/picture_2.png,images/picture_1.png,0,"[11.733433509789462, -11.733433509789466]",11.733433509789462,-11.733433509789464,images/picture_2.png,1,"[11.733433509789464, 11.733433509789462]",11.733433509789464,11.733433509789462,images/picture_3.png,2,"[-11.733433509789462, 11.733433509789464]",-11.733433509789462,11.733433509789464,0,1,1,0.9777879201633548,1.9777879201633548,1.022212079836645,3,1,1.7277879201633548,0,0,0,0,0,0,5,5,4,,,,,,,,,,,,,,,,,,,,,200002,007,2023-03-16_16h37.49.948,DMS_BEST_eyetracking_DAN_base_12-36_looped_10minWORKING,2022.2.4,None,
4,PRED,12,0.9777879201633548,1,images/picture_2.png,images/picture_1.png,0,"[11.733433509789462, -11.733433509789466]",11.733433509789462,-11.733433509789464,images/picture_2.png,1,"[11.733433509789464, 11.733433509789462]",11.733433509789464,11.733433509789462,images/picture_3.png,2,"[-11.733433509789462, 11.733433509789464]",-11.733433509789462,11.733433509789464,0,1,1,0.9777879201633548,1.9777879201633548,1.022212079836645,3,1,1.7277879201633548,0,0,0,0,0,0,5,5,4,,,,,,,0.0020685000345110893,93.09580429201014,93.09580429201014,94.09602749999613,94.82947662501829,95.06242024997482,95.06242024997482,95.06242024997482,96.09570666699437,96.09570666699437,96.09570666699437,96.09570666699437,3.996858083002735,97.09565899998415,200002,007,2023-03-16_16h37.49.948,DMS_BEST_eyetracking_DAN_base_12-36_looped_10minWORKING,2022.2.4,None,
1,PRED,12,0.8111114707774582,1,images/picture_2.png,images/picture_1.png,0,"[-11.733433509789462, 11.733433509789464]",-11.733433509789462,11.733433509789464,images/picture_2.png,1,"[11.733433509789462, -11.733433509789466]",11.733433509789462,-11.733433509789464,images/picture_3.png,2,"[-11.733433509789466, -11.733433509789462]",-11.733433509789464,-11.733433509789462,0,1,1,0.8111114707774582,1.8111114707774585,1.1888885292225415,3,1,1.5611114707774585,0,0,0,0,0,0,6,6,1,,,,,,,,,,,,,,,,,,,,,200002,007,2023-03-16_16h37.49.948,DMS_BEST_eyetracking_DAN_base_12-36_looped_10minWORKING,2022.2.4,None,
1,PRED,12,0.8111114707774582,1,images/picture_2.png,images/picture_1.png,0,"[-11.733433509789462, 11.733433509789464]",-11.733433509789462,11.733433509789464,images/picture_2.png,1,"[11.733433509789462, -11.733433509789466]",11.733433509789462,-11.733433509789464,images/picture_3.png,2,"[-11.733433509789466, -11.733433509789462]",-11.733433509789464,-11.733433509789462,0,1,1,0.8111114707774582,1.8111114707774585,1.1888885292225415,3,1,1.5611114707774585,0,0,0,0,0,0,6,6,1,,,,,,,0.0019198329537175596,97.09565899998415,97.09565899998415,98.09588724997593,98.66250845900504,98.89575041702483,98.89575041702483,98.89575041702483,100.09578145900741,100.09578145900741,100.09578145900741,100.09578145900741,4.000352041970473,101.09731425001519,200002,007,2023-03-16_16h37.49.948,DMS_BEST_eyetracking_DAN_base_12-36_looped_10minWORKING,2022.2.4,None,
8,PRED,12,0.7111145086501902,1,images/picture_2.png,images/picture_1.png,0,"[-11.733433509789462, 11.733433509789464]",-11.733433509789462,11.733433509789464,images/picture_2.png,1,"[11.733433509789462, -11.733433509789466]",11.733433509789462,-11.733433509789464,images/picture_3.png,2,"[-11.733433509789466, -11.733433509789462]",-11.733433509789464,-11.733433509789462,0,1,1,0.7111145086501902,1.7111145086501902,1.2888854913498098,3,1,1.4611145086501902,0,0,0,0,0,0,7,7,8,,,,,,,,,,,,,,,,,,,,,200002,007,2023-03-16_16h37.49.948,DMS_BEST_eyetracking_DAN_base_12-36_looped_10minWORKING,2022.2.4,None,
8,PRED,12,0.7111145086501902,1,images/picture_2.png,images/picture_1.png,0,"[-11.733433509789462, 11.733433509789464]",-11.733433509789462,11.733433509789464,images/picture_2.png,1,"[11.733433509789462, -11.733433509789466]",11.733433509789462,-11.733433509789464,images/picture_3.png,2,"[-11.733433509789466, -11.733433509789462]",-11.733433509789464,-11.733433509789462,0,1,1,0.7111145086501902,1.7111145086501902,1.2888854913498098,3,1,1.4611145086501902,0,0,0,0,0,0,7,7,8,,,,,,,0.0024808329762890935,101.09731425001519,101.09731425001519,102.09601016697707,102.5623684169841,102.7957037499873,102.7957037499873,102.7957037499873,104.09581987501588,104.09581987501588,104.09581987501588,104.09581987501588,3.9962739999755286,105.09525970899267,200002,007,2023-03-16_16h37.49.948,DMS_BEST_eyetracking_DAN_base_12-36_looped_10minWORKING,2022.2.4,None,
6,PRED,12,1.0366514348720246,1,images/picture_2.png,images/picture_1.png,0,"[11.733433509789464, 11.733433509789462]",11.733433509789464,11.733433509789462,images/picture_2.png,1,"[-11.733433509789462, 11.733433509789464]",-11.733433509789462,11.733433509789464,images/picture_3.png,2,"[-11.733433509789466, -11.733433509789462]",-11.733433509789464,-11.733433509789462,0,1,1,1.0366514348720246,2.0366514348720246,0.9633485651279754,3,1,1.7866514348720246,0,0,0,0,0,0,8,8,6,,,,,,,,,,,,,,,,,,,,,200002,007,2023-03-16_16h37.49.948,DMS_BEST_eyetracking_DAN_base_12-36_looped_10minWORKING,2022.2.4,None,
6,PRED,12,1.0366514348720246,1,images/picture_2.png,images/picture_1.png,0,"[11.733433509789464, 11.733433509789462]",11.733433509789464,11.733433509789462,images/picture_2.png,1,"[-11.733433509789462, 11.733433509789464]",-11.733433509789462,11.733433509789464,images/picture_3.png,2,"[-11.733433509789466, -11.733433509789462]",-11.733433509789464,-11.733433509789462,0,1,1,1.0366514348720246,2.0366514348720246,0.9633485651279754,3,1,1.7866514348720246,0,0,0,0,0,0,8,8,6,,,,,,,0.0021200000192038715,105.09525970899267,105.09525970899267,106.09542995900847,106.89554058399517,107.12920737499371,107.12920737499371,107.12920737499371,108.09550145902904,108.09550145902904,108.09550145902904,108.09550145902904,3.996809125004802,109.11486849997891,200002,007,2023-03-16_16h37.49.948,DMS_BEST_eyetracking_DAN_base_12-36_looped_10minWORKING,2022.2.4,None,
,,,,,,,,,,,,,,,,,,,,,,,,,,,,,,,0,0,0,0,,,,,,,,,109.11486849997891,121.1478408750263,,,,,,,,,,,,,,,200002,007,2023-03-16_16h37.49.948,DMS_BEST_eyetracking_DAN_base_12-36_looped_10minWORKING,2022.2.4,None,
13,UNPRED,12,0.9748983057222236,1,images/picture_2.png,images/picture_1.png,0,"[-11.733433509789462, 11.733433509789464]",-11.733433509789462,11.733433509789464,images/picture_2.png,1,"[-11.733433509789466, -11.733433509789462]",-11.733433509789464,-11.733433509789462,images/picture_3.png,2,"[11.733433509789464, 11.733433509789462]",11.733433509789464,11.733433509789462,0,1,1,0.9748983057222236,1.974898305722224,1.0251016942777764,3,1,1.7248983057222236,0,1,0,1,0,0,0,0,4,,,,,,,,,,,,,,,,,,,,,200002,007,2023-03-16_16h37.49.948,DMS_BEST_eyetracking_DAN_base_12-36_looped_10minWORKING,2022.2.4,None,
13,UNPRED,12,0.9748983057222236,1,images/picture_2.png,images/picture_1.png,0,"[-11.733433509789462, 11.733433509789464]",-11.733433509789462,11.733433509789464,images/picture_2.png,1,"[-11.733433509789466, -11.733433509789462]",-11.733433509789464,-11.733433509789462,images/picture_3.png,2,"[11.733433509789464, 11.733433509789462]",11.733433509789464,11.733433509789462,0,1,1,0.9748983057222236,1.974898305722224,1.0251016942777764,3,1,1.7248983057222236,0,1,0,1,0,0,0,0,4,,,,,,,0.0024561250465922058,121.1478408750263,121.1478408750263,122.16258683399064,122.88139200001024,123.09575187502196,123.09575187502196,123.09575187502196,124.12892733397894,124.12892733397894,124.12892733397894,124.12892733397894,4.024669458041899,125.12882225000067,200002,007,2023-03-16_16h37.49.948,DMS_BEST_eyetracking_DAN_base_12-36_looped_10minWORKING,2022.2.4,None,
11,UNPRED,12,0.9669252832447636,1,images/picture_2.png,images/picture_1.png,0,"[11.733433509789462, -11.733433509789466]",11.733433509789462,-11.733433509789464,images/picture_2.png,1,"[11.733433509789464, 11.733433509789462]",11.733433509789464,11.733433509789462,images/picture_3.png,2,"[-11.733433509789466, -11.733433509789462]",-11.733433509789464,-11.733433509789462,0,1,1,0.9669252832447636,1.9669252832447637,1.0330747167552363,3,1,1.7169252832447637,0,1,0,1,0,0,1,1,2,,,,,,,,,,,,,,,,,,,,,200002,007,2023-03-16_16h37.49.948,DMS_BEST_eyetracking_DAN_base_12-36_looped_10minWORKING,2022.2.4,None,
11,UNPRED,12,0.9669252832447636,1,images/picture_2.png,images/picture_1.png,0,"[11.733433509789462, -11.733433509789466]",11.733433509789462,-11.733433509789464,images/picture_2.png,1,"[11.733433509789464, 11.733433509789462]",11.733433509789464,11.733433509789462,images/picture_3.png,2,"[-11.733433509789466, -11.733433509789462]",-11.733433509789464,-11.733433509789462,0,1,1,0.9669252832447636,1.9669252832447637,1.0330747167552363,3,1,1.7169252832447637,0,1,0,1,0,0,1,1,2,,,,,,,0.0021910000359639525,125.16188158397563,125.16188158397563,126.16220191697357,126.88097404199652,127.12842095899396,127.12842095899396,127.12842095899396,128.16185408399906,128.16185408399906,128.16185408399906,128.16185408399906,3.9975391250336543,129.16167729202425,200002,007,2023-03-16_16h37.49.948,DMS_BEST_eyetracking_DAN_base_12-36_looped_10minWORKING,2022.2.4,None,
17,UNPRED,12,0.6203359305889271,0,images/picture_1.png,images/picture_1.png,0,"[11.733433509789462, -11.733433509789466]",11.733433509789462,-11.733433509789464,images/picture_2.png,1,"[-11.733433509789466, -11.733433509789462]",-11.733433509789464,-11.733433509789462,images/picture_3.png,2,"[-11.733433509789462, 11.733433509789464]",-11.733433509789462,11.733433509789464,0,1,1,0.6203359305889271,1.6203359305889267,1.3796640694110731,3,1,1.3703359305889269,0,1,0,1,0,0,2,2,8,,,,,,,,,,,,,,,,,,,,,200002,007,2023-03-16_16h37.49.948,DMS_BEST_eyetracking_DAN_base_12-36_looped_10minWORKING,2022.2.4,None,
17,UNPRED,12,0.6203359305889271,0,images/picture_1.png,images/picture_1.png,0,"[11.733433509789462, -11.733433509789466]",11.733433509789462,-11.733433509789464,images/picture_2.png,1,"[-11.733433509789466, -11.733433509789462]",-11.733433509789464,-11.733433509789462,images/picture_3.png,2,"[-11.733433509789462, 11.733433509789464]",-11.733433509789462,11.733433509789464,0,1,1,0.6203359305889271,1.6203359305889267,1.3796640694110731,3,1,1.3703359305889269,0,1,0,1,0,0,2,2,8,,,,,,,0.0030468329787254333,129.16167729202425,129.16167729202425,130.16173454199452,130.52868395898258,130.7809612500132,130.7809612500132,130.7809612500132,132.16184670903021,132.16184670903021,132.16184670903021,132.16184670903021,3.997104749956634,133.16159916698234,200002,007,2023-03-16_16h37.49.948,DMS_BEST_eyetracking_DAN_base_12-36_looped_10minWORKING,2022.2.4,None,
15,UNPRED,12,0.9585987161392132,0,images/picture_1.png,images/picture_1.png,0,"[-11.733433509789466, -11.733433509789462]",-11.733433509789464,-11.733433509789462,images/picture_2.png,1,"[11.733433509789462, -11.733433509789466]",11.733433509789462,-11.733433509789464,images/picture_3.png,2,"[11.733433509789464, 11.733433509789462]",11.733433509789464,11.733433509789462,0,1,1,0.9585987161392132,1.958598716139213,1.041401283860787,3,1,1.708598716139213,0,1,0,1,0,0,3,3,6,,,,,,,,,,,,,,,,,,,,,200002,007,2023-03-16_16h37.49.948,DMS_BEST_eyetracking_DAN_base_12-36_looped_10minWORKING,2022.2.4,None,
15,UNPRED,12,0.9585987161392132,0,images/picture_1.png,images/picture_1.png,0,"[-11.733433509789466, -11.733433509789462]",-11.733433509789464,-11.733433509789462,images/picture_2.png,1,"[11.733433509789462, -11.733433509789466]",11.733433509789462,-11.733433509789464,images/picture_3.png,2,"[11.733433509789464, 11.733433509789462]",11.733433509789464,11.733433509789462,0,1,1,0.9585987161392132,1.958598716139213,1.041401283860787,3,1,1.708598716139213,0,1,0,1,0,0,3,3,6,,,,,,,0.0014674589619971812,133.16159916698234,133.16159916698234,134.16183108399855,134.8817179169855,135.11383516702335,135.11383516702335,135.11383516702335,136.16176479199203,136.16176479199203,136.16176479199203,136.16176479199203,3.9983558749663644,137.16180933400756,200002,007,2023-03-16_16h37.49.948,DMS_BEST_eyetracking_DAN_base_12-36_looped_10minWORKING,2022.2.4,None,
14,UNPRED,12,0.6681037035617088,1,images/picture_2.png,images/picture_1.png,0,"[-11.733433509789466, -11.733433509789462]",-11.733433509789464,-11.733433509789462,images/picture_2.png,1,"[11.733433509789462, -11.733433509789466]",11.733433509789462,-11.733433509789464,images/picture_3.png,2,"[-11.733433509789462, 11.733433509789464]",-11.733433509789462,11.733433509789464,0,1,1,0.6681037035617088,1.6681037035617088,1.3318962964382912,3,1,1.4181037035617088,0,1,0,1,0,0,4,4,5,,,,,,,,,,,,,,,,,,,,,200002,007,2023-03-16_16h37.49.948,DMS_BEST_eyetracking_DAN_base_12-36_looped_10minWORKING,2022.2.4,None,
14,UNPRED,12,0.6681037035617088,1,images/picture_2.png,images/picture_1.png,0,"[-11.733433509789466, -11.733433509789462]",-11.733433509789464,-11.733433509789462,images/picture_2.png,1,"[11.733433509789462, -11.733433509789466]",11.733433509789462,-11.733433509789464,images/picture_3.png,2,"[-11.733433509789462, 11.733433509789464]",-11.733433509789462,11.733433509789464,0,1,1,0.6681037035617088,1.6681037035617088,1.3318962964382912,3,1,1.4181037035617088,0,1,0,1,0,0,4,4,5,,,,,,,0.00269499997375533,137.16180933400756,137.16180933400756,138.16213166702073,138.59502441697987,138.82852608402027,138.82852608402027,138.82852608402027,140.1616503749974,140.1616503749974,140.1616503749974,140.1616503749974,3.998400499986019,141.16195895901183,200002,007,2023-03-16_16h37.49.948,DMS_BEST_eyetracking_DAN_base_12-36_looped_10minWORKING,2022.2.4,None,
12,UNPRED,12,0.9516797674027802,0,images/picture_1.png,images/picture_1.png,0,"[11.733433509789462, -11.733433509789466]",11.733433509789462,-11.733433509789464,images/picture_2.png,1,"[-11.733433509789466, -11.733433509789462]",-11.733433509789464,-11.733433509789462,images/picture_3.png,2,"[11.733433509789464, 11.733433509789462]",11.733433509789464,11.733433509789462,0,1,1,0.9516797674027802,1.95167976740278,1.0483202325972198,3,1,1.7016797674027802,0,1,0,1,0,0,5,5,3,,,,,,,,,,,,,,,,,,,,,200002,007,2023-03-16_16h37.49.948,DMS_BEST_eyetracking_DAN_base_12-36_looped_10minWORKING,2022.2.4,None,
12,UNPRED,12,0.9516797674027802,0,images/picture_1.png,images/picture_1.png,0,"[11.733433509789462, -11.733433509789466]",11.733433509789462,-11.733433509789464,images/picture_2.png,1,"[-11.733433509789466, -11.733433509789462]",-11.733433509789464,-11.733433509789462,images/picture_3.png,2,"[11.733433509789464, 11.733433509789462]",11.733433509789464,11.733433509789462,0,1,1,0.9516797674027802,1.95167976740278,1.0483202325972198,3,1,1.7016797674027802,0,1,0,1,0,0,5,5,3,,,,,,,0.00181124999653548,141.16195895901183,141.16195895901183,142.16154100000858,142.86164625000674,143.11428837501444,143.11428837501444,143.11428837501444,144.16165766702034,144.16165766702034,144.16165766702034,144.16165766702034,3.998297999962233,145.16129183402518,200002,007,2023-03-16_16h37.49.948,DMS_BEST_eyetracking_DAN_base_12-36_looped_10minWORKING,2022.2.4,None,
10,UNPRED,12,1.0292590501201375,1,images/picture_2.png,images/picture_1.png,0,"[-11.733433509789466, -11.733433509789462]",-11.733433509789464,-11.733433509789462,images/picture_2.png,1,"[11.733433509789462, -11.733433509789466]",11.733433509789462,-11.733433509789464,images/picture_3.png,2,"[11.733433509789464, 11.733433509789462]",11.733433509789464,11.733433509789462,0,1,1,1.0292590501201375,2.029259050120137,0.9707409498798624,3,1,1.7792590501201375,0,1,0,1,0,0,6,6,1,,,,,,,,,,,,,,,,,,,,,200002,007,2023-03-16_16h37.49.948,DMS_BEST_eyetracking_DAN_base_12-36_looped_10minWORKING,2022.2.4,None,
10,UNPRED,12,1.0292590501201375,1,images/picture_2.png,images/picture_1.png,0,"[-11.733433509789466, -11.733433509789462]",-11.733433509789464,-11.733433509789462,images/picture_2.png,1,"[11.733433509789462, -11.733433509789466]",11.733433509789462,-11.733433509789464,images/picture_3.png,2,"[11.733433509789464, 11.733433509789462]",11.733433509789464,11.733433509789462,0,1,1,1.0292590501201375,2.029259050120137,0.9707409498798624,3,1,1.7792590501201375,0,1,0,1,0,0,6,6,1,,,,,,,0.0022979170316830277,145.16129183402518,145.16129183402518,146.16148458397947,146.94763912499184,147.18228037498193,147.18228037498193,147.18228037498193,148.1621379170101,148.1621379170101,148.1621379170101,148.1621379170101,3.9985018330044113,149.161316083977,200002,007,2023-03-16_16h37.49.948,DMS_BEST_eyetracking_DAN_base_12-36_looped_10minWORKING,2022.2.4,None,
9,UNPRED,12,1.106144950499679,0,images/picture_1.png,images/picture_1.png,0,"[-11.733433509789462, 11.733433509789464]",-11.733433509789462,11.733433509789464,images/picture_2.png,1,"[11.733433509789464, 11.733433509789462]",11.733433509789464,11.733433509789462,images/picture_3.png,2,"[11.733433509789462, -11.733433509789466]",11.733433509789462,-11.733433509789464,0,1,1,1.106144950499679,2.106144950499679,0.8938550495003208,3,1,1.8561449504996788,0,1,0,1,0,0,7,7,0,,,,,,,,,,,,,,,,,,,,,200002,007,2023-03-16_16h37.49.948,DMS_BEST_eyetracking_DAN_base_12-36_looped_10minWORKING,2022.2.4,None,
9,UNPRED,12,1.106144950499679,0,images/picture_1.png,images/picture_1.png,0,"[-11.733433509789462, 11.733433509789464]",-11.733433509789462,11.733433509789464,images/picture_2.png,1,"[11.733433509789464, 11.733433509789462]",11.733433509789464,11.733433509789462,images/picture_3.png,2,"[11.733433509789462, -11.733433509789466]",11.733433509789462,-11.733433509789464,0,1,1,1.106144950499679,2.106144950499679,0.8938550495003208,3,1,1.8561449504996788,0,1,0,1,0,0,7,7,0,,,,,,,0.0018683330272324383,149.161316083977,149.161316083977,150.1614203749923,151.02824004198192,151.2615298340097,151.2615298340097,151.2615298340097,152.16143445897615,152.16143445897615,152.16143445897615,152.16143445897615,3.998710874991957,153.1613634590176,200002,007,2023-03-16_16h37.49.948,DMS_BEST_eyetracking_DAN_base_12-36_looped_10minWORKING,2022.2.4,None,
16,UNPRED,12,0.7410778806883542,1,images/picture_2.png,images/picture_1.png,0,"[-11.733433509789462, 11.733433509789464]",-11.733433509789462,11.733433509789464,images/picture_2.png,1,"[11.733433509789462, -11.733433509789466]",11.733433509789462,-11.733433509789464,images/picture_3.png,2,"[-11.733433509789466, -11.733433509789462]",-11.733433509789464,-11.733433509789462,0,1,1,0.7410778806883542,1.7410778806883542,1.2589221193116458,3,1,1.4910778806883542,0,1,0,1,0,0,8,8,7,,,,,,,,,,,,,,,,,,,,,200002,007,2023-03-16_16h37.49.948,DMS_BEST_eyetracking_DAN_base_12-36_looped_10minWORKING,2022.2.4,None,
16,UNPRED,12,0.7410778806883542,1,images/picture_2.png,images/picture_1.png,0,"[-11.733433509789462, 11.733433509789464]",-11.733433509789462,11.733433509789464,images/picture_2.png,1,"[11.733433509789462, -11.733433509789466]",11.733433509789462,-11.733433509789464,images/picture_3.png,2,"[-11.733433509789466, -11.733433509789462]",-11.733433509789464,-11.733433509789462,0,1,1,0.7410778806883542,1.7410778806883542,1.2589221193116458,3,1,1.4910778806883542,0,1,0,1,0,0,8,8,7,,,,,,,0.0023872910533100367,153.1613634590176,153.1613634590176,154.16129920899402,154.66140541702043,154.89467474998673,154.89467474998673,154.89467474998673,156.16133412497584,156.16133412497584,156.16133412497584,156.16133412497584,3.9988630410516635,157.1817312919884,200002,007,2023-03-16_16h37.49.948,DMS_BEST_eyetracking_DAN_base_12-36_looped_10minWORKING,2022.2.4,None,
,,,,,,,,,,,,,,,,,,,,,,,,,,,,,,,1,0,1,0,,,,,,,,,157.1817312919884,169.21437029202934,,,,,,,,,,,,,,,200002,007,2023-03-16_16h37.49.948,DMS_BEST_eyetracking_DAN_base_12-36_looped_10minWORKING,2022.2.4,None,
19,PRED,12,1.1911044790278384,2,images/picture_3.png,images/picture_1.png,0,"[-11.733433509789466, -11.733433509789462]",-11.733433509789464,-11.733433509789462,images/picture_2.png,1,"[-11.733433509789462, 11.733433509789464]",-11.733433509789462,11.733433509789464,images/picture_3.png,2,"[11.733433509789464, 11.733433509789462]",11.733433509789464,11.733433509789462,0,1,1,1.1911044790278384,2.1911044790278384,0.8088955209721616,3,1,1.9411044790278384,0,2,0,2,0,0,0,0,1,,,,,,,,,,,,,,,,,,,,,200002,007,2023-03-16_16h37.49.948,DMS_BEST_eyetracking_DAN_base_12-36_looped_10minWORKING,2022.2.4,None,
19,PRED,12,1.1911044790278384,2,images/picture_3.png,images/picture_1.png,0,"[-11.733433509789466, -11.733433509789462]",-11.733433509789464,-11.733433509789462,images/picture_2.png,1,"[-11.733433509789462, 11.733433509789464]",-11.733433509789462,11.733433509789464,images/picture_3.png,2,"[11.733433509789464, 11.733433509789462]",11.733433509789464,11.733433509789462,0,1,1,1.1911044790278384,2.1911044790278384,0.8088955209721616,3,1,1.9411044790278384,0,2,0,2,0,0,0,0,1,,,,,,,0.001960415975190699,169.21437029202934,169.21437029202934,170.22772812499898,171.16122091701254,171.3943128749961,171.3943128749961,171.3943128749961,172.2142238750239,172.2142238750239,172.2142238750239,172.19421533402056,4.021866165974643,173.19442941702437,200002,007,2023-03-16_16h37.49.948,DMS_BEST_eyetracking_DAN_base_12-36_looped_10minWORKING,2022.2.4,None,
23,PRED,12,0.7521657373189291,2,images/picture_3.png,images/picture_1.png,0,"[-11.733433509789466, -11.733433509789462]",-11.733433509789464,-11.733433509789462,images/picture_2.png,1,"[-11.733433509789462, 11.733433509789464]",-11.733433509789462,11.733433509789464,images/picture_3.png,2,"[11.733433509789464, 11.733433509789462]",11.733433509789464,11.733433509789462,0,1,1,0.7521657373189291,1.7521657373189288,1.247834262681071,3,1,1.5021657373189288,0,2,0,2,0,0,1,1,5,,,,,,,,,,,,,,,,,,,,,200002,007,2023-03-16_16h37.49.948,DMS_BEST_eyetracking_DAN_base_12-36_looped_10minWORKING,2022.2.4,None,
23,PRED,12,0.7521657373189291,2,images/picture_3.png,images/picture_1.png,0,"[-11.733433509789466, -11.733433509789462]",-11.733433509789464,-11.733433509789462,images/picture_2.png,1,"[-11.733433509789462, 11.733433509789464]",-11.733433509789462,11.733433509789464,images/picture_3.png,2,"[11.733433509789464, 11.733433509789462]",11.733433509789464,11.733433509789462,0,1,1,0.7521657373189291,1.7521657373189288,1.247834262681071,3,1,1.5021657373189288,0,2,0,2,0,0,1,1,5,,,,,,,0.0015022499719634652,173.22761762497248,173.22761762497248,174.22771479201037,174.72798866702942,174.98079933400732,174.98079933400732,174.98079933400732,176.22768204199383,176.22768204199383,176.22768204199383,176.22768204199383,3.997237999981735,177.22753587499028,200002,007,2023-03-16_16h37.49.948,DMS_BEST_eyetracking_DAN_base_12-36_looped_10minWORKING,2022.2.4,None,
25,PRED,12,1.15482332327958,2,images/picture_3.png,images/picture_1.png,0,"[-11.733433509789466, -11.733433509789462]",-11.733433509789464,-11.733433509789462,images/picture_2.png,1,"[11.733433509789464, 11.733433509789462]",11.733433509789464,11.733433509789462,images/picture_3.png,2,"[-11.733433509789462, 11.733433509789464]",-11.733433509789462,11.733433509789464,0,1,1,1.15482332327958,2.1548233232795804,0.8451766767204201,3,1,1.9048233232795801,0,2,0,2,0,0,2,2,7,,,,,,,,,,,,,,,,,,,,,200002,007,2023-03-16_16h37.49.948,DMS_BEST_eyetracking_DAN_base_12-36_looped_10minWORKING,2022.2.4,None,
25,PRED,12,1.15482332327958,2,images/picture_3.png,images/picture_1.png,0,"[-11.733433509789466, -11.733433509789462]",-11.733433509789464,-11.733433509789462,images/picture_2.png,1,"[11.733433509789464, 11.733433509789462]",11.733433509789464,11.733433509789462,images/picture_3.png,2,"[-11.733433509789462, 11.733433509789464]",-11.733433509789462,11.733433509789464,0,1,1,1.15482332327958,2.1548233232795804,0.8451766767204201,3,1,1.9048233232795801,0,2,0,2,0,0,2,2,7,,,,,,,0.0013154590269550681,177.22753587499028,177.22753587499028,178.22751058399444,179.14712874998804,179.37981983402278,179.37981983402278,179.37981983402278,180.2277898750035,180.2277898750035,180.2277898750035,180.2277898750035,3.997116292011924,181.22745083400514,200002,007,2023-03-16_16h37.49.948,DMS_BEST_eyetracking_DAN_base_12-36_looped_10minWORKING,2022.2.4,None,
21,PRED,12,0.6500529915120044,2,images/picture_3.png,images/picture_1.png,0,"[-11.733433509789462, 11.733433509789464]",-11.733433509789462,11.733433509789464,images/picture_2.png,1,"[-11.733433509789466, -11.733433509789462]",-11.733433509789464,-11.733433509789462,images/picture_3.png,2,"[11.733433509789464, 11.733433509789462]",11.733433509789464,11.733433509789462,0,1,1,0.6500529915120044,1.6500529915120044,1.3499470084879956,3,1,1.4000529915120044,0,2,0,2,0,0,3,3,3,,,,,,,,,,,,,,,,,,,,,200002,007,2023-03-16_16h37.49.948,DMS_BEST_eyetracking_DAN_base_12-36_looped_10minWORKING,2022.2.4,None,
21,PRED,12,0.6500529915120044,2,images/picture_3.png,images/picture_1.png,0,"[-11.733433509789462, 11.733433509789464]",-11.733433509789462,11.733433509789464,images/picture_2.png,1,"[-11.733433509789466, -11.733433509789462]",-11.733433509789464,-11.733433509789462,images/picture_3.png,2,"[11.733433509789464, 11.733433509789462]",11.733433509789464,11.733433509789462,0,1,1,0.6500529915120044,1.6500529915120044,1.3499470084879956,3,1,1.4000529915120044,0,2,0,2,0,0,3,3,3,,,,,,,0.001390957972034812,181.22745083400514,181.22745083400514,182.2275869169971,182.62750699999742,182.879693416995,182.879693416995,182.879693416995,184.22825141699286,184.22825141699286,184.22825141699286,184.22825141699286,3.998697540955618,185.22804625000572,200002,007,2023-03-16_16h37.49.948,DMS_BEST_eyetracking_DAN_base_12-36_looped_10minWORKING,2022.2.4,None,
20,PRED,12,1.1685210256334972,2,images/picture_3.png,images/picture_1.png,0,"[-11.733433509789466, -11.733433509789462]",-11.733433509789464,-11.733433509789462,images/picture_2.png,1,"[11.733433509789464, 11.733433509789462]",11.733433509789464,11.733433509789462,images/picture_3.png,2,"[-11.733433509789462, 11.733433509789464]",-11.733433509789462,11.733433509789464,0,1,1,1.1685210256334972,2.168521025633497,0.8314789743665028,3,1,1.9185210256334968,0,2,0,2,0,0,4,4,2,,,,,,,,,,,,,,,,,,,,,200002,007,2023-03-16_16h37.49.948,DMS_BEST_eyetracking_DAN_base_12-36_looped_10minWORKING,2022.2.4,None,
20,PRED,12,1.1685210256334972,2,images/picture_3.png,images/picture_1.png,0,"[-11.733433509789466, -11.733433509789462]",-11.733433509789464,-11.733433509789462,images/picture_2.png,1,"[11.733433509789464, 11.733433509789462]",11.733433509789464,11.733433509789462,images/picture_3.png,2,"[-11.733433509789462, 11.733433509789464]",-11.733433509789462,11.733433509789464,0,1,1,1.1685210256334972,2.168521025633497,0.8314789743665028,3,1,1.9185210256334968,0,2,0,2,0,0,4,4,2,,,,,,,0.0015597919700667262,185.22804625000572,185.22804625000572,186.22747312497813,187.1606514590094,187.39406820898876,187.39406820898876,187.39406820898876,188.227415249974,188.227415249974,188.227415249974,188.227415249974,3.9976778749842197,189.22727841697633,200002,007,2023-03-16_16h37.49.948,DMS_BEST_eyetracking_DAN_base_12-36_looped_10minWORKING,2022.2.4,None,
22,PRED,12,1.1207929393840612,2,images/picture_3.png,images/picture_1.png,0,"[-11.733433509789466, -11.733433509789462]",-11.733433509789464,-11.733433509789462,images/picture_2.png,1,"[-11.733433509789462, 11.733433509789464]",-11.733433509789462,11.733433509789464,images/picture_3.png,2,"[11.733433509789462, -11.733433509789466]",11.733433509789462,-11.733433509789464,0,1,1,1.1207929393840612,2.120792939384061,0.8792070606159388,3,1,1.870792939384061,0,2,0,2,0,0,5,5,4,,,,,,,,,,,,,,,,,,,,,200002,007,2023-03-16_16h37.49.948,DMS_BEST_eyetracking_DAN_base_12-36_looped_10minWORKING,2022.2.4,None,
22,PRED,12,1.1207929393840612,2,images/picture_3.png,images/picture_1.png,0,"[-11.733433509789466, -11.733433509789462]",-11.733433509789464,-11.733433509789462,images/picture_2.png,1,"[-11.733433509789462, 11.733433509789464]",-11.733433509789462,11.733433509789464,images/picture_3.png,2,"[11.733433509789462, -11.733433509789466]",11.733433509789462,-11.733433509789464,0,1,1,1.1207929393840612,2.120792939384061,0.8792070606159388,3,1,1.870792939384061,0,2,0,2,0,0,5,5,4,,,,,,,0.0026059160009026527,189.22727841697633,189.22727841697633,190.227456542023,191.11313629202778,191.34720895899227,191.34720895899227,191.34720895899227,192.22728470899165,192.22728470899165,192.22728470899165,192.22728470899165,3.995746415981557,193.2269992500078,200002,007,2023-03-16_16h37.49.948,DMS_BEST_eyetracking_DAN_base_12-36_looped_10minWORKING,2022.2.4,None,
26,PRED,12,1.1019454417637755,2,images/picture_3.png,images/picture_1.png,0,"[11.733433509789464, 11.733433509789462]",11.733433509789464,11.733433509789462,images/picture_2.png,1,"[-11.733433509789466, -11.733433509789462]",-11.733433509789464,-11.733433509789462,images/picture_3.png,2,"[11.733433509789462, -11.733433509789466]",11.733433509789462,-11.733433509789464,0,1,1,1.1019454417637755,2.1019454417637755,0.8980545582362245,3,1,1.8519454417637755,0,2,0,2,0,0,6,6,8,,,,,,,,,,,,,,,,,,,,,200002,007,2023-03-16_16h37.49.948,DMS_BEST_eyetracking_DAN_base_12-36_looped_10minWORKING,2022.2.4,None,
26,PRED,12,1.1019454417637755,2,images/picture_3.png,images/picture_1.png,0,"[11.733433509789464, 11.733433509789462]",11.733433509789464,11.733433509789462,images/picture_2.png,1,"[-11.733433509789466, -11.733433509789462]",-11.733433509789464,-11.733433509789462,images/picture_3.png,2,"[11.733433509789462, -11.733433509789466]",11.733433509789462,-11.733433509789464,0,1,1,1.1019454417637755,2.1019454417637755,0.8980545582362245,3,1,1.8519454417637755,0,2,0,2,0,0,6,6,8,,,,,,,0.0015122080221772194,193.2269992500078,193.2269992500078,194.22733162500663,195.09406566701364,195.32718887500232,195.32718887500232,195.32718887500232,196.2273752919864,196.2273752919864,196.2273752919864,196.2273752919864,3.996805333008524,197.22708491701633,200002,007,2023-03-16_16h37.49.948,DMS_BEST_eyetracking_DAN_base_12-36_looped_10minWORKING,2022.2.4,None,
24,PRED,12,0.8796042415597601,2,images/picture_3.png,images/picture_1.png,0,"[11.733433509789462, -11.733433509789466]",11.733433509789462,-11.733433509789464,images/picture_2.png,1,"[-11.733433509789462, 11.733433509789464]",-11.733433509789462,11.733433509789464,images/picture_3.png,2,"[-11.733433509789466, -11.733433509789462]",-11.733433509789464,-11.733433509789462,0,1,1,0.8796042415597601,1.87960424155976,1.1203957584402398,3,1,1.6296042415597602,0,2,0,2,0,0,7,7,6,,,,,,,,,,,,,,,,,,,,,200002,007,2023-03-16_16h37.49.948,DMS_BEST_eyetracking_DAN_base_12-36_looped_10minWORKING,2022.2.4,None,
24,PRED,12,0.8796042415597601,2,images/picture_3.png,images/picture_1.png,0,"[11.733433509789462, -11.733433509789466]",11.733433509789462,-11.733433509789464,images/picture_2.png,1,"[-11.733433509789462, 11.733433509789464]",-11.733433509789462,11.733433509789464,images/picture_3.png,2,"[-11.733433509789466, -11.733433509789462]",-11.733433509789464,-11.733433509789462,0,1,1,0.8796042415597601,1.87960424155976,1.1203957584402398,3,1,1.6296042415597602,0,2,0,2,0,0,7,7,6,,,,,,,0.0014694170095026493,197.22708491701633,197.22708491701633,198.22863279201556,198.86063020897564,199.09405366698047,199.09405366698047,199.09405366698047,200.22740808402887,200.22740808402887,200.22740808402887,200.22740808402887,3.9972451670328155,201.22716520901304,200002,007,2023-03-16_16h37.49.948,DMS_BEST_eyetracking_DAN_base_12-36_looped_10minWORKING,2022.2.4,None,
18,PRED,12,0.8817061615921541,2,images/picture_3.png,images/picture_1.png,0,"[11.733433509789462, -11.733433509789466]",11.733433509789462,-11.733433509789464,images/picture_2.png,1,"[-11.733433509789462, 11.733433509789464]",-11.733433509789462,11.733433509789464,images/picture_3.png,2,"[11.733433509789464, 11.733433509789462]",11.733433509789464,11.733433509789462,0,1,1,0.8817061615921541,1.881706161592154,1.118293838407846,3,1,1.631706161592154,0,2,0,2,0,0,8,8,0,,,,,,,,,,,,,,,,,,,,,200002,007,2023-03-16_16h37.49.948,DMS_BEST_eyetracking_DAN_base_12-36_looped_10minWORKING,2022.2.4,None,
18,PRED,12,0.8817061615921541,2,images/picture_3.png,images/picture_1.png,0,"[11.733433509789462, -11.733433509789466]",11.733433509789462,-11.733433509789464,images/picture_2.png,1,"[-11.733433509789462, 11.733433509789464]",-11.733433509789462,11.733433509789464,images/picture_3.png,2,"[11.733433509789464, 11.733433509789462]",11.733433509789464,11.733433509789462,0,1,1,0.8817061615921541,1.881706161592154,1.118293838407846,3,1,1.631706161592154,0,2,0,2,0,0,8,8,0,,,,,,,0.0013715829700231552,201.22716520901304,201.22716520901304,202.227114874986,202.8615762499976,203.0937364170095,203.0937364170095,203.0937364170095,204.2271936670295,204.2271936670295,204.2271936670295,204.2271936670295,3.9988536669989116,205.25348312500864,200002,007,2023-03-16_16h37.49.948,DMS_BEST_eyetracking_DAN_base_12-36_looped_10minWORKING,2022.2.4,None,
,,,,,,,,,,,,,,,,,,,,,,,,,,,,,,,2,0,2,0,,,,,,,,,205.25348312500864,217.27880091697443,,,,,,,,,,,,,,,200002,007,2023-03-16_16h37.49.948,DMS_BEST_eyetracking_DAN_base_12-36_looped_10minWORKING,2022.2.4,None,
33,UNPRED,12,0.8784130250081781,1,images/picture_2.png,images/picture_1.png,0,"[-11.733433509789462, 11.733433509789464]",-11.733433509789462,11.733433509789464,images/picture_2.png,1,"[11.733433509789464, 11.733433509789462]",11.733433509789464,11.733433509789462,images/picture_3.png,2,"[11.733433509789462, -11.733433509789466]",11.733433509789462,-11.733433509789464,0,1,1,0.8784130250081781,1.8784130250081783,1.1215869749918221,3,1,1.6284130250081783,0,3,0,3,0,0,0,0,6,,,,,,,,,,,,,,,,,,,,,200002,007,2023-03-16_16h37.49.948,DMS_BEST_eyetracking_DAN_base_12-36_looped_10minWORKING,2022.2.4,None,
33,UNPRED,12,0.8784130250081781,1,images/picture_2.png,images/picture_1.png,0,"[-11.733433509789462, 11.733433509789464]",-11.733433509789462,11.733433509789464,images/picture_2.png,1,"[11.733433509789464, 11.733433509789462]",11.733433509789464,11.733433509789462,images/picture_3.png,2,"[11.733433509789462, -11.733433509789466]",11.733433509789462,-11.733433509789464,0,1,1,0.8784130250081781,1.8784130250081783,1.1215869749918221,3,1,1.6284130250081783,0,3,0,3,0,0,0,0,6,,,,,,,0.0024356250069104135,217.27880091697443,217.27880091697443,218.29356479202397,218.91276204201858,219.1462084170198,219.1462084170198,219.1462084170198,220.27992162498413,220.27992162498413,220.27992162498413,220.26030233397614,4.004877875035163,221.26195729197934,200002,007,2023-03-16_16h37.49.948,DMS_BEST_eyetracking_DAN_base_12-36_looped_10minWORKING,2022.2.4,None,
31,UNPRED,12,0.6273521783580449,1,images/picture_2.png,images/picture_1.png,0,"[11.733433509789462, -11.733433509789466]",11.733433509789462,-11.733433509789464,images/picture_2.png,1,"[11.733433509789464, 11.733433509789462]",11.733433509789464,11.733433509789462,images/picture_3.png,2,"[-11.733433509789462, 11.733433509789464]",-11.733433509789462,11.733433509789464,0,1,1,0.6273521783580449,1.627352178358045,1.372647821641955,3,1,1.377352178358045,0,3,0,3,0,0,1,1,4,,,,,,,,,,,,,,,,,,,,,200002,007,2023-03-16_16h37.49.948,DMS_BEST_eyetracking_DAN_base_12-36_looped_10minWORKING,2022.2.4,None,
31,UNPRED,12,0.6273521783580449,1,images/picture_2.png,images/picture_1.png,0,"[11.733433509789462, -11.733433509789466]",11.733433509789462,-11.733433509789464,images/picture_2.png,1,"[11.733433509789464, 11.733433509789462]",11.733433509789464,11.733433509789462,images/picture_3.png,2,"[-11.733433509789462, 11.733433509789464]",-11.733433509789462,11.733433509789464,0,1,1,0.6273521783580449,1.627352178358045,1.372647821641955,3,1,1.377352178358045,0,3,0,3,0,0,1,1,4,,,,,,,0.002100583049468696,221.2803206249955,221.2803206249955,222.29369337501703,222.660521666985,222.89341733400943,222.89341733400943,222.89341733400943,224.27925045898883,224.27925045898883,224.27925045898883,224.26005179202184,4.015701500000432,225.26035879197298,200002,007,2023-03-16_16h37.49.948,DMS_BEST_eyetracking_DAN_base_12-36_looped_10minWORKING,2022.2.4,None,
29,UNPRED,12,1.1511545999477513,2,images/picture_3.png,images/picture_1.png,0,"[-11.733433509789462, 11.733433509789464]",-11.733433509789462,11.733433509789464,images/picture_2.png,1,"[-11.733433509789466, -11.733433509789462]",-11.733433509789464,-11.733433509789462,images/picture_3.png,2,"[11.733433509789462, -11.733433509789466]",11.733433509789462,-11.733433509789464,0,1,1,1.1511545999477513,2.151154599947751,0.8488454000522487,3,1,1.9011545999477508,0,3,0,3,0,0,2,2,2,,,,,,,,,,,,,,,,,,,,,200002,007,2023-03-16_16h37.49.948,DMS_BEST_eyetracking_DAN_base_12-36_looped_10minWORKING,2022.2.4,None,
29,UNPRED,12,1.1511545999477513,2,images/picture_3.png,images/picture_1.png,0,"[-11.733433509789462, 11.733433509789464]",-11.733433509789462,11.733433509789464,images/picture_2.png,1,"[-11.733433509789466, -11.733433509789462]",-11.733433509789464,-11.733433509789462,images/picture_3.png,2,"[11.733433509789462, -11.733433509789466]",11.733433509789462,-11.733433509789464,0,1,1,1.1511545999477513,2.151154599947751,0.8488454000522487,3,1,1.9011545999477508,0,3,0,3,0,0,2,2,2,,,,,,,0.0023616250255145133,225.2931275839801,225.2931275839801,226.29346491699107,227.19361191702774,227.4456837089965,227.4456837089965,227.4456837089965,228.29342012497364,228.29342012497364,228.29342012497364,228.29342012497364,3.997004000004381,229.2933014589944,200002,007,2023-03-16_16h37.49.948,DMS_BEST_eyetracking_DAN_base_12-36_looped_10minWORKING,2022.2.4,None,
28,UNPRED,12,0.9766772507830976,1,images/picture_2.png,images/picture_1.png,0,"[11.733433509789464, 11.733433509789462]",11.733433509789464,11.733433509789462,images/picture_2.png,1,"[-11.733433509789462, 11.733433509789464]",-11.733433509789462,11.733433509789464,images/picture_3.png,2,"[11.733433509789462, -11.733433509789466]",11.733433509789462,-11.733433509789464,0,1,1,0.9766772507830976,1.9766772507830976,1.0233227492169024,3,1,1.7266772507830976,0,3,0,3,0,0,3,3,1,,,,,,,,,,,,,,,,,,,,,200002,007,2023-03-16_16h37.49.948,DMS_BEST_eyetracking_DAN_base_12-36_looped_10minWORKING,2022.2.4,None,
28,UNPRED,12,0.9766772507830976,1,images/picture_2.png,images/picture_1.png,0,"[11.733433509789464, 11.733433509789462]",11.733433509789464,11.733433509789462,images/picture_2.png,1,"[-11.733433509789462, 11.733433509789464]",-11.733433509789462,11.733433509789464,images/picture_3.png,2,"[11.733433509789462, -11.733433509789466]",11.733433509789462,-11.733433509789464,0,1,1,0.9766772507830976,1.9766772507830976,1.0233227492169024,3,1,1.7266772507830976,0,3,0,3,0,0,3,3,1,,,,,,,0.0019340839935466647,229.2933014589944,229.2933014589944,230.29343054199126,231.0267971670255,231.26009275001707,231.26009275001707,231.26009275001707,232.29334516701056,232.29334516701056,232.29334516701056,232.29334516701056,3.998098541982472,233.29317833401728,200002,007,2023-03-16_16h37.49.948,DMS_BEST_eyetracking_DAN_base_12-36_looped_10minWORKING,2022.2.4,None,
35,UNPRED,12,0.6726243884874825,1,images/picture_2.png,images/picture_1.png,0,"[-11.733433509789462, 11.733433509789464]",-11.733433509789462,11.733433509789464,images/picture_2.png,1,"[-11.733433509789466, -11.733433509789462]",-11.733433509789464,-11.733433509789462,images/picture_3.png,2,"[11.733433509789462, -11.733433509789466]",11.733433509789462,-11.733433509789464,0,1,1,0.6726243884874825,1.6726243884874823,1.3273756115125177,3,1,1.4226243884874823,0,3,0,3,0,0,4,4,8,,,,,,,,,,,,,,,,,,,,,200002,007,2023-03-16_16h37.49.948,DMS_BEST_eyetracking_DAN_base_12-36_looped_10minWORKING,2022.2.4,None,
35,UNPRED,12,0.6726243884874825,1,images/picture_2.png,images/picture_1.png,0,"[-11.733433509789462, 11.733433509789464]",-11.733433509789462,11.733433509789464,images/picture_2.png,1,"[-11.733433509789466, -11.733433509789462]",-11.733433509789464,-11.733433509789462,images/picture_3.png,2,"[11.733433509789462, -11.733433509789466]",11.733433509789462,-11.733433509789464,0,1,1,0.6726243884874825,1.6726243884874823,1.3273756115125177,3,1,1.4226243884874823,0,3,0,3,0,0,4,4,8,,,,,,,0.0018836670205928385,233.29317833401728,233.29317833401728,234.29331379197538,234.72721587499836,234.95983341702959,234.95983341702959,234.95983341702959,236.29329533397686,236.29329533397686,236.29329533397686,236.29329533397686,3.9988489170209505,237.2931542089791,200002,007,2023-03-16_16h37.49.948,DMS_BEST_eyetracking_DAN_base_12-36_looped_10minWORKING,2022.2.4,None,
34,UNPRED,12,0.5538030180246973,2,images/picture_3.png,images/picture_1.png,0,"[-11.733433509789462, 11.733433509789464]",-11.733433509789462,11.733433509789464,images/picture_2.png,1,"[-11.733433509789466, -11.733433509789462]",-11.733433509789464,-11.733433509789462,images/picture_3.png,2,"[11.733433509789462, -11.733433509789466]",11.733433509789462,-11.733433509789464,0,1,1,0.5538030180246973,1.5538030180246971,1.4461969819753029,3,1,1.3038030180246971,0,3,0,3,0,0,5,5,7,,,,,,,,,,,,,,,,,,,,,200002,007,2023-03-16_16h37.49.948,DMS_BEST_eyetracking_DAN_base_12-36_looped_10minWORKING,2022.2.4,None,
34,UNPRED,12,0.5538030180246973,2,images/picture_3.png,images/picture_1.png,0,"[-11.733433509789462, 11.733433509789464]",-11.733433509789462,11.733433509789464,images/picture_2.png,1,"[-11.733433509789466, -11.733433509789462]",-11.733433509789464,-11.733433509789462,images/picture_3.png,2,"[11.733433509789462, -11.733433509789466]",11.733433509789462,-11.733433509789464,0,1,1,0.5538030180246973,1.5538030180246971,1.4461969819753029,3,1,1.3038030180246971,0,3,0,3,0,0,5,5,7,,,,,,,0.0014457500074058771,237.2931542089791,237.2931542089791,238.2932026250055,238.6121077919961,238.84559758397518,238.84559758397518,238.84559758397518,240.2931917089736,240.2931917089736,240.2931917089736,240.2931917089736,3.9978059589629993,241.29295874998206,200002,007,2023-03-16_16h37.49.948,DMS_BEST_eyetracking_DAN_base_12-36_looped_10minWORKING,2022.2.4,None,
32,UNPRED,12,1.0711776092586376,1,images/picture_2.png,images/picture_1.png,0,"[-11.733433509789466, -11.733433509789462]",-11.733433509789464,-11.733433509789462,images/picture_2.png,1,"[-11.733433509789462, 11.733433509789464]",-11.733433509789462,11.733433509789464,images/picture_3.png,2,"[11.733433509789462, -11.733433509789466]",11.733433509789462,-11.733433509789464,0,1,1,1.0711776092586376,2.0711776092586383,0.9288223907413624,3,1,1.8211776092586376,0,3,0,3,0,0,6,6,5,,,,,,,,,,,,,,,,,,,,,200002,007,2023-03-16_16h37.49.948,DMS_BEST_eyetracking_DAN_base_12-36_looped_10minWORKING,2022.2.4,None,
32,UNPRED,12,1.0711776092586376,1,images/picture_2.png,images/picture_1.png,0,"[-11.733433509789466, -11.733433509789462]",-11.733433509789464,-11.733433509789462,images/picture_2.png,1,"[-11.733433509789462, 11.733433509789464]",-11.733433509789462,11.733433509789464,images/picture_3.png,2,"[11.733433509789462, -11.733433509789466]",11.733433509789462,-11.733433509789464,0,1,1,1.0711776092586376,2.0711776092586383,0.9288223907413624,3,1,1.8211776092586376,0,3,0,3,0,0,6,6,5,,,,,,,0.0019337079720571637,241.29295874998206,241.29295874998206,242.2930978750228,243.1268841670244,243.3599263340002,243.3599263340002,243.3599263340002,244.2930755839916,244.2930755839916,244.2930755839916,244.2930755839916,3.9984807079890743,245.2929278339725,200002,007,2023-03-16_16h37.49.948,DMS_BEST_eyetracking_DAN_base_12-36_looped_10minWORKING,2022.2.4,None,
27,UNPRED,12,0.6701977602230398,2,images/picture_3.png,images/picture_1.png,0,"[11.733433509789464, 11.733433509789462]",11.733433509789464,11.733433509789462,images/picture_2.png,1,"[11.733433509789462, -11.733433509789466]",11.733433509789462,-11.733433509789464,images/picture_3.png,2,"[-11.733433509789466, -11.733433509789462]",-11.733433509789464,-11.733433509789462,0,1,1,0.6701977602230398,1.6701977602230398,1.3298022397769602,3,1,1.4201977602230398,0,3,0,3,0,0,7,7,0,,,,,,,,,,,,,,,,,,,,,200002,007,2023-03-16_16h37.49.948,DMS_BEST_eyetracking_DAN_base_12-36_looped_10minWORKING,2022.2.4,None,
27,UNPRED,12,0.6701977602230398,2,images/picture_3.png,images/picture_1.png,0,"[11.733433509789464, 11.733433509789462]",11.733433509789464,11.733433509789462,images/picture_2.png,1,"[11.733433509789462, -11.733433509789466]",11.733433509789462,-11.733433509789464,images/picture_3.png,2,"[-11.733433509789466, -11.733433509789462]",-11.733433509789464,-11.733433509789462,0,1,1,0.6701977602230398,1.6701977602230398,1.3298022397769602,3,1,1.4201977602230398,0,3,0,3,0,0,7,7,0,,,,,,,0.0013683750294148922,245.2929278339725,245.2929278339725,246.29306533402996,246.72630600002594,246.9596510839765,246.9596510839765,246.9596510839765,248.2929982499918,248.2929982499918,248.2929982499918,248.2929982499918,3.9997852090164088,249.29342320899013,200002,007,2023-03-16_16h37.49.948,DMS_BEST_eyetracking_DAN_base_12-36_looped_10minWORKING,2022.2.4,None,
30,UNPRED,12,0.5187767341925936,0,images/picture_1.png,images/picture_1.png,0,"[11.733433509789464, 11.733433509789462]",11.733433509789464,11.733433509789462,images/picture_2.png,1,"[-11.733433509789466, -11.733433509789462]",-11.733433509789464,-11.733433509789462,images/picture_3.png,2,"[11.733433509789462, -11.733433509789466]",11.733433509789462,-11.733433509789464,0,1,1,0.5187767341925936,1.5187767341925935,1.4812232658074065,3,1,1.2687767341925935,0,3,0,3,0,0,8,8,3,,,,,,,,,,,,,,,,,,,,,200002,007,2023-03-16_16h37.49.948,DMS_BEST_eyetracking_DAN_base_12-36_looped_10minWORKING,2022.2.4,None,
30,UNPRED,12,0.5187767341925936,0,images/picture_1.png,images/picture_1.png,0,"[11.733433509789464, 11.733433509789462]",11.733433509789464,11.733433509789462,images/picture_2.png,1,"[-11.733433509789466, -11.733433509789462]",-11.733433509789464,-11.733433509789462,images/picture_3.png,2,"[11.733433509789462, -11.733433509789466]",11.733433509789462,-11.733433509789464,0,1,1,0.5187767341925936,1.5187767341925935,1.4812232658074065,3,1,1.2687767341925935,0,3,0,3,0,0,8,8,3,,,,,,,0.0031588750425726175,249.29342320899013,249.29342320899013,250.29295391699998,250.55966912501026,250.81191275001038,250.81191275001038,250.81191275001038,252.29299400001764,252.29299400001764,252.29299400001764,252.29299400001764,3.996998666028958,253.32922954199603,200002,007,2023-03-16_16h37.49.948,DMS_BEST_eyetracking_DAN_base_12-36_looped_10minWORKING,2022.2.4,None,
,,,,,,,,,,,,,,,,,,,,,,,,,,,,,,,3,0,3,0,,,,,,,,,253.32922954199603,265.3448578339885,,,,,,,,,,,,,,,200002,007,2023-03-16_16h37.49.948,DMS_BEST_eyetracking_DAN_base_12-36_looped_10minWORKING,2022.2.4,None,
38,PRED,12,1.006373194570708,1,images/picture_2.png,images/picture_1.png,0,"[-11.733433509789466, -11.733433509789462]",-11.733433509789464,-11.733433509789462,images/picture_2.png,1,"[-11.733433509789462, 11.733433509789464]",-11.733433509789462,11.733433509789464,images/picture_3.png,2,"[11.733433509789462, -11.733433509789466]",11.733433509789462,-11.733433509789464,0,1,1,1.006373194570708,2.006373194570708,0.993626805429292,3,1,1.756373194570708,0,4,0,4,0,0,0,0,2,,,,,,,,,,,,,,,,,,,,,200002,007,2023-03-16_16h37.49.948,DMS_BEST_eyetracking_DAN_base_12-36_looped_10minWORKING,2022.2.4,None,
38,PRED,12,1.006373194570708,1,images/picture_2.png,images/picture_1.png,0,"[-11.733433509789466, -11.733433509789462]",-11.733433509789464,-11.733433509789462,images/picture_2.png,1,"[-11.733433509789462, 11.733433509789464]",-11.733433509789462,11.733433509789464,images/picture_3.png,2,"[11.733433509789462, -11.733433509789466]",11.733433509789462,-11.733433509789464,0,1,1,1.006373194570708,2.006373194570708,0.993626805429292,3,1,1.756373194570708,0,4,0,4,0,0,0,0,2,,,,,,,0.002352458017412573,265.3448578339885,265.3448578339885,266.35937891702633,267.11167312500766,267.3260025419877,267.3260025419877,267.3260025419877,268.3258867500117,268.3258867500117,268.3258867500117,268.3258867500117,4.021947125031147,269.3260480419849,200002,007,2023-03-16_16h37.49.948,DMS_BEST_eyetracking_DAN_base_12-36_looped_10minWORKING,2022.2.4,None,
36,PRED,12,0.9831256021224192,1,images/picture_2.png,images/picture_1.png,0,"[-11.733433509789462, 11.733433509789464]",-11.733433509789462,11.733433509789464,images/picture_2.png,1,"[-11.733433509789466, -11.733433509789462]",-11.733433509789464,-11.733433509789462,images/picture_3.png,2,"[11.733433509789464, 11.733433509789462]",11.733433509789464,11.733433509789462,0,1,1,0.9831256021224192,1.9831256021224195,1.0168743978775807,3,1,1.7331256021224193,0,4,0,4,0,0,1,1,0,,,,,,,,,,,,,,,,,,,,,200002,007,2023-03-16_16h37.49.948,DMS_BEST_eyetracking_DAN_base_12-36_looped_10minWORKING,2022.2.4,None,
36,PRED,12,0.9831256021224192,1,images/picture_2.png,images/picture_1.png,0,"[-11.733433509789462, 11.733433509789464]",-11.733433509789462,11.733433509789464,images/picture_2.png,1,"[-11.733433509789466, -11.733433509789462]",-11.733433509789464,-11.733433509789462,images/picture_3.png,2,"[11.733433509789464, 11.733433509789462]",11.733433509789464,11.733433509789462,0,1,1,0.9831256021224192,1.9831256021224195,1.0168743978775807,3,1,1.7331256021224193,0,4,0,4,0,0,1,1,0,,,,,,,0.0019897089805454016,269.3590629589744,269.3590629589744,270.3594175420003,271.0925839589909,271.3449477920076,271.3449477920076,271.3449477920076,272.3613559170044,272.3613559170044,272.3613559170044,272.3613559170044,3.99682712496724,273.3592095419881,200002,007,2023-03-16_16h37.49.948,DMS_BEST_eyetracking_DAN_base_12-36_looped_10minWORKING,2022.2.4,None,
43,PRED,12,0.5848830671422413,1,images/picture_2.png,images/picture_1.png,0,"[-11.733433509789466, -11.733433509789462]",-11.733433509789464,-11.733433509789462,images/picture_2.png,1,"[11.733433509789462, -11.733433509789466]",11.733433509789462,-11.733433509789464,images/picture_3.png,2,"[-11.733433509789462, 11.733433509789464]",-11.733433509789462,11.733433509789464,0,1,1,0.5848830671422413,1.5848830671422411,1.4151169328577589,3,1,1.3348830671422411,0,4,0,4,0,0,2,2,7,,,,,,,,,,,,,,,,,,,,,200002,007,2023-03-16_16h37.49.948,DMS_BEST_eyetracking_DAN_base_12-36_looped_10minWORKING,2022.2.4,None,
43,PRED,12,0.5848830671422413,1,images/picture_2.png,images/picture_1.png,0,"[-11.733433509789466, -11.733433509789462]",-11.733433509789464,-11.733433509789462,images/picture_2.png,1,"[11.733433509789462, -11.733433509789466]",11.733433509789462,-11.733433509789464,images/picture_3.png,2,"[-11.733433509789462, 11.733433509789464]",-11.733433509789462,11.733433509789464,0,1,1,0.5848830671422413,1.5848830671422411,1.4151169328577589,3,1,1.3348830671422411,0,4,0,4,0,0,2,2,7,,,,,,,0.001990000018849969,273.3592095419881,273.3592095419881,274.3596502090222,274.6925438750186,274.9451545840129,274.9451545840129,274.9451545840129,276.3590968340286,276.3590968340286,276.3590968340286,276.3590968340286,3.9974164580344222,277.3591108340188,200002,007,2023-03-16_16h37.49.948,DMS_BEST_eyetracking_DAN_base_12-36_looped_10minWORKING,2022.2.4,None,
39,PRED,12,0.7369310844828363,1,images/picture_2.png,images/picture_1.png,0,"[-11.733433509789466, -11.733433509789462]",-11.733433509789464,-11.733433509789462,images/picture_2.png,1,"[11.733433509789462, -11.733433509789466]",11.733433509789462,-11.733433509789464,images/picture_3.png,2,"[11.733433509789464, 11.733433509789462]",11.733433509789464,11.733433509789462,0,1,1,0.7369310844828363,1.7369310844828365,1.2630689155171635,3,1,1.4869310844828365,0,4,0,4,0,0,3,3,3,,,,,,,,,,,,,,,,,,,,,200002,007,2023-03-16_16h37.49.948,DMS_BEST_eyetracking_DAN_base_12-36_looped_10minWORKING,2022.2.4,None,
39,PRED,12,0.7369310844828363,1,images/picture_2.png,images/picture_1.png,0,"[-11.733433509789466, -11.733433509789462]",-11.733433509789464,-11.733433509789462,images/picture_2.png,1,"[11.733433509789462, -11.733433509789466]",11.733433509789462,-11.733433509789464,images/picture_3.png,2,"[11.733433509789464, 11.733433509789462]",11.733433509789464,11.733433509789462,0,1,1,0.7369310844828363,1.7369310844828365,1.2630689155171635,3,1,1.4869310844828365,0,4,0,4,0,0,3,3,3,,,,,,,0.0019018750172108412,277.3591108340188,277.3591108340188,278.3590669169789,278.8591806250042,279.09237091697287,279.09237091697287,279.09237091697287,280.3590973339742,280.3590973339742,280.3590973339742,280.3590973339742,3.9987102079903707,281.3591601669905,200002,007,2023-03-16_16h37.49.948,DMS_BEST_eyetracking_DAN_base_12-36_looped_10minWORKING,2022.2.4,None,
41,PRED,12,1.1539494625327429,1,images/picture_2.png,images/picture_1.png,0,"[11.733433509789462, -11.733433509789466]",11.733433509789462,-11.733433509789464,images/picture_2.png,1,"[-11.733433509789466, -11.733433509789462]",-11.733433509789464,-11.733433509789462,images/picture_3.png,2,"[-11.733433509789462, 11.733433509789464]",-11.733433509789462,11.733433509789464,0,1,1,1.1539494625327429,2.1539494625327427,0.8460505374672571,3,1,1.9039494625327429,0,4,0,4,0,0,4,4,5,,,,,,,,,,,,,,,,,,,,,200002,007,2023-03-16_16h37.49.948,DMS_BEST_eyetracking_DAN_base_12-36_looped_10minWORKING,2022.2.4,None,
41,PRED,12,1.1539494625327429,1,images/picture_2.png,images/picture_1.png,0,"[11.733433509789462, -11.733433509789466]",11.733433509789462,-11.733433509789464,images/picture_2.png,1,"[-11.733433509789466, -11.733433509789462]",-11.733433509789464,-11.733433509789462,images/picture_3.png,2,"[-11.733433509789462, 11.733433509789464]",-11.733433509789462,11.733433509789464,0,1,1,1.1539494625327429,2.1539494625327427,0.8460505374672571,3,1,1.9039494625327429,0,4,0,4,0,0,4,4,5,,,,,,,0.0037408749922178686,281.3591601669905,281.3591601669905,282.35916220897343,283.27833970898064,283.51142766699195,283.51142766699195,283.51142766699195,284.3591737920069,284.3591737920069,284.3591737920069,284.3591737920069,3.9963187079993077,285.359204916982,200002,007,2023-03-16_16h37.49.948,DMS_BEST_eyetracking_DAN_base_12-36_looped_10minWORKING,2022.2.4,None,
40,PRED,12,0.6832250703088033,1,images/picture_2.png,images/picture_1.png,0,"[11.733433509789464, 11.733433509789462]",11.733433509789464,11.733433509789462,images/picture_2.png,1,"[-11.733433509789462, 11.733433509789464]",-11.733433509789462,11.733433509789464,images/picture_3.png,2,"[11.733433509789462, -11.733433509789466]",11.733433509789462,-11.733433509789464,0,1,1,0.6832250703088033,1.6832250703088034,1.3167749296911966,3,1,1.4332250703088034,0,4,0,4,0,0,5,5,4,,,,,,,,,,,,,,,,,,,,,200002,007,2023-03-16_16h37.49.948,DMS_BEST_eyetracking_DAN_base_12-36_looped_10minWORKING,2022.2.4,None,
40,PRED,12,0.6832250703088033,1,images/picture_2.png,images/picture_1.png,0,"[11.733433509789464, 11.733433509789462]",11.733433509789464,11.733433509789462,images/picture_2.png,1,"[-11.733433509789462, 11.733433509789464]",-11.733433509789462,11.733433509789464,images/picture_3.png,2,"[11.733433509789462, -11.733433509789466]",11.733433509789462,-11.733433509789464,0,1,1,0.6832250703088033,1.6832250703088034,1.3167749296911966,3,1,1.4332250703088034,0,4,0,4,0,0,5,5,4,,,,,,,0.0018715410260483623,285.359204916982,285.359204916982,286.3589125840226,286.7924272500095,287.0446347920224,287.0446347920224,287.0446347920224,288.35900920897257,288.35900920897257,288.35900920897257,288.35900920897257,3.9983674160321243,289.35896737501025,200002,007,2023-03-16_16h37.49.948,DMS_BEST_eyetracking_DAN_base_12-36_looped_10minWORKING,2022.2.4,None,
42,PRED,12,1.0370720059977951,1,images/picture_2.png,images/picture_1.png,0,"[-11.733433509789462, 11.733433509789464]",-11.733433509789462,11.733433509789464,images/picture_2.png,1,"[11.733433509789462, -11.733433509789466]",11.733433509789462,-11.733433509789464,images/picture_3.png,2,"[11.733433509789464, 11.733433509789462]",11.733433509789464,11.733433509789462,0,1,1,1.0370720059977951,2.037072005997796,0.9629279940022047,3,1,1.7870720059977954,0,4,0,4,0,0,6,6,6,,,,,,,,,,,,,,,,,,,,,200002,007,2023-03-16_16h37.49.948,DMS_BEST_eyetracking_DAN_base_12-36_looped_10minWORKING,2022.2.4,None,
42,PRED,12,1.0370720059977951,1,images/picture_2.png,images/picture_1.png,0,"[-11.733433509789462, 11.733433509789464]",-11.733433509789462,11.733433509789464,images/picture_2.png,1,"[11.733433509789462, -11.733433509789466]",11.733433509789462,-11.733433509789464,images/picture_3.png,2,"[11.733433509789464, 11.733433509789462]",11.733433509789464,11.733433509789462,0,1,1,1.0370720059977951,2.037072005997796,0.9629279940022047,3,1,1.7870720059977954,0,4,0,4,0,0,6,6,6,,,,,,,0.0019231250043958426,289.35896737501025,289.35896737501025,290.35894854197977,291.159568958974,291.39212816697545,291.39212816697545,291.39212816697545,292.3587705839891,292.3587705839891,292.3587705839891,292.3587705839891,3.9989570830366574,293.3584939999855,200002,007,2023-03-16_16h37.49.948,DMS_BEST_eyetracking_DAN_base_12-36_looped_10minWORKING,2022.2.4,None,
44,PRED,12,1.018896012534292,1,images/picture_2.png,images/picture_1.png,0,"[11.733433509789464, 11.733433509789462]",11.733433509789464,11.733433509789462,images/picture_2.png,1,"[-11.733433509789466, -11.733433509789462]",-11.733433509789464,-11.733433509789462,images/picture_3.png,2,"[11.733433509789462, -11.733433509789466]",11.733433509789462,-11.733433509789464,0,1,1,1.018896012534292,2.018896012534292,0.981103987465708,3,1,1.768896012534292,0,4,0,4,0,0,7,7,8,,,,,,,,,,,,,,,,,,,,,200002,007,2023-03-16_16h37.49.948,DMS_BEST_eyetracking_DAN_base_12-36_looped_10minWORKING,2022.2.4,None,
44,PRED,12,1.018896012534292,1,images/picture_2.png,images/picture_1.png,0,"[11.733433509789464, 11.733433509789462]",11.733433509789464,11.733433509789462,images/picture_2.png,1,"[-11.733433509789466, -11.733433509789462]",-11.733433509789464,-11.733433509789462,images/picture_3.png,2,"[11.733433509789462, -11.733433509789466]",11.733433509789462,-11.733433509789464,0,1,1,1.018896012534292,2.018896012534292,0.981103987465708,3,1,1.768896012534292,0,4,0,4,0,0,7,7,8,,,,,,,0.002043499960564077,293.3584939999855,293.3584939999855,294.3586673340178,295.1257153750048,295.3780852089985,295.3780852089985,295.3780852089985,296.35910279199015,296.35910279199015,296.35910279199015,296.35910279199015,3.9965837089694105,297.35863066697493,200002,007,2023-03-16_16h37.49.948,DMS_BEST_eyetracking_DAN_base_12-36_looped_10minWORKING,2022.2.4,None,
37,PRED,12,0.6317165207784611,1,images/picture_2.png,images/picture_1.png,0,"[11.733433509789462, -11.733433509789466]",11.733433509789462,-11.733433509789464,images/picture_2.png,1,"[-11.733433509789466, -11.733433509789462]",-11.733433509789464,-11.733433509789462,images/picture_3.png,2,"[-11.733433509789462, 11.733433509789464]",-11.733433509789462,11.733433509789464,0,1,1,0.6317165207784611,1.6317165207784612,1.3682834792215388,3,1,1.3817165207784612,0,4,0,4,0,0,8,8,1,,,,,,,,,,,,,,,,,,,,,200002,007,2023-03-16_16h37.49.948,DMS_BEST_eyetracking_DAN_base_12-36_looped_10minWORKING,2022.2.4,None,
37,PRED,12,0.6317165207784611,1,images/picture_2.png,images/picture_1.png,0,"[11.733433509789462, -11.733433509789466]",11.733433509789462,-11.733433509789464,images/picture_2.png,1,"[-11.733433509789466, -11.733433509789462]",-11.733433509789464,-11.733433509789462,images/picture_3.png,2,"[-11.733433509789462, 11.733433509789464]",-11.733433509789462,11.733433509789464,0,1,1,0.6317165207784611,1.6317165207784612,1.3682834792215388,3,1,1.3817165207784612,0,4,0,4,0,0,8,8,1,,,,,,,0.0020239170407876372,297.35863066697493,297.35863066697493,298.3587019999977,298.74473733402556,298.99203229200793,298.99203229200793,298.99203229200793,300.35890445898985,300.35890445898985,300.35890445898985,300.35890445898985,3.996953417023178,301.4032555000158,200002,007,2023-03-16_16h37.49.948,DMS_BEST_eyetracking_DAN_base_12-36_looped_10minWORKING,2022.2.4,None,
,,,,,,,,,,,,,,,,,,,,,,,,,,,,,,,4,0,4,0,,,,,,,,,301.4032555000158,313.4127216669731,,,,,,,,,,,,,,,200002,007,2023-03-16_16h37.49.948,DMS_BEST_eyetracking_DAN_base_12-36_looped_10minWORKING,2022.2.4,None,
49,UNPRED,12,0.7361662659263397,2,images/picture_3.png,images/picture_1.png,0,"[-11.733433509789462, 11.733433509789464]",-11.733433509789462,11.733433509789464,images/picture_2.png,1,"[11.733433509789464, 11.733433509789462]",11.733433509789464,11.733433509789462,images/picture_3.png,2,"[-11.733433509789466, -11.733433509789462]",-11.733433509789464,-11.733433509789462,0,1,1,0.7361662659263397,1.7361662659263395,1.2638337340736605,3,1,1.4861662659263395,0,5,0,5,0,0,0,0,4,,,,,,,,,,,,,,,,,,,,,200002,007,2023-03-16_16h37.49.948,DMS_BEST_eyetracking_DAN_base_12-36_looped_10minWORKING,2022.2.4,None,
49,UNPRED,12,0.7361662659263397,2,images/picture_3.png,images/picture_1.png,0,"[-11.733433509789462, 11.733433509789464]",-11.733433509789462,11.733433509789464,images/picture_2.png,1,"[11.733433509789464, 11.733433509789462]",11.733433509789464,11.733433509789462,images/picture_3.png,2,"[-11.733433509789466, -11.733433509789462]",-11.733433509789464,-11.733433509789462,0,1,1,0.7361662659263397,1.7361662659263395,1.2638337340736605,3,1,1.4861662659263395,0,5,0,5,0,0,0,0,4,,,,,,,0.001685708004515618,313.4127216669731,313.4127216669731,314.4252661669743,314.910747041984,315.1439417920192,315.1439417920192,315.1439417920192,316.41073825000785,316.41073825000785,316.41073825000785,316.41073825000785,4.006752499961294,317.42504837497836,200002,007,2023-03-16_16h37.49.948,DMS_BEST_eyetracking_DAN_base_12-36_looped_10minWORKING,2022.2.4,None,
51,UNPRED,12,1.1284190958414255,2,images/picture_3.png,images/picture_1.png,0,"[11.733433509789462, -11.733433509789466]",11.733433509789462,-11.733433509789464,images/picture_2.png,1,"[11.733433509789464, 11.733433509789462]",11.733433509789464,11.733433509789462,images/picture_3.png,2,"[-11.733433509789466, -11.733433509789462]",-11.733433509789464,-11.733433509789462,0,1,1,1.1284190958414255,2.128419095841425,0.8715809041585743,3,1,1.8784190958414253,0,5,0,5,0,0,1,1,6,,,,,,,,,,,,,,,,,,,,,200002,007,2023-03-16_16h37.49.948,DMS_BEST_eyetracking_DAN_base_12-36_looped_10minWORKING,2022.2.4,None,
51,UNPRED,12,1.1284190958414255,2,images/picture_3.png,images/picture_1.png,0,"[11.733433509789462, -11.733433509789466]",11.733433509789462,-11.733433509789464,images/picture_2.png,1,"[11.733433509789464, 11.733433509789462]",11.733433509789464,11.733433509789462,images/picture_3.png,2,"[-11.733433509789466, -11.733433509789462]",-11.733433509789464,-11.733433509789462,0,1,1,1.1284190958414255,2.128419095841425,0.8715809041585743,3,1,1.8784190958414253,0,5,0,5,0,0,1,1,6,,,,,,,0.0014129169867374003,317.42504837497836,317.42504837497836,318.4249422500143,319.31081929197535,319.5438469169894,319.5438469169894,319.5438469169894,320.42490300000645,320.42490300000645,320.42490300000645,320.42490300000645,3.9981163750053383,321.4247964170063,200002,007,2023-03-16_16h37.49.948,DMS_BEST_eyetracking_DAN_base_12-36_looped_10minWORKING,2022.2.4,None,
45,UNPRED,12,0.9862853327504328,2,images/picture_3.png,images/picture_1.png,0,"[-11.733433509789466, -11.733433509789462]",-11.733433509789464,-11.733433509789462,images/picture_2.png,1,"[11.733433509789464, 11.733433509789462]",11.733433509789464,11.733433509789462,images/picture_3.png,2,"[-11.733433509789462, 11.733433509789464]",-11.733433509789462,11.733433509789464,0,1,1,0.9862853327504328,1.9862853327504328,1.0137146672495672,3,1,1.7362853327504328,0,5,0,5,0,0,2,2,0,,,,,,,,,,,,,,,,,,,,,200002,007,2023-03-16_16h37.49.948,DMS_BEST_eyetracking_DAN_base_12-36_looped_10minWORKING,2022.2.4,None,
45,UNPRED,12,0.9862853327504328,2,images/picture_3.png,images/picture_1.png,0,"[-11.733433509789466, -11.733433509789462]",-11.733433509789464,-11.733433509789462,images/picture_2.png,1,"[11.733433509789464, 11.733433509789462]",11.733433509789464,11.733433509789462,images/picture_3.png,2,"[-11.733433509789462, 11.733433509789464]",-11.733433509789462,11.733433509789464,0,1,1,0.9862853327504328,1.9862853327504328,1.0137146672495672,3,1,1.7362853327504328,0,5,0,5,0,0,2,2,0,,,,,,,0.0014243750483728945,321.4247964170063,321.4247964170063,322.4251246249769,323.15827645902755,323.4127444589976,323.4127444589976,323.4127444589976,324.4248336669989,324.4248336669989,324.4248336669989,324.4248336669989,3.997509542037733,325.4245007500285,200002,007,2023-03-16_16h37.49.948,DMS_BEST_eyetracking_DAN_base_12-36_looped_10minWORKING,2022.2.4,None,
48,UNPRED,12,0.8460750604916994,0,images/picture_1.png,images/picture_1.png,0,"[11.733433509789464, 11.733433509789462]",11.733433509789464,11.733433509789462,images/picture_2.png,1,"[-11.733433509789466, -11.733433509789462]",-11.733433509789464,-11.733433509789462,images/picture_3.png,2,"[11.733433509789462, -11.733433509789466]",11.733433509789462,-11.733433509789464,0,1,1,0.8460750604916994,1.8460750604917,1.1539249395083004,3,1,1.5960750604916996,0,5,0,5,0,0,3,3,3,,,,,,,,,,,,,,,,,,,,,200002,007,2023-03-16_16h37.49.948,DMS_BEST_eyetracking_DAN_base_12-36_looped_10minWORKING,2022.2.4,None,
48,UNPRED,12,0.8460750604916994,0,images/picture_1.png,images/picture_1.png,0,"[11.733433509789464, 11.733433509789462]",11.733433509789464,11.733433509789462,images/picture_2.png,1,"[-11.733433509789466, -11.733433509789462]",-11.733433509789464,-11.733433509789462,images/picture_3.png,2,"[11.733433509789462, -11.733433509789466]",11.733433509789462,-11.733433509789464,0,1,1,0.8460750604916994,1.8460750604917,1.1539249395083004,3,1,1.5960750604916996,0,5,0,5,0,0,3,3,3,,,,,,,0.0029046249692328274,325.4245007500285,325.4245007500285,326.4248759999755,327.0248355839867,327.2581728749792,327.2581728749792,327.2581728749792,328.4250362919993,328.4250362919993,328.4250362919993,328.4250362919993,3.998050374968443,329.42514750000555,200002,007,2023-03-16_16h37.49.948,DMS_BEST_eyetracking_DAN_base_12-36_looped_10minWORKING,2022.2.4,None,
50,UNPRED,12,1.0977417437931645,2,images/picture_3.png,images/picture_1.png,0,"[-11.733433509789466, -11.733433509789462]",-11.733433509789464,-11.733433509789462,images/picture_2.png,1,"[11.733433509789462, -11.733433509789466]",11.733433509789462,-11.733433509789464,images/picture_3.png,2,"[-11.733433509789462, 11.733433509789464]",-11.733433509789462,11.733433509789464,0,1,1,1.0977417437931645,2.0977417437931645,0.9022582562068356,3,1,1.8477417437931645,0,5,0,5,0,0,4,4,5,,,,,,,,,,,,,,,,,,,,,200002,007,2023-03-16_16h37.49.948,DMS_BEST_eyetracking_DAN_base_12-36_looped_10minWORKING,2022.2.4,None,
50,UNPRED,12,1.0977417437931645,2,images/picture_3.png,images/picture_1.png,0,"[-11.733433509789466, -11.733433509789462]",-11.733433509789464,-11.733433509789462,images/picture_2.png,1,"[11.733433509789462, -11.733433509789466]",11.733433509789462,-11.733433509789464,images/picture_3.png,2,"[-11.733433509789462, 11.733433509789464]",-11.733433509789462,11.733433509789464,0,1,1,1.0977417437931645,2.0977417437931645,0.9022582562068356,3,1,1.8477417437931645,0,5,0,5,0,0,4,4,5,,,,,,,0.0018262499943375587,329.42514750000555,329.42514750000555,330.4247970000142,331.2771096249926,331.5254179590265,331.5254179590265,331.5254179590265,332.4252068339847,332.4252068339847,332.4252068339847,332.4252068339847,3.998231792007573,333.4244793750113,200002,007,2023-03-16_16h37.49.948,DMS_BEST_eyetracking_DAN_base_12-36_looped_10minWORKING,2022.2.4,None,
47,UNPRED,12,0.7583334612065141,1,images/picture_2.png,images/picture_1.png,0,"[11.733433509789464, 11.733433509789462]",11.733433509789464,11.733433509789462,images/picture_2.png,1,"[11.733433509789462, -11.733433509789466]",11.733433509789462,-11.733433509789464,images/picture_3.png,2,"[-11.733433509789462, 11.733433509789464]",-11.733433509789462,11.733433509789464,0,1,1,0.7583334612065141,1.7583334612065142,1.241666538793486,3,1,1.5083334612065142,0,5,0,5,0,0,5,5,2,,,,,,,,,,,,,,,,,,,,,200002,007,2023-03-16_16h37.49.948,DMS_BEST_eyetracking_DAN_base_12-36_looped_10minWORKING,2022.2.4,None,
47,UNPRED,12,0.7583334612065141,1,images/picture_2.png,images/picture_1.png,0,"[11.733433509789464, 11.733433509789462]",11.733433509789464,11.733433509789462,images/picture_2.png,1,"[11.733433509789462, -11.733433509789466]",11.733433509789462,-11.733433509789464,images/picture_3.png,2,"[-11.733433509789462, 11.733433509789464]",-11.733433509789462,11.733433509789464,0,1,1,0.7583334612065141,1.7583334612065142,1.241666538793486,3,1,1.5083334612065142,0,5,0,5,0,0,5,5,2,,,,,,,0.003171459014993161,333.4244793750113,333.4244793750113,334.4249396250234,334.94351470901165,335.17746849998366,335.17746849998366,335.17746849998366,336.4246832919889,336.4246832919889,336.4246832919889,336.4246832919889,3.9976656250073574,337.42434570897603,200002,007,2023-03-16_16h37.49.948,DMS_BEST_eyetracking_DAN_base_12-36_looped_10minWORKING,2022.2.4,None,
53,UNPRED,12,0.7061449738774278,2,images/picture_3.png,images/picture_1.png,0,"[11.733433509789464, 11.733433509789462]",11.733433509789464,11.733433509789462,images/picture_2.png,1,"[-11.733433509789462, 11.733433509789464]",-11.733433509789462,11.733433509789464,images/picture_3.png,2,"[-11.733433509789466, -11.733433509789462]",-11.733433509789464,-11.733433509789462,0,1,1,0.7061449738774278,1.7061449738774277,1.2938550261225723,3,1,1.4561449738774277,0,5,0,5,0,0,6,6,8,,,,,,,,,,,,,,,,,,,,,200002,007,2023-03-16_16h37.49.948,DMS_BEST_eyetracking_DAN_base_12-36_looped_10minWORKING,2022.2.4,None,
53,UNPRED,12,0.7061449738774278,2,images/picture_3.png,images/picture_1.png,0,"[11.733433509789464, 11.733433509789462]",11.733433509789464,11.733433509789462,images/picture_2.png,1,"[-11.733433509789462, 11.733433509789464]",-11.733433509789462,11.733433509789464,images/picture_3.png,2,"[-11.733433509789466, -11.733433509789462]",-11.733433509789464,-11.733433509789462,0,1,1,0.7061449738774278,1.7061449738774277,1.2938550261225723,3,1,1.4561449738774277,0,5,0,5,0,0,6,6,8,,,,,,,0.0014752079732716084,337.42434570897603,337.42434570897603,338.4247527500265,338.89196541701676,339.1247203749954,339.1247203749954,339.1247203749954,340.4246457500267,340.4246457500267,340.4246457500267,340.4246457500267,3.9978869169717655,341.42663020902546,200002,007,2023-03-16_16h37.49.948,DMS_BEST_eyetracking_DAN_base_12-36_looped_10minWORKING,2022.2.4,None,
46,UNPRED,12,0.6315931581059455,1,images/picture_2.png,images/picture_1.png,0,"[-11.733433509789466, -11.733433509789462]",-11.733433509789464,-11.733433509789462,images/picture_2.png,1,"[-11.733433509789462, 11.733433509789464]",-11.733433509789462,11.733433509789464,images/picture_3.png,2,"[11.733433509789464, 11.733433509789462]",11.733433509789464,11.733433509789462,0,1,1,0.6315931581059455,1.6315931581059455,1.3684068418940545,3,1,1.3815931581059455,0,5,0,5,0,0,7,7,1,,,,,,,,,,,,,,,,,,,,,200002,007,2023-03-16_16h37.49.948,DMS_BEST_eyetracking_DAN_base_12-36_looped_10minWORKING,2022.2.4,None,
46,UNPRED,12,0.6315931581059455,1,images/picture_2.png,images/picture_1.png,0,"[-11.733433509789466, -11.733433509789462]",-11.733433509789464,-11.733433509789462,images/picture_2.png,1,"[-11.733433509789462, 11.733433509789464]",-11.733433509789462,11.733433509789464,images/picture_3.png,2,"[11.733433509789464, 11.733433509789462]",11.733433509789464,11.733433509789462,0,1,1,0.6315931581059455,1.6315931581059455,1.3684068418940545,3,1,1.3815931581059455,0,5,0,5,0,0,7,7,1,,,,,,,0.0032292919931933284,341.42663020902546,341.42663020902546,342.4245586670004,342.81027249997715,343.05783112498466,343.05783112498466,343.05783112498466,344.4245998340193,344.4245998340193,344.4245998340193,344.4245998340193,3.996996166999452,345.4243042920134,200002,007,2023-03-16_16h37.49.948,DMS_BEST_eyetracking_DAN_base_12-36_looped_10minWORKING,2022.2.4,None,
52,UNPRED,12,1.0796543342533051,0,images/picture_1.png,images/picture_1.png,0,"[11.733433509789462, -11.733433509789466]",11.733433509789462,-11.733433509789464,images/picture_2.png,1,"[11.733433509789464, 11.733433509789462]",11.733433509789464,11.733433509789462,images/picture_3.png,2,"[-11.733433509789462, 11.733433509789464]",-11.733433509789462,11.733433509789464,0,1,1,1.0796543342533051,2.0796543342533047,0.9203456657466952,3,1,1.8296543342533047,0,5,0,5,0,0,8,8,7,,,,,,,,,,,,,,,,,,,,,200002,007,2023-03-16_16h37.49.948,DMS_BEST_eyetracking_DAN_base_12-36_looped_10minWORKING,2022.2.4,None,
52,UNPRED,12,1.0796543342533051,0,images/picture_1.png,images/picture_1.png,0,"[11.733433509789462, -11.733433509789466]",11.733433509789462,-11.733433509789464,images/picture_2.png,1,"[11.733433509789464, 11.733433509789462]",11.733433509789464,11.733433509789462,images/picture_3.png,2,"[-11.733433509789462, 11.733433509789464]",-11.733433509789462,11.733433509789464,0,1,1,1.0796543342533051,2.0796543342533047,0.9203456657466952,3,1,1.8296543342533047,0,5,0,5,0,0,8,8,7,,,,,,,0.0030088339699432254,345.4243042920134,345.4243042920134,346.42446404200746,347.2577508339891,347.4913361669751,347.4913361669751,347.4913361669751,348.42465216701385,348.42465216701385,348.42465216701385,348.42465216701385,3.9976131249568425,349.4794348750147,200002,007,2023-03-16_16h37.49.948,DMS_BEST_eyetracking_DAN_base_12-36_looped_10minWORKING,2022.2.4,None,
,,,,,,,,,,,,,,,,,,,,,,,,,,,,,,,5,0,5,0,,,,,,,,,349.4794348750147,361.51110066700494,,,,,,,,,,,,,,,200002,007,2023-03-16_16h37.49.948,DMS_BEST_eyetracking_DAN_base_12-36_looped_10minWORKING,2022.2.4,None,
57,PRED,12,0.8236730482326151,2,images/picture_3.png,images/picture_1.png,0,"[-11.733433509789462, 11.733433509789464]",-11.733433509789462,11.733433509789464,images/picture_2.png,1,"[11.733433509789462, -11.733433509789466]",11.733433509789462,-11.733433509789464,images/picture_3.png,2,"[-11.733433509789466, -11.733433509789462]",-11.733433509789464,-11.733433509789462,0,1,1,0.8236730482326151,1.8236730482326151,1.1763269517673849,3,1,1.5736730482326151,0,6,0,6,0,0,0,0,3,,,,,,,,,,,,,,,,,,,,,200002,007,2023-03-16_16h37.49.948,DMS_BEST_eyetracking_DAN_base_12-36_looped_10minWORKING,2022.2.4,None,
57,PRED,12,0.8236730482326151,2,images/picture_3.png,images/picture_1.png,0,"[-11.733433509789462, 11.733433509789464]",-11.733433509789462,11.733433509789464,images/picture_2.png,1,"[11.733433509789462, -11.733433509789466]",11.733433509789462,-11.733433509789464,images/picture_3.png,2,"[-11.733433509789466, -11.733433509789462]",-11.733433509789464,-11.733433509789462,0,1,1,0.8236730482326151,1.8236730482326151,1.1763269517673849,3,1,1.5736730482326151,0,6,0,6,0,0,0,0,3,,,,,,,0.0020458329818211496,361.51110066700494,361.51110066700494,362.52404195902636,363.09074354200857,363.32407154201064,363.32407154201064,363.32407154201064,364.5099480000208,364.5099480000208,364.5099480000208,364.4909871669952,4.024322082987055,365.4911499170121,200002,007,2023-03-16_16h37.49.948,DMS_BEST_eyetracking_DAN_base_12-36_looped_10minWORKING,2022.2.4,None,
56,PRED,12,0.708542654862763,2,images/picture_3.png,images/picture_1.png,0,"[-11.733433509789466, -11.733433509789462]",-11.733433509789464,-11.733433509789462,images/picture_2.png,1,"[-11.733433509789462, 11.733433509789464]",-11.733433509789462,11.733433509789464,images/picture_3.png,2,"[11.733433509789462, -11.733433509789466]",11.733433509789462,-11.733433509789464,0,1,1,0.708542654862763,1.7085426548627631,1.2914573451372369,3,1,1.4585426548627631,0,6,0,6,0,0,1,1,2,,,,,,,,,,,,,,,,,,,,,200002,007,2023-03-16_16h37.49.948,DMS_BEST_eyetracking_DAN_base_12-36_looped_10minWORKING,2022.2.4,None,
56,PRED,12,0.708542654862763,2,images/picture_3.png,images/picture_1.png,0,"[-11.733433509789466, -11.733433509789462]",-11.733433509789464,-11.733433509789462,images/picture_2.png,1,"[-11.733433509789462, 11.733433509789464]",-11.733433509789462,11.733433509789464,images/picture_3.png,2,"[11.733433509789462, -11.733433509789466]",11.733433509789462,-11.733433509789464,0,1,1,0.708542654862763,1.7085426548627631,1.2914573451372369,3,1,1.4585426548627631,0,6,0,6,0,0,1,1,2,,,,,,,0.0014683330082334578,365.52403879200574,365.52403879200574,366.5244565840112,366.99100887501845,367.2242854590295,367.2242854590295,367.2242854590295,368.5241915420047,368.5241915420047,368.5241915420047,368.5241915420047,3.996538750012405,369.52429179201135,200002,007,2023-03-16_16h37.49.948,DMS_BEST_eyetracking_DAN_base_12-36_looped_10minWORKING,2022.2.4,None,
60,PRED,12,0.5611804676441655,2,images/picture_3.png,images/picture_1.png,0,"[-11.733433509789462, 11.733433509789464]",-11.733433509789462,11.733433509789464,images/picture_2.png,1,"[11.733433509789462, -11.733433509789466]",11.733433509789462,-11.733433509789464,images/picture_3.png,2,"[11.733433509789464, 11.733433509789462]",11.733433509789464,11.733433509789462,0,1,1,0.5611804676441655,1.5611804676441654,1.4388195323558346,3,1,1.3111804676441654,0,6,0,6,0,0,2,2,6,,,,,,,,,,,,,,,,,,,,,200002,007,2023-03-16_16h37.49.948,DMS_BEST_eyetracking_DAN_base_12-36_looped_10minWORKING,2022.2.4,None,
60,PRED,12,0.5611804676441655,2,images/picture_3.png,images/picture_1.png,0,"[-11.733433509789462, 11.733433509789464]",-11.733433509789462,11.733433509789464,images/picture_2.png,1,"[11.733433509789462, -11.733433509789466]",11.733433509789462,-11.733433509789464,images/picture_3.png,2,"[11.733433509789464, 11.733433509789462]",11.733433509789464,11.733433509789462,0,1,1,0.5611804676441655,1.5611804676441654,1.4388195323558346,3,1,1.3111804676441654,0,6,0,6,0,0,2,2,6,,,,,,,0.0013850419782102108,369.52429179201135,369.52429179201135,370.5240491250297,370.84431529202266,371.0759123750031,371.0759123750031,371.0759123750031,372.5240157499793,372.5240157499793,372.5240157499793,372.5240157499793,3.9979479169705883,373.52388333401177,200002,007,2023-03-16_16h37.49.948,DMS_BEST_eyetracking_DAN_base_12-36_looped_10minWORKING,2022.2.4,None,
61,PRED,12,0.5913191739233227,2,images/picture_3.png,images/picture_1.png,0,"[-11.733433509789466, -11.733433509789462]",-11.733433509789464,-11.733433509789462,images/picture_2.png,1,"[-11.733433509789462, 11.733433509789464]",-11.733433509789462,11.733433509789464,images/picture_3.png,2,"[11.733433509789464, 11.733433509789462]",11.733433509789464,11.733433509789462,0,1,1,0.5913191739233227,1.5913191739233228,1.4086808260766772,3,1,1.3413191739233228,0,6,0,6,0,0,3,3,7,,,,,,,,,,,,,,,,,,,,,200002,007,2023-03-16_16h37.49.948,DMS_BEST_eyetracking_DAN_base_12-36_looped_10minWORKING,2022.2.4,None,
61,PRED,12,0.5913191739233227,2,images/picture_3.png,images/picture_1.png,0,"[-11.733433509789466, -11.733433509789462]",-11.733433509789464,-11.733433509789462,images/picture_2.png,1,"[-11.733433509789462, 11.733433509789464]",-11.733433509789462,11.733433509789464,images/picture_3.png,2,"[11.733433509789464, 11.733433509789462]",11.733433509789464,11.733433509789462,0,1,1,0.5913191739233227,1.5913191739233228,1.4086808260766772,3,1,1.3413191739233228,0,6,0,6,0,0,3,3,7,,,,,,,0.0015355410287156701,373.52388333401177,373.52388333401177,374.5238263339852,374.87623858399456,375.109953999985,375.109953999985,375.109953999985,376.5238901670091,376.5238901670091,376.5238901670091,376.5238901670091,3.9982717080274597,377.52377545897616,200002,007,2023-03-16_16h37.49.948,DMS_BEST_eyetracking_DAN_base_12-36_looped_10minWORKING,2022.2.4,None,
58,PRED,12,0.6455394949549521,2,images/picture_3.png,images/picture_1.png,0,"[-11.733433509789462, 11.733433509789464]",-11.733433509789462,11.733433509789464,images/picture_2.png,1,"[11.733433509789462, -11.733433509789466]",11.733433509789462,-11.733433509789464,images/picture_3.png,2,"[-11.733433509789466, -11.733433509789462]",-11.733433509789464,-11.733433509789462,0,1,1,0.6455394949549521,1.645539494954952,1.354460505045048,3,1,1.395539494954952,0,6,0,6,0,0,4,4,4,,,,,,,,,,,,,,,,,,,,,200002,007,2023-03-16_16h37.49.948,DMS_BEST_eyetracking_DAN_base_12-36_looped_10minWORKING,2022.2.4,None,
58,PRED,12,0.6455394949549521,2,images/picture_3.png,images/picture_1.png,0,"[-11.733433509789462, 11.733433509789464]",-11.733433509789462,11.733433509789464,images/picture_2.png,1,"[11.733433509789462, -11.733433509789466]",11.733433509789462,-11.733433509789464,images/picture_3.png,2,"[-11.733433509789466, -11.733433509789462]",-11.733433509789464,-11.733433509789462,0,1,1,0.6455394949549521,1.645539494954952,1.354460505045048,3,1,1.395539494954952,0,6,0,6,0,0,4,4,4,,,,,,,0.0013249170151539147,377.52377545897616,377.52377545897616,378.5238135000109,378.9238213340286,379.1573989589815,379.1573989589815,379.1573989589815,380.52388158399845,380.52388158399845,380.52388158399845,380.52388158399845,3.998464958043769,381.52350045897765,200002,007,2023-03-16_16h37.49.948,DMS_BEST_eyetracking_DAN_base_12-36_looped_10minWORKING,2022.2.4,None,
54,PRED,12,0.5467484298393085,2,images/picture_3.png,images/picture_1.png,0,"[-11.733433509789466, -11.733433509789462]",-11.733433509789464,-11.733433509789462,images/picture_2.png,1,"[-11.733433509789462, 11.733433509789464]",-11.733433509789462,11.733433509789464,images/picture_3.png,2,"[11.733433509789462, -11.733433509789466]",11.733433509789462,-11.733433509789464,0,1,1,0.5467484298393085,1.5467484298393086,1.4532515701606914,3,1,1.2967484298393086,0,6,0,6,0,0,5,5,0,,,,,,,,,,,,,,,,,,,,,200002,007,2023-03-16_16h37.49.948,DMS_BEST_eyetracking_DAN_base_12-36_looped_10minWORKING,2022.2.4,None,
54,PRED,12,0.5467484298393085,2,images/picture_3.png,images/picture_1.png,0,"[-11.733433509789466, -11.733433509789462]",-11.733433509789464,-11.733433509789462,images/picture_2.png,1,"[-11.733433509789462, 11.733433509789464]",-11.733433509789462,11.733433509789464,images/picture_3.png,2,"[11.733433509789462, -11.733433509789466]",11.733433509789462,-11.733433509789464,0,1,1,0.5467484298393085,1.5467484298393086,1.4532515701606914,3,1,1.2967484298393086,0,6,0,6,0,0,5,5,0,,,,,,,0.0015957499854266644,381.52350045897765,381.52350045897765,382.5237655839883,382.8237498750095,383.0570468750084,383.0570468750084,383.0570468750084,384.523662874999,384.523662874999,384.523662874999,384.523662874999,3.9968541670241393,385.52354037499754,200002,007,2023-03-16_16h37.49.948,DMS_BEST_eyetracking_DAN_base_12-36_looped_10minWORKING,2022.2.4,None,
59,PRED,12,0.809194076884124,2,images/picture_3.png,images/picture_1.png,0,"[11.733433509789464, 11.733433509789462]",11.733433509789464,11.733433509789462,images/picture_2.png,1,"[-11.733433509789462, 11.733433509789464]",-11.733433509789462,11.733433509789464,images/picture_3.png,2,"[11.733433509789462, -11.733433509789466]",11.733433509789462,-11.733433509789464,0,1,1,0.809194076884124,1.809194076884124,1.190805923115876,3,1,1.559194076884124,0,6,0,6,0,0,6,6,5,,,,,,,,,,,,,,,,,,,,,200002,007,2023-03-16_16h37.49.948,DMS_BEST_eyetracking_DAN_base_12-36_looped_10minWORKING,2022.2.4,None,
59,PRED,12,0.809194076884124,2,images/picture_3.png,images/picture_1.png,0,"[11.733433509789464, 11.733433509789462]",11.733433509789464,11.733433509789462,images/picture_2.png,1,"[-11.733433509789462, 11.733433509789464]",-11.733433509789462,11.733433509789464,images/picture_3.png,2,"[11.733433509789462, -11.733433509789466]",11.733433509789462,-11.733433509789464,0,1,1,0.809194076884124,1.809194076884124,1.190805923115876,3,1,1.559194076884124,0,6,0,6,0,0,6,6,5,,,,,,,0.0015241249930113554,385.52354037499754,385.52354037499754,386.5237823749776,387.09031883400166,387.3236075420282,387.3236075420282,387.3236075420282,388.5235301670036,388.5235301670036,388.5235301670036,388.5235301670036,3.9984379580128007,389.5248362920247,200002,007,2023-03-16_16h37.49.948,DMS_BEST_eyetracking_DAN_base_12-36_looped_10minWORKING,2022.2.4,None,
62,PRED,12,0.5604642074911754,2,images/picture_3.png,images/picture_1.png,0,"[11.733433509789464, 11.733433509789462]",11.733433509789464,11.733433509789462,images/picture_2.png,1,"[11.733433509789462, -11.733433509789466]",11.733433509789462,-11.733433509789464,images/picture_3.png,2,"[-11.733433509789466, -11.733433509789462]",-11.733433509789464,-11.733433509789462,0,1,1,0.5604642074911754,1.5604642074911754,1.4395357925088246,3,1,1.3104642074911754,0,6,0,6,0,0,7,7,8,,,,,,,,,,,,,,,,,,,,,200002,007,2023-03-16_16h37.49.948,DMS_BEST_eyetracking_DAN_base_12-36_looped_10minWORKING,2022.2.4,None,
62,PRED,12,0.5604642074911754,2,images/picture_3.png,images/picture_1.png,0,"[11.733433509789464, 11.733433509789462]",11.733433509789464,11.733433509789462,images/picture_2.png,1,"[11.733433509789462, -11.733433509789466]",11.733433509789462,-11.733433509789464,images/picture_3.png,2,"[-11.733433509789466, -11.733433509789462]",-11.733433509789464,-11.733433509789462,0,1,1,0.5604642074911754,1.5604642074911754,1.4395357925088246,3,1,1.3104642074911754,0,6,0,6,0,0,7,7,8,,,,,,,0.001333832973614335,389.5248362920247,389.5248362920247,390.5237507499987,390.8430726249935,391.0761382090277,391.0761382090277,391.0761382090277,392.5235363750253,392.5235363750253,392.5235363750253,392.5235363750253,3.998365624982398,393.5241743749939,200002,007,2023-03-16_16h37.49.948,DMS_BEST_eyetracking_DAN_base_12-36_looped_10minWORKING,2022.2.4,None,
55,PRED,12,0.7221132842256989,2,images/picture_3.png,images/picture_1.png,0,"[11.733433509789462, -11.733433509789466]",11.733433509789462,-11.733433509789464,images/picture_2.png,1,"[11.733433509789464, 11.733433509789462]",11.733433509789464,11.733433509789462,images/picture_3.png,2,"[-11.733433509789466, -11.733433509789462]",-11.733433509789464,-11.733433509789462,0,1,1,0.7221132842256989,1.7221132842256988,1.2778867157743012,3,1,1.4721132842256988,0,6,0,6,0,0,8,8,1,,,,,,,,,,,,,,,,,,,,,200002,007,2023-03-16_16h37.49.948,DMS_BEST_eyetracking_DAN_base_12-36_looped_10minWORKING,2022.2.4,None,
55,PRED,12,0.7221132842256989,2,images/picture_3.png,images/picture_1.png,0,"[11.733433509789462, -11.733433509789466]",11.733433509789462,-11.733433509789464,images/picture_2.png,1,"[11.733433509789464, 11.733433509789462]",11.733433509789464,11.733433509789462,images/picture_3.png,2,"[-11.733433509789466, -11.733433509789462]",-11.733433509789464,-11.733433509789462,0,1,1,0.7221132842256989,1.7221132842256988,1.2778867157743012,3,1,1.4721132842256988,0,6,0,6,0,0,8,8,1,,,,,,,0.001506166998296976,393.5241743749939,393.5241743749939,394.52352270897245,395.00976816698676,395.2423837920069,395.2423837920069,395.2423837920069,396.5237901249784,396.5237901249784,396.5237901249784,396.5237901249784,3.9975797919905744,397.58479441702366,200002,007,2023-03-16_16h37.49.948,DMS_BEST_eyetracking_DAN_base_12-36_looped_10minWORKING,2022.2.4,None,
,,,,,,,,,,,,,,,,,,,,,,,,,,,,,,,6,0,6,0,,,,,,,,,397.58479441702366,409.6094283339917,,,,,,,,,,,,,,,200002,007,2023-03-16_16h37.49.948,DMS_BEST_eyetracking_DAN_base_12-36_looped_10minWORKING,2022.2.4,None,
69,UNPRED,12,1.0503143899989356,1,images/picture_2.png,images/picture_1.png,0,"[-11.733433509789462, 11.733433509789464]",-11.733433509789462,11.733433509789464,images/picture_2.png,1,"[11.733433509789462, -11.733433509789466]",11.733433509789462,-11.733433509789464,images/picture_3.png,2,"[-11.733433509789466, -11.733433509789462]",-11.733433509789464,-11.733433509789462,0,1,1,1.0503143899989356,2.050314389998936,0.9496856100010644,3,1,1.8003143899989356,0,7,0,7,0,0,0,0,6,,,,,,,,,,,,,,,,,,,,,200002,007,2023-03-16_16h37.49.948,DMS_BEST_eyetracking_DAN_base_12-36_looped_10minWORKING,2022.2.4,None,
69,UNPRED,12,1.0503143899989356,1,images/picture_2.png,images/picture_1.png,0,"[-11.733433509789462, 11.733433509789464]",-11.733433509789462,11.733433509789464,images/picture_2.png,1,"[11.733433509789462, -11.733433509789466]",11.733433509789462,-11.733433509789464,images/picture_3.png,2,"[-11.733433509789466, -11.733433509789462]",-11.733433509789464,-11.733433509789462,0,1,1,1.0503143899989356,2.050314389998936,0.9496856100010644,3,1,1.8003143899989356,0,7,0,7,0,0,0,0,6,,,,,,,0.0024806250003166497,409.6094283339917,409.6094283339917,410.62349562498275,411.42331166699296,411.64244520902866,411.64244520902866,411.64244520902866,412.5898742090212,412.5898742090212,412.5898742090212,412.5898742090212,4.022983999981079,413.5898856249987,200002,007,2023-03-16_16h37.49.948,DMS_BEST_eyetracking_DAN_base_12-36_looped_10minWORKING,2022.2.4,None,
70,UNPRED,12,0.9002059208643198,2,images/picture_3.png,images/picture_1.png,0,"[11.733433509789464, 11.733433509789462]",11.733433509789464,11.733433509789462,images/picture_2.png,1,"[-11.733433509789466, -11.733433509789462]",-11.733433509789464,-11.733433509789462,images/picture_3.png,2,"[11.733433509789462, -11.733433509789466]",11.733433509789462,-11.733433509789464,0,1,1,0.9002059208643198,1.90020592086432,1.0997940791356802,3,1,1.6502059208643198,0,7,0,7,0,0,1,1,7,,,,,,,,,,,,,,,,,,,,,200002,007,2023-03-16_16h37.49.948,DMS_BEST_eyetracking_DAN_base_12-36_looped_10minWORKING,2022.2.4,None,
70,UNPRED,12,0.9002059208643198,2,images/picture_3.png,images/picture_1.png,0,"[11.733433509789464, 11.733433509789462]",11.733433509789464,11.733433509789462,images/picture_2.png,1,"[-11.733433509789466, -11.733433509789462]",-11.733433509789464,-11.733433509789462,images/picture_3.png,2,"[11.733433509789462, -11.733433509789466]",11.733433509789462,-11.733433509789464,0,1,1,0.9002059208643198,1.90020592086432,1.0997940791356802,3,1,1.6502059208643198,0,7,0,7,0,0,1,1,7,,,,,,,0.002318084007129073,413.6230507090222,413.6230507090222,414.62321774999145,415.2756428340217,415.52308862499194,415.52308862499194,415.52308862499194,416.6233488750295,416.6233488750295,416.6233488750295,416.6233488750295,3.99720562499715,417.62279370898614,200002,007,2023-03-16_16h37.49.948,DMS_BEST_eyetracking_DAN_base_12-36_looped_10minWORKING,2022.2.4,None,
64,UNPRED,12,0.5106517269268507,0,images/picture_1.png,images/picture_1.png,0,"[-11.733433509789466, -11.733433509789462]",-11.733433509789464,-11.733433509789462,images/picture_2.png,1,"[-11.733433509789462, 11.733433509789464]",-11.733433509789462,11.733433509789464,images/picture_3.png,2,"[11.733433509789462, -11.733433509789466]",11.733433509789462,-11.733433509789464,0,1,1,0.5106517269268507,1.510651726926851,1.489348273073149,3,1,1.260651726926851,0,7,0,7,0,0,2,2,1,,,,,,,,,,,,,,,,,,,,,200002,007,2023-03-16_16h37.49.948,DMS_BEST_eyetracking_DAN_base_12-36_looped_10minWORKING,2022.2.4,None,
64,UNPRED,12,0.5106517269268507,0,images/picture_1.png,images/picture_1.png,0,"[-11.733433509789466, -11.733433509789462]",-11.733433509789464,-11.733433509789462,images/picture_2.png,1,"[-11.733433509789462, 11.733433509789464]",-11.733433509789462,11.733433509789464,images/picture_3.png,2,"[11.733433509789462, -11.733433509789466]",11.733433509789462,-11.733433509789464,0,1,1,0.5106517269268507,1.510651726926851,1.489348273073149,3,1,1.260651726926851,0,7,0,7,0,0,2,2,1,,,,,,,0.0029106659931130707,417.62279370898614,417.62279370898614,418.6230632920051,418.88987845898373,419.1230797920143,419.1230797920143,419.1230797920143,420.62326583400136,420.62326583400136,420.62326583400136,420.62326583400136,3.9982227080035955,421.623044167005,200002,007,2023-03-16_16h37.49.948,DMS_BEST_eyetracking_DAN_base_12-36_looped_10minWORKING,2022.2.4,None,
66,UNPRED,12,1.1629310872667558,2,images/picture_3.png,images/picture_1.png,0,"[11.733433509789464, 11.733433509789462]",11.733433509789464,11.733433509789462,images/picture_2.png,1,"[-11.733433509789466, -11.733433509789462]",-11.733433509789464,-11.733433509789462,images/picture_3.png,2,"[-11.733433509789462, 11.733433509789464]",-11.733433509789462,11.733433509789464,0,1,1,1.1629310872667558,2.162931087266756,0.8370689127332442,3,1,1.912931087266756,0,7,0,7,0,0,3,3,3,,,,,,,,,,,,,,,,,,,,,200002,007,2023-03-16_16h37.49.948,DMS_BEST_eyetracking_DAN_base_12-36_looped_10minWORKING,2022.2.4,None,
66,UNPRED,12,1.1629310872667558,2,images/picture_3.png,images/picture_1.png,0,"[11.733433509789464, 11.733433509789462]",11.733433509789464,11.733433509789462,images/picture_2.png,1,"[-11.733433509789466, -11.733433509789462]",-11.733433509789464,-11.733433509789462,images/picture_3.png,2,"[-11.733433509789462, 11.733433509789464]",-11.733433509789462,11.733433509789464,0,1,1,1.1629310872667558,2.162931087266756,0.8370689127332442,3,1,1.912931087266756,0,7,0,7,0,0,3,3,3,,,,,,,0.00192958302795887,421.623044167005,421.623044167005,422.62341145897517,423.5420140839997,423.7896199999959,423.7896199999959,423.7896199999959,424.64196995901875,424.64196995901875,424.64196995901875,424.62294274999294,3.997243125049863,425.6229919170146,200002,007,2023-03-16_16h37.49.948,DMS_BEST_eyetracking_DAN_base_12-36_looped_10minWORKING,2022.2.4,None,
