trial_count,blockType,blockNum,delay_time,stimImage_i,stimImage,responseImage1,responseImage1_i,responseImage1_pos,responseImage1_X,responseImage1_Y,responseImage2,responseImage2_i,responseImage2_pos,responseImage2_X,responseImage2_Y,responseImage3,responseImage3_i,responseImage3_pos,responseImage3_X,responseImage3_Y,cue_onset,cue_dur,delay_onset,delay_dur,resp_onset,resp_dur,rest_onset,rest_dur,circle_dur,circle_onset,total_dur,cross_onset,cross_dur,delay_resp_period,blocks.thisRepN,blocks.thisTrialN,blocks.thisN,blocks.thisIndex,trials.thisRepN,trials.thisTrialN,trials.thisN,trials.thisIndex,key_resp.started,text.started,key_resp.keys,key_resp.rt,text_2.started,text_2.stopped,sample.started,Delay.started,sample.stopped,Delay.stopped,Response_1.started,Response_2.started,Response_3.started,Response_1.stopped,Response_2.stopped,Response_3.stopped,polygon.started,polygon.stopped,participant,session,date,expName,psychopyVersion,frameRate,
,,,,,,,,,,,,,,,,,,,,,,,,,,,,,,,,,,,,,,,,,,,180.41878800000086,180.41878800000086,t,72.68547445900003,,,,,,,,,,,,,,,200005,202,2023-04-11_14h50.37.074,DMS_et_12-36,2022.2.4,None,
6,PRED,12,0.9294434881625944,1,images/picture_2.png,images/picture_1.png,0,"[11.733433509789464, 11.733433509789462]",11.733433509789464,11.733433509789462,images/picture_2.png,1,"[-11.733433509789462, 11.733433509789464]",-11.733433509789462,11.733433509789464,images/picture_3.png,2,"[11.733433509789462, -11.733433509789466]",11.733433509789462,-11.733433509789464,0,1,1,0.9294434881625944,1.9294434881625944,1.0705565118374056,3.0,1,1.6794434881625944,0,4.0,3.0,1,2,0,0,0,0,0,0,0,6,,,,,253.62272208300055,265.65155112499997,265.65155112499997,265.65155112499997,266.66654412500066,267.33317850000094,267.5664943749998,267.5664943749998,267.5664943749998,268.6334296669993,268.6334296669993,268.6334296669993,268.6334296669993,269.63294074999976,200005,202,2023-04-11_14h50.37.074,DMS_et_12-36,2022.2.4,None,
7,PRED,12,0.9294434881625944,1,images/picture_2.png,images/picture_1.png,0,"[-11.733433509789462, 11.733433509789464]",-11.733433509789462,11.733433509789464,images/picture_2.png,1,"[11.733433509789464, 11.733433509789462]",11.733433509789464,11.733433509789462,images/picture_3.png,2,"[-11.733433509789466, -11.733433509789462]",-11.733433509789464,-11.733433509789462,0,1,1,0.9294434881625944,1.9294434881625944,1.0705565118374056,3.0,1,1.6794434881625944,0,4.0,3.0,1,2,0,0,0,0,0,1,1,7,,,,,,,269.63294074999976,269.63294074999976,270.63319537499956,271.31926391699926,271.5528412500007,271.5528412500007,271.5528412500007,272.6332616670006,272.6332616670006,272.6332616670006,272.6332616670006,273.6327147920001,200005,202,2023-04-11_14h50.37.074,DMS_et_12-36,2022.2.4,None,
3,PRED,12,0.9294434881625944,1,images/picture_2.png,images/picture_1.png,0,"[11.733433509789462, -11.733433509789466]",11.733433509789462,-11.733433509789464,images/picture_2.png,1,"[-11.733433509789462, 11.733433509789464]",-11.733433509789462,11.733433509789464,images/picture_3.png,2,"[11.733433509789464, 11.733433509789462]",11.733433509789464,11.733433509789462,0,1,1,0.9294434881625944,1.9294434881625944,1.0705565118374056,3.0,1,1.6794434881625944,0,4.0,3.0,1,2,0,0,0,0,0,2,2,3,,,,,,,273.6327147920001,273.6327147920001,274.63321412500045,275.319473167001,275.55249466699934,275.55249466699934,275.55249466699934,276.63306320800075,276.63306320800075,276.63306320800075,276.63306320800075,277.6329141669994,200005,202,2023-04-11_14h50.37.074,DMS_et_12-36,2022.2.4,None,
4,PRED,12,0.9294434881625944,1,images/picture_2.png,images/picture_1.png,0,"[11.733433509789464, 11.733433509789462]",11.733433509789464,11.733433509789462,images/picture_2.png,1,"[-11.733433509789462, 11.733433509789464]",-11.733433509789462,11.733433509789464,images/picture_3.png,2,"[11.733433509789462, -11.733433509789466]",11.733433509789462,-11.733433509789464,0,1,1,0.9294434881625944,1.9294434881625944,1.0705565118374056,3.0,1,1.6794434881625944,0,4.0,3.0,1,2,0,0,0,0,0,3,3,4,,,,,,,277.6329141669994,277.6329141669994,278.6332094579993,279.31979933299954,279.55311766700106,279.55311766700106,279.55311766700106,280.63320662499973,280.63320662499973,280.63320662499973,280.63320662499973,281.6328931250009,200005,202,2023-04-11_14h50.37.074,DMS_et_12-36,2022.2.4,None,
0,PRED,12,0.9294434881625944,1,images/picture_2.png,images/picture_1.png,0,"[-11.733433509789462, 11.733433509789464]",-11.733433509789462,11.733433509789464,images/picture_2.png,1,"[11.733433509789462, -11.733433509789466]",11.733433509789462,-11.733433509789464,images/picture_3.png,2,"[-11.733433509789466, -11.733433509789462]",-11.733433509789464,-11.733433509789462,0,1,1,0.9294434881625944,1.9294434881625944,1.0705565118374056,3.0,1,1.6794434881625944,0,4.0,3.0,1,2,0,0,0,0,0,4,4,0,,,,,,,281.6328931250009,281.6328931250009,282.6332155830005,283.31961749999937,283.55272879199947,283.55272879199947,283.55272879199947,284.6332409580009,284.6332409580009,284.6332409580009,284.6332409580009,285.6327917920007,200005,202,2023-04-11_14h50.37.074,DMS_et_12-36,2022.2.4,None,
2,PRED,12,0.9294434881625944,1,images/picture_2.png,images/picture_1.png,0,"[-11.733433509789462, 11.733433509789464]",-11.733433509789462,11.733433509789464,images/picture_2.png,1,"[11.733433509789464, 11.733433509789462]",11.733433509789464,11.733433509789462,images/picture_3.png,2,"[-11.733433509789466, -11.733433509789462]",-11.733433509789464,-11.733433509789462,0,1,1,0.9294434881625944,1.9294434881625944,1.0705565118374056,3.0,1,1.6794434881625944,0,4.0,3.0,1,2,0,0,0,0,0,5,5,2,,,,,,,285.6327917920007,285.6327917920007,286.6331052500009,287.31971800000065,287.5525607920008,287.5525607920008,287.5525607920008,288.63338620800096,288.63338620800096,288.63338620800096,288.63338620800096,289.63273579199995,200005,202,2023-04-11_14h50.37.074,DMS_et_12-36,2022.2.4,None,
1,PRED,12,0.9294434881625944,1,images/picture_2.png,images/picture_1.png,0,"[-11.733433509789462, 11.733433509789464]",-11.733433509789462,11.733433509789464,images/picture_2.png,1,"[11.733433509789462, -11.733433509789466]",11.733433509789462,-11.733433509789464,images/picture_3.png,2,"[11.733433509789464, 11.733433509789462]",11.733433509789464,11.733433509789462,0,1,1,0.9294434881625944,1.9294434881625944,1.0705565118374056,3.0,1,1.6794434881625944,0,4.0,3.0,1,2,0,0,0,0,0,6,6,1,,,,,,,289.63273579199995,289.63273579199995,290.63321791700037,291.3194099169996,291.55195254200044,291.55195254200044,291.55195254200044,292.63341437500094,292.63341437500094,292.63341437500094,292.63341437500094,293.63307887500014,200005,202,2023-04-11_14h50.37.074,DMS_et_12-36,2022.2.4,None,
5,PRED,12,0.9294434881625944,1,images/picture_2.png,images/picture_1.png,0,"[11.733433509789462, -11.733433509789466]",11.733433509789462,-11.733433509789464,images/picture_2.png,1,"[-11.733433509789466, -11.733433509789462]",-11.733433509789464,-11.733433509789462,images/picture_3.png,2,"[-11.733433509789462, 11.733433509789464]",-11.733433509789462,11.733433509789464,0,1,1,0.9294434881625944,1.9294434881625944,1.0705565118374056,3.0,1,1.6794434881625944,0,4.0,3.0,1,2,0,0,0,0,0,7,7,5,,,,,,,293.63307887500014,293.63307887500014,294.63338425000074,295.3192789580007,295.5666837919998,295.5666837919998,295.5666837919998,296.65216562500063,296.65216562500063,296.65216562500063,296.63306679200105,297.6331881669994,200005,202,2023-04-11_14h50.37.074,DMS_et_12-36,2022.2.4,None,
8,PRED,12,0.9294434881625944,1,images/picture_2.png,images/picture_1.png,0,"[-11.733433509789466, -11.733433509789462]",-11.733433509789464,-11.733433509789462,images/picture_2.png,1,"[11.733433509789464, 11.733433509789462]",11.733433509789464,11.733433509789462,images/picture_3.png,2,"[11.733433509789462, -11.733433509789466]",11.733433509789462,-11.733433509789464,0,1,1,0.9294434881625944,1.9294434881625944,1.0705565118374056,3.0,1,1.6794434881625944,0,4.0,3.0,1,2,0,0,0,0,0,8,8,8,,,,,,,297.6331881669994,297.6331881669994,298.6332220830009,299.3192252080007,299.55310154200015,299.55310154200015,299.55310154200015,300.63343695799995,300.63343695799995,300.63343695799995,300.63343695799995,301.6528060420005,200005,202,2023-04-11_14h50.37.074,DMS_et_12-36,2022.2.4,None,
,,,,,,,,,,,,,,,,,,,,,,,,,,,,,,,,,,,0,0,0,0,,,,,,,,,301.6528060420005,313.6856514579995,,,,,,,,,,,,,200005,202,2023-04-11_14h50.37.074,DMS_et_12-36,2022.2.4,None,
11,UNPRED,12,0.9294434881625944,1,images/picture_2.png,images/picture_1.png,0,"[-11.733433509789462, 11.733433509789464]",-11.733433509789462,11.733433509789464,images/picture_2.png,1,"[11.733433509789462, -11.733433509789466]",11.733433509789462,-11.733433509789464,images/picture_3.png,2,"[11.733433509789464, 11.733433509789462]",11.733433509789464,11.733433509789462,0,1,1,0.9294434881625944,1.9294434881625944,1.0705565118374056,3.0,1,1.6794434881625944,0,4.0,3.0,1,2,1,0,1,0,0,0,0,2,,,,,,,313.6856514579995,313.6856514579995,314.7000098330009,315.3666480419997,315.5999305000005,315.5999305000005,315.5999305000005,316.66713804199935,316.66713804199935,316.66713804199935,316.6852709169998,317.6997250830009,200005,202,2023-04-11_14h50.37.074,DMS_et_12-36,2022.2.4,None,
15,UNPRED,12,0.9294434881625944,1,images/picture_2.png,images/picture_1.png,0,"[-11.733433509789462, 11.733433509789464]",-11.733433509789462,11.733433509789464,images/picture_2.png,1,"[-11.733433509789466, -11.733433509789462]",-11.733433509789464,-11.733433509789462,images/picture_3.png,2,"[11.733433509789464, 11.733433509789462]",11.733433509789464,11.733433509789462,0,1,1,0.9294434881625944,1.9294434881625944,1.0705565118374056,3.0,1,1.6794434881625944,0,4.0,3.0,1,2,1,0,1,0,0,1,1,6,,,,,,,317.6997250830009,317.6997250830009,318.70023991699964,319.38622379200024,319.61949537500004,319.61949537500004,319.61949537500004,320.7000329170005,320.7000329170005,320.7000329170005,320.7000329170005,321.6989628329993,200005,202,2023-04-11_14h50.37.074,DMS_et_12-36,2022.2.4,None,
12,UNPRED,12,0.9294434881625944,1,images/picture_2.png,images/picture_1.png,0,"[11.733433509789464, 11.733433509789462]",11.733433509789464,11.733433509789462,images/picture_2.png,1,"[-11.733433509789462, 11.733433509789464]",-11.733433509789462,11.733433509789464,images/picture_3.png,2,"[-11.733433509789466, -11.733433509789462]",-11.733433509789464,-11.733433509789462,0,1,1,0.9294434881625944,1.9294434881625944,1.0705565118374056,3.0,1,1.6794434881625944,0,4.0,3.0,1,2,1,0,1,0,0,2,2,3,,,,,,,321.6989628329993,321.6989628329993,322.7002016250008,323.3865408750007,323.63347104199966,323.63347104199966,323.63347104199966,324.7001437500003,324.7001437500003,324.7001437500003,324.7001437500003,325.7190316670003,200005,202,2023-04-11_14h50.37.074,DMS_et_12-36,2022.2.4,None,
17,UNPRED,12,0.9294434881625944,2,images/picture_3.png,images/picture_1.png,0,"[11.733433509789464, 11.733433509789462]",11.733433509789464,11.733433509789462,images/picture_2.png,1,"[-11.733433509789462, 11.733433509789464]",-11.733433509789462,11.733433509789464,images/picture_3.png,2,"[11.733433509789462, -11.733433509789466]",11.733433509789462,-11.733433509789464,0,1,1,0.9294434881625944,1.9294434881625944,1.0705565118374056,3.0,1,1.6794434881625944,0,4.0,3.0,1,2,1,0,1,0,0,3,3,8,,,,,,,325.7190316670003,325.7190316670003,326.73344445800103,327.3999096669995,327.6188458329998,327.6188458329998,327.6188458329998,328.7003415830004,328.7003415830004,328.7003415830004,328.7003415830004,329.7001538330005,200005,202,2023-04-11_14h50.37.074,DMS_et_12-36,2022.2.4,None,
9,UNPRED,12,0.9294434881625944,1,images/picture_2.png,images/picture_1.png,0,"[-11.733433509789462, 11.733433509789464]",-11.733433509789462,11.733433509789464,images/picture_2.png,1,"[11.733433509789462, -11.733433509789466]",11.733433509789462,-11.733433509789464,images/picture_3.png,2,"[11.733433509789464, 11.733433509789462]",11.733433509789464,11.733433509789462,0,1,1,0.9294434881625944,1.9294434881625944,1.0705565118374056,3.0,1,1.6794434881625944,0,4.0,3.0,1,2,1,0,1,0,0,4,4,0,,,,,,,329.7001538330005,329.7001538330005,330.700172750001,331.38658895799927,331.61978508299944,331.61978508299944,331.61978508299944,332.7002708330001,332.7002708330001,332.7002708330001,332.7002708330001,333.6993850830004,200005,202,2023-04-11_14h50.37.074,DMS_et_12-36,2022.2.4,None,
16,UNPRED,12,0.9294434881625944,0,images/picture_1.png,images/picture_1.png,0,"[11.733433509789464, 11.733433509789462]",11.733433509789464,11.733433509789462,images/picture_2.png,1,"[-11.733433509789466, -11.733433509789462]",-11.733433509789464,-11.733433509789462,images/picture_3.png,2,"[-11.733433509789462, 11.733433509789464]",-11.733433509789462,11.733433509789464,0,1,1,0.9294434881625944,1.9294434881625944,1.0705565118374056,3.0,1,1.6794434881625944,0,4.0,3.0,1,2,1,0,1,0,0,5,5,7,,,,,,,333.6993850830004,333.6993850830004,334.70013800000015,335.38649729200006,335.6334443750002,335.6334443750002,335.6334443750002,336.7002027920007,336.7002027920007,336.7002027920007,336.7002027920007,337.7193551670007,200005,202,2023-04-11_14h50.37.074,DMS_et_12-36,2022.2.4,None,
13,UNPRED,12,0.9294434881625944,2,images/picture_3.png,images/picture_1.png,0,"[11.733433509789464, 11.733433509789462]",11.733433509789464,11.733433509789462,images/picture_2.png,1,"[-11.733433509789462, 11.733433509789464]",-11.733433509789462,11.733433509789464,images/picture_3.png,2,"[11.733433509789462, -11.733433509789466]",11.733433509789462,-11.733433509789464,0,1,1,0.9294434881625944,1.9294434881625944,1.0705565118374056,3.0,1,1.6794434881625944,0,4.0,3.0,1,2,1,0,1,0,0,6,6,4,,,,,,,337.7193551670007,337.7193551670007,338.73360508299993,339.4002780419996,339.61962225000025,339.61962225000025,339.61962225000025,340.7002260419995,340.7002260419995,340.7002260419995,340.7002260419995,341.69914495800003,200005,202,2023-04-11_14h50.37.074,DMS_et_12-36,2022.2.4,None,
10,UNPRED,12,0.9294434881625944,0,images/picture_1.png,images/picture_1.png,0,"[11.733433509789462, -11.733433509789466]",11.733433509789462,-11.733433509789464,images/picture_2.png,1,"[-11.733433509789462, 11.733433509789464]",-11.733433509789462,11.733433509789464,images/picture_3.png,2,"[11.733433509789464, 11.733433509789462]",11.733433509789464,11.733433509789462,0,1,1,0.9294434881625944,1.9294434881625944,1.0705565118374056,3.0,1,1.6794434881625944,0,4.0,3.0,1,2,1,0,1,0,0,7,7,1,,,,,,,341.69914495800003,341.69914495800003,342.7001972500002,343.3861390000002,343.63349449999987,343.63349449999987,343.63349449999987,344.7195532500009,344.7195532500009,344.7195532500009,344.700184542,345.718807792,200005,202,2023-04-11_14h50.37.074,DMS_et_12-36,2022.2.4,None,
14,UNPRED,12,0.9294434881625944,2,images/picture_3.png,images/picture_1.png,0,"[11.733433509789464, 11.733433509789462]",11.733433509789464,11.733433509789462,images/picture_2.png,1,"[-11.733433509789462, 11.733433509789464]",-11.733433509789462,11.733433509789464,images/picture_3.png,2,"[11.733433509789462, -11.733433509789466]",11.733433509789462,-11.733433509789464,0,1,1,0.9294434881625944,1.9294434881625944,1.0705565118374056,3.0,1,1.6794434881625944,0,4.0,3.0,1,2,1,0,1,0,0,8,8,5,,,,,,,345.718807792,345.718807792,346.7334700419997,347.39994037500037,347.6332397080005,347.6332397080005,347.6332397080005,348.7002163750003,348.7002163750003,348.7002163750003,348.7002163750003,349.73187316700023,200005,202,2023-04-11_14h50.37.074,DMS_et_12-36,2022.2.4,None,
,,,,,,,,,,,,,,,,,,,,,,,,,,,,,,,,,,,1,0,1,0,,,,,,,,,349.73187316700023,361.75263308300055,,,,,,,,,,,,,200005,202,2023-04-11_14h50.37.074,DMS_et_12-36,2022.2.4,None,
23,PRED,12,0.9294434881625944,0,images/picture_1.png,images/picture_1.png,0,"[-11.733433509789462, 11.733433509789464]",-11.733433509789462,11.733433509789464,images/picture_2.png,1,"[-11.733433509789466, -11.733433509789462]",-11.733433509789464,-11.733433509789462,images/picture_3.png,2,"[11.733433509789462, -11.733433509789466]",11.733433509789462,-11.733433509789464,0,1,1,0.9294434881625944,1.9294434881625944,1.0705565118374056,3.0,1,1.6794434881625944,0,4.0,3.0,1,2,2,0,2,0,0,0,0,5,,,,,,,361.75263308300055,361.75263308300055,362.76695112500056,363.4334757079996,363.6869198330005,363.6869198330005,363.6869198330005,364.767026042,364.767026042,364.767026042,364.75313124999957,365.76670529200055,200005,202,2023-04-11_14h50.37.074,DMS_et_12-36,2022.2.4,None,
22,PRED,12,0.9294434881625944,0,images/picture_1.png,images/picture_1.png,0,"[11.733433509789464, 11.733433509789462]",11.733433509789464,11.733433509789462,images/picture_2.png,1,"[-11.733433509789462, 11.733433509789464]",-11.733433509789462,11.733433509789464,images/picture_3.png,2,"[11.733433509789462, -11.733433509789466]",11.733433509789462,-11.733433509789464,0,1,1,0.9294434881625944,1.9294434881625944,1.0705565118374056,3.0,1,1.6794434881625944,0,4.0,3.0,1,2,2,0,2,0,0,1,1,4,,,,,,,365.76670529200055,365.76670529200055,366.7669662499993,367.4530402500004,367.6861995830004,367.6861995830004,367.6861995830004,368.7667794579993,368.7667794579993,368.7667794579993,368.7667794579993,369.7665355000008,200005,202,2023-04-11_14h50.37.074,DMS_et_12-36,2022.2.4,None,
25,PRED,12,0.9294434881625944,0,images/picture_1.png,images/picture_1.png,0,"[-11.733433509789462, 11.733433509789464]",-11.733433509789462,11.733433509789464,images/picture_2.png,1,"[-11.733433509789466, -11.733433509789462]",-11.733433509789464,-11.733433509789462,images/picture_3.png,2,"[11.733433509789464, 11.733433509789462]",11.733433509789464,11.733433509789462,0,1,1,0.9294434881625944,1.9294434881625944,1.0705565118374056,3.0,1,1.6794434881625944,0,4.0,3.0,1,2,2,0,2,0,0,2,2,7,,,,,,,369.7665355000008,369.7665355000008,370.7669475420007,371.4528744580002,371.68631758300035,371.68631758300035,371.68631758300035,372.7669705829994,372.7669705829994,372.7669705829994,372.7669705829994,373.76674812500096,200005,202,2023-04-11_14h50.37.074,DMS_et_12-36,2022.2.4,None,
24,PRED,12,0.9294434881625944,0,images/picture_1.png,images/picture_1.png,0,"[-11.733433509789462, 11.733433509789464]",-11.733433509789462,11.733433509789464,images/picture_2.png,1,"[11.733433509789462, -11.733433509789466]",11.733433509789462,-11.733433509789464,images/picture_3.png,2,"[-11.733433509789466, -11.733433509789462]",-11.733433509789464,-11.733433509789462,0,1,1,0.9294434881625944,1.9294434881625944,1.0705565118374056,3.0,1,1.6794434881625944,0,4.0,3.0,1,2,2,0,2,0,0,3,3,6,,,,,,,373.76674812500096,373.76674812500096,374.76694195799973,375.45346891699955,375.68659879200095,375.68659879200095,375.68659879200095,376.76682258300025,376.76682258300025,376.76682258300025,376.76682258300025,377.7663422500009,200005,202,2023-04-11_14h50.37.074,DMS_et_12-36,2022.2.4,None,
26,PRED,12,0.9294434881625944,0,images/picture_1.png,images/picture_1.png,0,"[11.733433509789464, 11.733433509789462]",11.733433509789464,11.733433509789462,images/picture_2.png,1,"[-11.733433509789466, -11.733433509789462]",-11.733433509789464,-11.733433509789462,images/picture_3.png,2,"[-11.733433509789462, 11.733433509789464]",-11.733433509789462,11.733433509789464,0,1,1,0.9294434881625944,1.9294434881625944,1.0705565118374056,3.0,1,1.6794434881625944,0,4.0,3.0,1,2,2,0,2,0,0,4,4,8,,,,,,,377.7663422500009,377.7663422500009,378.7667133750001,379.4526460420002,379.6999626249999,379.6999626249999,379.6999626249999,380.76666354200097,380.76666354200097,380.76666354200097,380.76666354200097,381.76653375000024,200005,202,2023-04-11_14h50.37.074,DMS_et_12-36,2022.2.4,None,
20,PRED,12,0.9294434881625944,0,images/picture_1.png,images/picture_1.png,0,"[-11.733433509789462, 11.733433509789464]",-11.733433509789462,11.733433509789464,images/picture_2.png,1,"[11.733433509789464, 11.733433509789462]",11.733433509789464,11.733433509789462,images/picture_3.png,2,"[-11.733433509789466, -11.733433509789462]",-11.733433509789464,-11.733433509789462,0,1,1,0.9294434881625944,1.9294434881625944,1.0705565118374056,3.0,1,1.6794434881625944,0,4.0,3.0,1,2,2,0,2,0,0,5,5,2,,,,,,,381.76653375000024,381.76653375000024,382.7668037080002,383.45263499999965,383.6860127500004,383.6860127500004,383.6860127500004,384.7667189999993,384.7667189999993,384.7667189999993,384.7667189999993,385.76642708300096,200005,202,2023-04-11_14h50.37.074,DMS_et_12-36,2022.2.4,None,
18,PRED,12,0.9294434881625944,0,images/picture_1.png,images/picture_1.png,0,"[11.733433509789462, -11.733433509789466]",11.733433509789462,-11.733433509789464,images/picture_2.png,1,"[-11.733433509789466, -11.733433509789462]",-11.733433509789464,-11.733433509789462,images/picture_3.png,2,"[-11.733433509789462, 11.733433509789464]",-11.733433509789462,11.733433509789464,0,1,1,0.9294434881625944,1.9294434881625944,1.0705565118374056,3.0,1,1.6794434881625944,0,4.0,3.0,1,2,2,0,2,0,0,6,6,0,,,,,,,385.76642708300096,385.76642708300096,386.766695792001,387.45257304200095,387.68619150000086,387.68619150000086,387.68619150000086,388.76656820800054,388.76656820800054,388.76656820800054,388.76656820800054,389.76619154199943,200005,202,2023-04-11_14h50.37.074,DMS_et_12-36,2022.2.4,None,
19,PRED,12,0.9294434881625944,0,images/picture_1.png,images/picture_1.png,0,"[-11.733433509789466, -11.733433509789462]",-11.733433509789464,-11.733433509789462,images/picture_2.png,1,"[11.733433509789462, -11.733433509789466]",11.733433509789462,-11.733433509789464,images/picture_3.png,2,"[11.733433509789464, 11.733433509789462]",11.733433509789464,11.733433509789462,0,1,1,0.9294434881625944,1.9294434881625944,1.0705565118374056,3.0,1,1.6794434881625944,0,4.0,3.0,1,2,2,0,2,0,0,7,7,1,,,,,,,389.76619154199943,389.76619154199943,390.76666512500015,391.45287929200094,391.699994042001,391.699994042001,391.699994042001,392.78599083300105,392.78599083300105,392.78599083300105,392.7667417499997,393.7661780420003,200005,202,2023-04-11_14h50.37.074,DMS_et_12-36,2022.2.4,None,
21,PRED,12,0.9294434881625944,0,images/picture_1.png,images/picture_1.png,0,"[-11.733433509789466, -11.733433509789462]",-11.733433509789464,-11.733433509789462,images/picture_2.png,1,"[11.733433509789462, -11.733433509789466]",11.733433509789462,-11.733433509789464,images/picture_3.png,2,"[11.733433509789464, 11.733433509789462]",11.733433509789464,11.733433509789462,0,1,1,0.9294434881625944,1.9294434881625944,1.0705565118374056,3.0,1,1.6794434881625944,0,4.0,3.0,1,2,2,0,2,0,0,8,8,3,,,,,,,393.7661780420003,393.7661780420003,394.76669304200004,395.4526412079995,395.68656637499953,395.68656637499953,395.68656637499953,396.7667002920007,396.7667002920007,396.7667002920007,396.7667002920007,397.8085147080001,200005,202,2023-04-11_14h50.37.074,DMS_et_12-36,2022.2.4,None,
,,,,,,,,,,,,,,,,,,,,,,,,,,,,,,,,,,,2,0,2,0,,,,,,,,,397.8085147080001,409.8210747079993,,,,,,,,,,,,,200005,202,2023-04-11_14h50.37.074,DMS_et_12-36,2022.2.4,None,
28,UNPRED,12,0.9294434881625944,0,images/picture_1.png,images/picture_1.png,0,"[11.733433509789462, -11.733433509789466]",11.733433509789462,-11.733433509789464,images/picture_2.png,1,"[-11.733433509789462, 11.733433509789464]",-11.733433509789462,11.733433509789464,images/picture_3.png,2,"[11.733433509789464, 11.733433509789462]",11.733433509789464,11.733433509789462,0,1,1,0.9294434881625944,1.9294434881625944,1.0705565118374056,3.0,1,1.6794434881625944,0,4.0,3.0,1,2,3,0,3,0,0,0,0,1,,,,,,,409.8210747079993,409.8210747079993,410.833442000001,411.5001443750007,411.7534104999995,411.7534104999995,411.7534104999995,412.83351208299973,412.83351208299973,412.83351208299973,412.8193580829993,413.8323270000001,200005,202,2023-04-11_14h50.37.074,DMS_et_12-36,2022.2.4,None,
30,UNPRED,12,0.9294434881625944,1,images/picture_2.png,images/picture_1.png,0,"[11.733433509789462, -11.733433509789466]",11.733433509789462,-11.733433509789464,images/picture_2.png,1,"[-11.733433509789462, 11.733433509789464]",-11.733433509789462,11.733433509789464,images/picture_3.png,2,"[11.733433509789464, 11.733433509789462]",11.733433509789464,11.733433509789462,0,1,1,0.9294434881625944,1.9294434881625944,1.0705565118374056,3.0,1,1.6794434881625944,0,4.0,3.0,1,2,3,0,3,0,0,1,1,3,,,,,,,413.8323270000001,413.8323270000001,414.8334413329994,415.5195755420009,415.75277433300107,415.75277433300107,415.75277433300107,416.8334463329993,416.8334463329993,416.8334463329993,416.8334463329993,417.8329060830001,200005,202,2023-04-11_14h50.37.074,DMS_et_12-36,2022.2.4,None,
33,UNPRED,12,0.9294434881625944,1,images/picture_2.png,images/picture_1.png,0,"[11.733433509789462, -11.733433509789466]",11.733433509789462,-11.733433509789464,images/picture_2.png,1,"[-11.733433509789462, 11.733433509789464]",-11.733433509789462,11.733433509789464,images/picture_3.png,2,"[11.733433509789464, 11.733433509789462]",11.733433509789464,11.733433509789462,0,1,1,0.9294434881625944,1.9294434881625944,1.0705565118374056,3.0,1,1.6794434881625944,0,4.0,3.0,1,2,3,0,3,0,0,2,2,6,,,,,,,417.8329060830001,417.8329060830001,418.8334243749996,419.51860175,419.75245150000046,419.75245150000046,419.75245150000046,420.8334857919999,420.8334857919999,420.8334857919999,420.8334857919999,421.83289008300017,200005,202,2023-04-11_14h50.37.074,DMS_et_12-36,2022.2.4,None,
32,UNPRED,12,0.9294434881625944,0,images/picture_1.png,images/picture_1.png,0,"[-11.733433509789466, -11.733433509789462]",-11.733433509789464,-11.733433509789462,images/picture_2.png,1,"[-11.733433509789462, 11.733433509789464]",-11.733433509789462,11.733433509789464,images/picture_3.png,2,"[11.733433509789464, 11.733433509789462]",11.733433509789464,11.733433509789462,0,1,1,0.9294434881625944,1.9294434881625944,1.0705565118374056,3.0,1,1.6794434881625944,0,4.0,3.0,1,2,3,0,3,0,0,3,3,5,,,,,,,421.83289008300017,421.83289008300017,422.8335107919993,423.5192135420002,423.7527102080003,423.7527102080003,423.7527102080003,424.8334622500006,424.8334622500006,424.8334622500006,424.8334622500006,425.8330608750002,200005,202,2023-04-11_14h50.37.074,DMS_et_12-36,2022.2.4,None,
31,UNPRED,12,0.9294434881625944,0,images/picture_1.png,images/picture_1.png,0,"[-11.733433509789462, 11.733433509789464]",-11.733433509789462,11.733433509789464,images/picture_2.png,1,"[11.733433509789464, 11.733433509789462]",11.733433509789464,11.733433509789462,images/picture_3.png,2,"[-11.733433509789466, -11.733433509789462]",-11.733433509789464,-11.733433509789462,0,1,1,0.9294434881625944,1.9294434881625944,1.0705565118374056,3.0,1,1.6794434881625944,0,4.0,3.0,1,2,3,0,3,0,0,4,4,4,,,,,,,425.8330608750002,425.8330608750002,426.83346433299994,427.5192563750006,427.7527357079998,427.7527357079998,427.7527357079998,428.8334517080002,428.8334517080002,428.8334517080002,428.8334517080002,429.8331809579995,200005,202,2023-04-11_14h50.37.074,DMS_et_12-36,2022.2.4,None,
34,UNPRED,12,0.9294434881625944,0,images/picture_1.png,images/picture_1.png,0,"[11.733433509789464, 11.733433509789462]",11.733433509789464,11.733433509789462,images/picture_2.png,1,"[-11.733433509789462, 11.733433509789464]",-11.733433509789462,11.733433509789464,images/picture_3.png,2,"[11.733433509789462, -11.733433509789466]",11.733433509789462,-11.733433509789464,0,1,1,0.9294434881625944,1.9294434881625944,1.0705565118374056,3.0,1,1.6794434881625944,0,4.0,3.0,1,2,3,0,3,0,0,5,5,7,,,,,,,429.8331809579995,429.8331809579995,430.8334301670002,431.5194380419998,431.7526295000007,431.7526295000007,431.7526295000007,432.8335084579994,432.8335084579994,432.8335084579994,432.8335084579994,433.85231345800094,200005,202,2023-04-11_14h50.37.074,DMS_et_12-36,2022.2.4,None,
29,UNPRED,12,0.9294434881625944,2,images/picture_3.png,images/picture_1.png,0,"[-11.733433509789466, -11.733433509789462]",-11.733433509789464,-11.733433509789462,images/picture_2.png,1,"[-11.733433509789462, 11.733433509789464]",-11.733433509789462,11.733433509789464,images/picture_3.png,2,"[11.733433509789462, -11.733433509789466]",11.733433509789462,-11.733433509789464,0,1,1,0.9294434881625944,1.9294434881625944,1.0705565118374056,3.0,1,1.6794434881625944,0,4.0,3.0,1,2,3,0,3,0,0,6,6,2,,,,,,,433.85231345800094,433.85231345800094,434.86671495799965,435.53345683299995,435.7527686249996,435.7527686249996,435.7527686249996,436.83344858300006,436.83344858300006,436.83344858300006,436.83344858300006,437.83459587499965,200005,202,2023-04-11_14h50.37.074,DMS_et_12-36,2022.2.4,None,
27,UNPRED,12,0.9294434881625944,1,images/picture_2.png,images/picture_1.png,0,"[-11.733433509789462, 11.733433509789464]",-11.733433509789462,11.733433509789464,images/picture_2.png,1,"[11.733433509789464, 11.733433509789462]",11.733433509789464,11.733433509789462,images/picture_3.png,2,"[-11.733433509789466, -11.733433509789462]",-11.733433509789464,-11.733433509789462,0,1,1,0.9294434881625944,1.9294434881625944,1.0705565118374056,3.0,1,1.6794434881625944,0,4.0,3.0,1,2,3,0,3,0,0,7,7,0,,,,,,,437.83459587499965,437.83459587499965,438.833451292001,439.51937091699983,439.76646141700076,439.76646141700076,439.76646141700076,440.85231125000064,440.85231125000064,440.85231125000064,440.833319708001,441.8329374170007,200005,202,2023-04-11_14h50.37.074,DMS_et_12-36,2022.2.4,None,
35,UNPRED,12,0.9294434881625944,0,images/picture_1.png,images/picture_1.png,0,"[-11.733433509789462, 11.733433509789464]",-11.733433509789462,11.733433509789464,images/picture_2.png,1,"[11.733433509789462, -11.733433509789466]",11.733433509789462,-11.733433509789464,images/picture_3.png,2,"[11.733433509789464, 11.733433509789462]",11.733433509789464,11.733433509789462,0,1,1,0.9294434881625944,1.9294434881625944,1.0705565118374056,3.0,1,1.6794434881625944,0,4.0,3.0,1,2,3,0,3,0,0,8,8,8,,,,,,,441.8329374170007,441.8329374170007,442.8335293750006,443.51952804199937,443.75262912499966,443.75262912499966,443.75262912499966,444.83361375000095,444.83361375000095,444.83361375000095,444.83361375000095,445.8856502079998,200005,202,2023-04-11_14h50.37.074,DMS_et_12-36,2022.2.4,None,
,,,,,,,,,,,,,,,,,,,,,,,,,,,,,,,,,,,3,0,3,0,,,,,,,,,445.8856502079998,457.9209846670001,,,,,,,,,,,,,200005,202,2023-04-11_14h50.37.074,DMS_et_12-36,2022.2.4,None,
44,PRED,12,0.9294434881625944,0,images/picture_1.png,images/picture_1.png,0,"[11.733433509789464, 11.733433509789462]",11.733433509789464,11.733433509789462,images/picture_2.png,1,"[11.733433509789462, -11.733433509789466]",11.733433509789462,-11.733433509789464,images/picture_3.png,2,"[-11.733433509789466, -11.733433509789462]",-11.733433509789464,-11.733433509789462,0,1,1,0.9294434881625944,1.9294434881625944,1.0705565118374056,3.0,1,1.6794434881625944,0,4.0,3.0,1,2,4,0,4,0,0,0,0,8,,,,,,,457.9209846670001,457.9209846670001,458.93346904200007,459.6001885000005,459.8532873330005,459.8532873330005,459.8532873330005,460.93326762499964,460.93326762499964,460.93326762499964,460.91889400000036,461.9329258329999,200005,202,2023-04-11_14h50.37.074,DMS_et_12-36,2022.2.4,None,
43,PRED,12,0.9294434881625944,0,images/picture_1.png,images/picture_1.png,0,"[11.733433509789462, -11.733433509789466]",11.733433509789462,-11.733433509789464,images/picture_2.png,1,"[11.733433509789464, 11.733433509789462]",11.733433509789464,11.733433509789462,images/picture_3.png,2,"[-11.733433509789462, 11.733433509789464]",-11.733433509789462,11.733433509789464,0,1,1,0.9294434881625944,1.9294434881625944,1.0705565118374056,3.0,1,1.6794434881625944,0,4.0,3.0,1,2,4,0,4,0,0,1,1,7,,,,,,,461.9329258329999,461.9329258329999,462.93368270800056,463.6194258329997,463.8527524170004,463.8527524170004,463.8527524170004,464.9334629170007,464.9334629170007,464.9334629170007,464.9334629170007,465.93290954199983,200005,202,2023-04-11_14h50.37.074,DMS_et_12-36,2022.2.4,None,
39,PRED,12,0.9294434881625944,0,images/picture_1.png,images/picture_1.png,0,"[-11.733433509789462, 11.733433509789464]",-11.733433509789462,11.733433509789464,images/picture_2.png,1,"[11.733433509789464, 11.733433509789462]",11.733433509789464,11.733433509789462,images/picture_3.png,2,"[-11.733433509789466, -11.733433509789462]",-11.733433509789464,-11.733433509789462,0,1,1,0.9294434881625944,1.9294434881625944,1.0705565118374056,3.0,1,1.6794434881625944,0,4.0,3.0,1,2,4,0,4,0,0,2,2,3,,,,,,,465.93290954199983,465.93290954199983,466.93349945800037,467.6202119999998,467.8668848750003,467.8668848750003,467.8668848750003,468.9532329169997,468.9532329169997,468.9532329169997,468.9334255829999,469.93322587500006,200005,202,2023-04-11_14h50.37.074,DMS_et_12-36,2022.2.4,None,
40,PRED,12,0.9294434881625944,0,images/picture_1.png,images/picture_1.png,0,"[-11.733433509789466, -11.733433509789462]",-11.733433509789464,-11.733433509789462,images/picture_2.png,1,"[11.733433509789462, -11.733433509789466]",11.733433509789462,-11.733433509789464,images/picture_3.png,2,"[-11.733433509789462, 11.733433509789464]",-11.733433509789462,11.733433509789464,0,1,1,0.9294434881625944,1.9294434881625944,1.0705565118374056,3.0,1,1.6794434881625944,0,4.0,3.0,1,2,4,0,4,0,0,3,3,4,,,,,,,469.93322587500006,469.93322587500006,470.9331860830007,471.61889599999995,471.85301937499935,471.85301937499935,471.85301937499935,472.9335165829998,472.9335165829998,472.9335165829998,472.9335165829998,473.93319345800046,200005,202,2023-04-11_14h50.37.074,DMS_et_12-36,2022.2.4,None,
42,PRED,12,0.9294434881625944,0,images/picture_1.png,images/picture_1.png,0,"[11.733433509789464, 11.733433509789462]",11.733433509789464,11.733433509789462,images/picture_2.png,1,"[11.733433509789462, -11.733433509789466]",11.733433509789462,-11.733433509789464,images/picture_3.png,2,"[-11.733433509789466, -11.733433509789462]",-11.733433509789464,-11.733433509789462,0,1,1,0.9294434881625944,1.9294434881625944,1.0705565118374056,3.0,1,1.6794434881625944,0,4.0,3.0,1,2,4,0,4,0,0,4,4,6,,,,,,,473.93319345800046,473.93319345800046,474.9334840419997,475.6194457500005,475.85339441699944,475.85339441699944,475.85339441699944,476.9336167500005,476.9336167500005,476.9336167500005,476.9336167500005,477.9329445000003,200005,202,2023-04-11_14h50.37.074,DMS_et_12-36,2022.2.4,None,
38,PRED,12,0.9294434881625944,0,images/picture_1.png,images/picture_1.png,0,"[-11.733433509789462, 11.733433509789464]",-11.733433509789462,11.733433509789464,images/picture_2.png,1,"[11.733433509789462, -11.733433509789466]",11.733433509789462,-11.733433509789464,images/picture_3.png,2,"[11.733433509789464, 11.733433509789462]",11.733433509789464,11.733433509789462,0,1,1,0.9294434881625944,1.9294434881625944,1.0705565118374056,3.0,1,1.6794434881625944,0,4.0,3.0,1,2,4,0,4,0,0,5,5,2,,,,,,,477.9329445000003,477.9329445000003,478.93346804199973,479.61953474999973,479.85288949999995,479.85288949999995,479.85288949999995,480.93322754200017,480.93322754200017,480.93322754200017,480.93322754200017,481.93299220799963,200005,202,2023-04-11_14h50.37.074,DMS_et_12-36,2022.2.4,None,
36,PRED,12,0.9294434881625944,0,images/picture_1.png,images/picture_1.png,0,"[11.733433509789462, -11.733433509789466]",11.733433509789462,-11.733433509789464,images/picture_2.png,1,"[-11.733433509789462, 11.733433509789464]",-11.733433509789462,11.733433509789464,images/picture_3.png,2,"[-11.733433509789466, -11.733433509789462]",-11.733433509789464,-11.733433509789462,0,1,1,0.9294434881625944,1.9294434881625944,1.0705565118374056,3.0,1,1.6794434881625944,0,4.0,3.0,1,2,4,0,4,0,0,6,6,0,,,,,,,481.93299220799963,481.93299220799963,482.93348154200066,483.61963979199936,483.85275708300105,483.85275708300105,483.85275708300105,484.93344691700077,484.93344691700077,484.93344691700077,484.93344691700077,485.93324050000047,200005,202,2023-04-11_14h50.37.074,DMS_et_12-36,2022.2.4,None,
41,PRED,12,0.9294434881625944,0,images/picture_1.png,images/picture_1.png,0,"[-11.733433509789462, 11.733433509789464]",-11.733433509789462,11.733433509789464,images/picture_2.png,1,"[11.733433509789462, -11.733433509789466]",11.733433509789462,-11.733433509789464,images/picture_3.png,2,"[-11.733433509789466, -11.733433509789462]",-11.733433509789464,-11.733433509789462,0,1,1,0.9294434881625944,1.9294434881625944,1.0705565118374056,3.0,1,1.6794434881625944,0,4.0,3.0,1,2,4,0,4,0,0,7,7,5,,,,,,,485.93324050000047,485.93324050000047,486.9334944580005,487.61940808300096,487.8532822920006,487.8532822920006,487.8532822920006,488.9336475420005,488.9336475420005,488.9336475420005,488.9336475420005,489.9332432499996,200005,202,2023-04-11_14h50.37.074,DMS_et_12-36,2022.2.4,None,
37,PRED,12,0.9294434881625944,0,images/picture_1.png,images/picture_1.png,0,"[11.733433509789462, -11.733433509789466]",11.733433509789462,-11.733433509789464,images/picture_2.png,1,"[11.733433509789464, 11.733433509789462]",11.733433509789464,11.733433509789462,images/picture_3.png,2,"[-11.733433509789466, -11.733433509789462]",-11.733433509789464,-11.733433509789462,0,1,1,0.9294434881625944,1.9294434881625944,1.0705565118374056,3.0,1,1.6794434881625944,0,4.0,3.0,1,2,4,0,4,0,0,8,8,1,,,,,,,489.9332432499996,489.9332432499996,490.93322550000084,491.61875275000057,491.8523153749993,491.8523153749993,491.8523153749993,492.9334942919995,492.9334942919995,492.9334942919995,492.9334942919995,494.04207295800006,200005,202,2023-04-11_14h50.37.074,DMS_et_12-36,2022.2.4,None,
,,,,,,,,,,,,,,,,,,,,,,,,,,,,,,,,,,,4,0,4,0,,,,,,,,,494.04207295800006,506.0826902080007,,,,,,,,,,,,,200005,202,2023-04-11_14h50.37.074,DMS_et_12-36,2022.2.4,None,
46,UNPRED,12,0.9294434881625944,2,images/picture_3.png,images/picture_1.png,0,"[-11.733433509789462, 11.733433509789464]",-11.733433509789462,11.733433509789464,images/picture_2.png,1,"[11.733433509789464, 11.733433509789462]",11.733433509789464,11.733433509789462,images/picture_3.png,2,"[11.733433509789462, -11.733433509789466]",11.733433509789462,-11.733433509789464,0,1,1,0.9294434881625944,1.9294434881625944,1.0705565118374056,3.0,1,1.6794434881625944,0,4.0,3.0,1,2,5,0,5,0,0,0,0,1,,,,,,,506.0826902080007,506.0826902080007,507.08627983299994,507.766945667001,508.00016295800015,508.00016295800015,508.00016295800015,509.066742125,509.066742125,509.066742125,509.066742125,510.0665067080008,200005,202,2023-04-11_14h50.37.074,DMS_et_12-36,2022.2.4,None,
51,UNPRED,12,0.9294434881625944,0,images/picture_1.png,images/picture_1.png,0,"[-11.733433509789466, -11.733433509789462]",-11.733433509789464,-11.733433509789462,images/picture_2.png,1,"[-11.733433509789462, 11.733433509789464]",-11.733433509789462,11.733433509789464,images/picture_3.png,2,"[11.733433509789464, 11.733433509789462]",11.733433509789464,11.733433509789462,0,1,1,0.9294434881625944,1.9294434881625944,1.0705565118374056,3.0,1,1.6794434881625944,0,4.0,3.0,1,2,5,0,5,0,0,1,1,6,,,,,,,510.0665067080008,510.0665067080008,511.0668905420007,511.75203212499946,511.9853880419996,511.9853880419996,511.9853880419996,513.0669913330003,513.0669913330003,513.0669913330003,513.0669913330003,514.0863111670005,200005,202,2023-04-11_14h50.37.074,DMS_et_12-36,2022.2.4,None,
53,UNPRED,12,0.9294434881625944,2,images/picture_3.png,images/picture_1.png,0,"[11.733433509789464, 11.733433509789462]",11.733433509789464,11.733433509789462,images/picture_2.png,1,"[11.733433509789462, -11.733433509789466]",11.733433509789462,-11.733433509789464,images/picture_3.png,2,"[-11.733433509789466, -11.733433509789462]",-11.733433509789464,-11.733433509789462,0,1,1,0.9294434881625944,1.9294434881625944,1.0705565118374056,3.0,1,1.6794434881625944,0,4.0,3.0,1,2,5,0,5,0,0,2,2,8,,,,,,,514.0863111670005,514.0863111670005,515.100220833001,515.7669436670003,515.9861813330008,515.9861813330008,515.9861813330008,517.0669247919996,517.0669247919996,517.0669247919996,517.0669247919996,518.0667553330004,200005,202,2023-04-11_14h50.37.074,DMS_et_12-36,2022.2.4,None,
52,UNPRED,12,0.9294434881625944,0,images/picture_1.png,images/picture_1.png,0,"[11.733433509789464, 11.733433509789462]",11.733433509789464,11.733433509789462,images/picture_2.png,1,"[-11.733433509789462, 11.733433509789464]",-11.733433509789462,11.733433509789464,images/picture_3.png,2,"[11.733433509789462, -11.733433509789466]",11.733433509789462,-11.733433509789464,0,1,1,0.9294434881625944,1.9294434881625944,1.0705565118374056,3.0,1,1.6794434881625944,0,4.0,3.0,1,2,5,0,5,0,0,3,3,7,,,,,,,518.0667553330004,518.0667553330004,519.0669285000004,519.7525293750004,519.9862222920001,519.9862222920001,519.9862222920001,521.0669483750007,521.0669483750007,521.0669483750007,521.0669483750007,522.0858660419999,200005,202,2023-04-11_14h50.37.074,DMS_et_12-36,2022.2.4,None,
50,UNPRED,12,0.9294434881625944,2,images/picture_3.png,images/picture_1.png,0,"[11.733433509789464, 11.733433509789462]",11.733433509789464,11.733433509789462,images/picture_2.png,1,"[-11.733433509789466, -11.733433509789462]",-11.733433509789464,-11.733433509789462,images/picture_3.png,2,"[11.733433509789462, -11.733433509789466]",11.733433509789462,-11.733433509789464,0,1,1,0.9294434881625944,1.9294434881625944,1.0705565118374056,3.0,1,1.6794434881625944,0,4.0,3.0,1,2,5,0,5,0,0,4,4,5,,,,,,,522.0858660419999,522.0858660419999,523.1001305829996,523.7669744169998,523.9859651250008,523.9859651250008,523.9859651250008,525.0669239170002,525.0669239170002,525.0669239170002,525.0669239170002,526.0666942919997,200005,202,2023-04-11_14h50.37.074,DMS_et_12-36,2022.2.4,None,
45,UNPRED,12,0.9294434881625944,0,images/picture_1.png,images/picture_1.png,0,"[-11.733433509789462, 11.733433509789464]",-11.733433509789462,11.733433509789464,images/picture_2.png,1,"[11.733433509789462, -11.733433509789466]",11.733433509789462,-11.733433509789464,images/picture_3.png,2,"[11.733433509789464, 11.733433509789462]",11.733433509789464,11.733433509789462,0,1,1,0.9294434881625944,1.9294434881625944,1.0705565118374056,3.0,1,1.6794434881625944,0,4.0,3.0,1,2,5,0,5,0,0,5,5,0,,,,,,,526.0666942919997,526.0666942919997,527.0669500420008,527.7533925000007,527.9864967079993,527.9864967079993,527.9864967079993,529.0670728330006,529.0670728330006,529.0670728330006,529.0670728330006,530.0663472079996,200005,202,2023-04-11_14h50.37.074,DMS_et_12-36,2022.2.4,None,
47,UNPRED,12,0.9294434881625944,0,images/picture_1.png,images/picture_1.png,0,"[-11.733433509789462, 11.733433509789464]",-11.733433509789462,11.733433509789464,images/picture_2.png,1,"[-11.733433509789466, -11.733433509789462]",-11.733433509789464,-11.733433509789462,images/picture_3.png,2,"[11.733433509789464, 11.733433509789462]",11.733433509789464,11.733433509789462,0,1,1,0.9294434881625944,1.9294434881625944,1.0705565118374056,3.0,1,1.6794434881625944,0,4.0,3.0,1,2,5,0,5,0,0,6,6,2,,,,,,,530.0663472079996,530.0663472079996,531.0669464170005,531.752861125,531.9854829169999,531.9854829169999,531.9854829169999,533.0666086670008,533.0666086670008,533.0666086670008,533.0666086670008,534.0663443329995,200005,202,2023-04-11_14h50.37.074,DMS_et_12-36,2022.2.4,None,
49,UNPRED,12,0.9294434881625944,0,images/picture_1.png,images/picture_1.png,0,"[-11.733433509789466, -11.733433509789462]",-11.733433509789464,-11.733433509789462,images/picture_2.png,1,"[11.733433509789464, 11.733433509789462]",11.733433509789464,11.733433509789462,images/picture_3.png,2,"[-11.733433509789462, 11.733433509789464]",-11.733433509789462,11.733433509789464,0,1,1,0.9294434881625944,1.9294434881625944,1.0705565118374056,3.0,1,1.6794434881625944,0,4.0,3.0,1,2,5,0,5,0,0,7,7,4,,,,,,,534.0663443329995,534.0663443329995,535.0668884999995,535.7530096669998,536.000176208001,536.000176208001,536.000176208001,537.066990958001,537.066990958001,537.066990958001,537.066990958001,538.0857472499993,200005,202,2023-04-11_14h50.37.074,DMS_et_12-36,2022.2.4,None,
48,UNPRED,12,0.9294434881625944,2,images/picture_3.png,images/picture_1.png,0,"[11.733433509789462, -11.733433509789466]",11.733433509789462,-11.733433509789464,images/picture_2.png,1,"[-11.733433509789462, 11.733433509789464]",-11.733433509789462,11.733433509789464,images/picture_3.png,2,"[11.733433509789464, 11.733433509789462]",11.733433509789464,11.733433509789462,0,1,1,0.9294434881625944,1.9294434881625944,1.0705565118374056,3.0,1,1.6794434881625944,0,4.0,3.0,1,2,5,0,5,0,0,8,8,3,,,,,,,538.0857472499993,538.0857472499993,539.1002568750009,539.7669256669997,539.9863037920004,539.9863037920004,539.9863037920004,541.0669107499998,541.0669107499998,541.0669107499998,541.0669107499998,542.1389039999995,200005,202,2023-04-11_14h50.37.074,DMS_et_12-36,2022.2.4,None,
,,,,,,,,,,,,,,,,,,,,,,,,,,,,,,,,,,,5,0,5,0,,,,,,,,,542.1389039999995,554.169606083,,,,,,,,,,,,,200005,202,2023-04-11_14h50.37.074,DMS_et_12-36,2022.2.4,None,
54,PRED,12,0.9294434881625944,1,images/picture_2.png,images/picture_1.png,0,"[-11.733433509789462, 11.733433509789464]",-11.733433509789462,11.733433509789464,images/picture_2.png,1,"[-11.733433509789466, -11.733433509789462]",-11.733433509789464,-11.733433509789462,images/picture_3.png,2,"[11.733433509789464, 11.733433509789462]",11.733433509789464,11.733433509789462,0,1,1,0.9294434881625944,1.9294434881625944,1.0705565118374056,3.0,1,1.6794434881625944,0,4.0,3.0,1,2,6,0,6,0,0,0,0,0,,,,,,,554.169606083,554.169606083,555.1666802079999,555.8528873750001,556.100045000001,556.100045000001,556.100045000001,557.1669163330007,557.1669163330007,557.1669163330007,557.1669163330007,558.166391875,200005,202,2023-04-11_14h50.37.074,DMS_et_12-36,2022.2.4,None,
60,PRED,12,0.9294434881625944,1,images/picture_2.png,images/picture_1.png,0,"[-11.733433509789466, -11.733433509789462]",-11.733433509789464,-11.733433509789462,images/picture_2.png,1,"[11.733433509789464, 11.733433509789462]",11.733433509789464,11.733433509789462,images/picture_3.png,2,"[-11.733433509789462, 11.733433509789464]",-11.733433509789462,11.733433509789464,0,1,1,0.9294434881625944,1.9294434881625944,1.0705565118374056,3.0,1,1.6794434881625944,0,4.0,3.0,1,2,6,0,6,0,0,1,1,6,,,,,,,558.166391875,558.166391875,559.1669257079993,559.8528675420002,560.0865518330011,560.0865518330011,560.0865518330011,561.1669105420006,561.1669105420006,561.1669105420006,561.1669105420006,562.1664249170008,200005,202,2023-04-11_14h50.37.074,DMS_et_12-36,2022.2.4,None,
56,PRED,12,0.9294434881625944,1,images/picture_2.png,images/picture_1.png,0,"[-11.733433509789462, 11.733433509789464]",-11.733433509789462,11.733433509789464,images/picture_2.png,1,"[11.733433509789464, 11.733433509789462]",11.733433509789464,11.733433509789462,images/picture_3.png,2,"[-11.733433509789466, -11.733433509789462]",-11.733433509789464,-11.733433509789462,0,1,1,0.9294434881625944,1.9294434881625944,1.0705565118374056,3.0,1,1.6794434881625944,0,4.0,3.0,1,2,6,0,6,0,0,2,2,2,,,,,,,562.1664249170008,562.1664249170008,563.1666273749997,563.8524864579995,564.0863221670006,564.0863221670006,564.0863221670006,565.166869875,565.166869875,565.166869875,565.166869875,566.1663082079995,200005,202,2023-04-11_14h50.37.074,DMS_et_12-36,2022.2.4,None,
62,PRED,12,0.9294434881625944,1,images/picture_2.png,images/picture_1.png,0,"[11.733433509789464, 11.733433509789462]",11.733433509789464,11.733433509789462,images/picture_2.png,1,"[-11.733433509789466, -11.733433509789462]",-11.733433509789464,-11.733433509789462,images/picture_3.png,2,"[11.733433509789462, -11.733433509789466]",11.733433509789462,-11.733433509789464,0,1,1,0.9294434881625944,1.9294434881625944,1.0705565118374056,3.0,1,1.6794434881625944,0,4.0,3.0,1,2,6,0,6,0,0,3,3,8,,,,,,,566.1663082079995,566.1663082079995,567.1669113749995,567.852947667001,568.0871339999994,568.0871339999994,568.0871339999994,569.1669619999993,569.1669619999993,569.1669619999993,569.1669619999993,570.1658553329999,200005,202,2023-04-11_14h50.37.074,DMS_et_12-36,2022.2.4,None,
58,PRED,12,0.9294434881625944,1,images/picture_2.png,images/picture_1.png,0,"[11.733433509789464, 11.733433509789462]",11.733433509789464,11.733433509789462,images/picture_2.png,1,"[-11.733433509789462, 11.733433509789464]",-11.733433509789462,11.733433509789464,images/picture_3.png,2,"[-11.733433509789466, -11.733433509789462]",-11.733433509789464,-11.733433509789462,0,1,1,0.9294434881625944,1.9294434881625944,1.0705565118374056,3.0,1,1.6794434881625944,0,4.0,3.0,1,2,6,0,6,0,0,4,4,4,,,,,,,570.1658553329999,570.1658553329999,571.1670765420004,571.8530869170008,572.1002923329997,572.1002923329997,572.1002923329997,573.1857429579995,573.1857429579995,573.1857429579995,573.1666257500001,574.1665032920009,200005,202,2023-04-11_14h50.37.074,DMS_et_12-36,2022.2.4,None,
55,PRED,12,0.9294434881625944,1,images/picture_2.png,images/picture_1.png,0,"[-11.733433509789466, -11.733433509789462]",-11.733433509789464,-11.733433509789462,images/picture_2.png,1,"[-11.733433509789462, 11.733433509789464]",-11.733433509789462,11.733433509789464,images/picture_3.png,2,"[11.733433509789464, 11.733433509789462]",11.733433509789464,11.733433509789462,0,1,1,0.9294434881625944,1.9294434881625944,1.0705565118374056,3.0,1,1.6794434881625944,0,4.0,3.0,1,2,6,0,6,0,0,5,5,1,,,,,,,574.1665032920009,574.1665032920009,575.1669781670007,575.8532014579996,576.0862766249993,576.0862766249993,576.0862766249993,577.166816375,577.166816375,577.166816375,577.166816375,578.1664255830001,200005,202,2023-04-11_14h50.37.074,DMS_et_12-36,2022.2.4,None,
57,PRED,12,0.9294434881625944,1,images/picture_2.png,images/picture_1.png,0,"[-11.733433509789462, 11.733433509789464]",-11.733433509789462,11.733433509789464,images/picture_2.png,1,"[-11.733433509789466, -11.733433509789462]",-11.733433509789464,-11.733433509789462,images/picture_3.png,2,"[11.733433509789462, -11.733433509789466]",11.733433509789462,-11.733433509789464,0,1,1,0.9294434881625944,1.9294434881625944,1.0705565118374056,3.0,1,1.6794434881625944,0,4.0,3.0,1,2,6,0,6,0,0,6,6,3,,,,,,,578.1664255830001,578.1664255830001,579.1669468750006,579.8531780829999,580.0868415830009,580.0868415830009,580.0868415830009,581.1669601249996,581.1669601249996,581.1669601249996,581.1669601249996,582.1664726250001,200005,202,2023-04-11_14h50.37.074,DMS_et_12-36,2022.2.4,None,
59,PRED,12,0.9294434881625944,1,images/picture_2.png,images/picture_1.png,0,"[11.733433509789464, 11.733433509789462]",11.733433509789464,11.733433509789462,images/picture_2.png,1,"[11.733433509789462, -11.733433509789466]",11.733433509789462,-11.733433509789464,images/picture_3.png,2,"[-11.733433509789462, 11.733433509789464]",-11.733433509789462,11.733433509789464,0,1,1,0.9294434881625944,1.9294434881625944,1.0705565118374056,3.0,1,1.6794434881625944,0,4.0,3.0,1,2,6,0,6,0,0,7,7,5,,,,,,,582.1664726250001,582.1664726250001,583.1670076249993,583.8522162919999,584.1001628329996,584.1001628329996,584.1001628329996,585.1863721669997,585.1863721669997,585.1863721669997,585.1669703749994,586.1664139580007,200005,202,2023-04-11_14h50.37.074,DMS_et_12-36,2022.2.4,None,
61,PRED,12,0.9294434881625944,1,images/picture_2.png,images/picture_1.png,0,"[11.733433509789462, -11.733433509789466]",11.733433509789462,-11.733433509789464,images/picture_2.png,1,"[-11.733433509789466, -11.733433509789462]",-11.733433509789464,-11.733433509789462,images/picture_3.png,2,"[11.733433509789464, 11.733433509789462]",11.733433509789464,11.733433509789462,0,1,1,0.9294434881625944,1.9294434881625944,1.0705565118374056,3.0,1,1.6794434881625944,0,4.0,3.0,1,2,6,0,6,0,0,8,8,7,,,,,,,586.1664139580007,586.1664139580007,587.1669415830002,587.853395958,588.0864952920001,588.0864952920001,588.0864952920001,589.1670201249999,589.1670201249999,589.1670201249999,589.1670201249999,590.2447636670004,200005,202,2023-04-11_14h50.37.074,DMS_et_12-36,2022.2.4,None,
,,,,,,,,,,,,,,,,,,,,,,,,,,,,,,,,,,,6,0,6,0,,,,,,,,,590.2447636670004,602.268385667001,,,,,,,,,,,,,200005,202,2023-04-11_14h50.37.074,DMS_et_12-36,2022.2.4,None,
69,UNPRED,12,0.9294434881625944,1,images/picture_2.png,images/picture_1.png,0,"[-11.733433509789462, 11.733433509789464]",-11.733433509789462,11.733433509789464,images/picture_2.png,1,"[11.733433509789464, 11.733433509789462]",11.733433509789464,11.733433509789462,images/picture_3.png,2,"[-11.733433509789466, -11.733433509789462]",-11.733433509789464,-11.733433509789462,0,1,1,0.9294434881625944,1.9294434881625944,1.0705565118374056,3.0,1,1.6794434881625944,0,4.0,3.0,1,2,7,0,7,0,0,0,0,6,,,,,,,602.268385667001,602.268385667001,603.2669895420004,603.9521744169997,604.2000352920004,604.2000352920004,604.2000352920004,605.266943042001,605.266943042001,605.266943042001,605.266943042001,606.2664150830005,200005,202,2023-04-11_14h50.37.074,DMS_et_12-36,2022.2.4,None,
68,UNPRED,12,0.9294434881625944,0,images/picture_1.png,images/picture_1.png,0,"[11.733433509789462, -11.733433509789466]",11.733433509789462,-11.733433509789464,images/picture_2.png,1,"[-11.733433509789466, -11.733433509789462]",-11.733433509789464,-11.733433509789462,images/picture_3.png,2,"[11.733433509789464, 11.733433509789462]",11.733433509789464,11.733433509789462,0,1,1,0.9294434881625944,1.9294434881625944,1.0705565118374056,3.0,1,1.6794434881625944,0,4.0,3.0,1,2,7,0,7,0,0,1,1,5,,,,,,,606.2664150830005,606.2664150830005,607.2671895830008,607.953644833,608.1863560420006,608.1863560420006,608.1863560420006,609.2669340829998,609.2669340829998,609.2669340829998,609.2669340829998,610.2665066669997,200005,202,2023-04-11_14h50.37.074,DMS_et_12-36,2022.2.4,None,
64,UNPRED,12,0.9294434881625944,1,images/picture_2.png,images/picture_1.png,0,"[11.733433509789464, 11.733433509789462]",11.733433509789464,11.733433509789462,images/picture_2.png,1,"[-11.733433509789462, 11.733433509789464]",-11.733433509789462,11.733433509789464,images/picture_3.png,2,"[11.733433509789462, -11.733433509789466]",11.733433509789462,-11.733433509789464,0,1,1,0.9294434881625944,1.9294434881625944,1.0705565118374056,3.0,1,1.6794434881625944,0,4.0,3.0,1,2,7,0,7,0,0,2,2,1,,,,,,,610.2665066669997,610.2665066669997,611.2669278329995,611.9532287500006,612.1869010829996,612.1869010829996,612.1869010829996,613.2670604579998,613.2670604579998,613.2670604579998,613.2670604579998,614.2853781670001,200005,202,2023-04-11_14h50.37.074,DMS_et_12-36,2022.2.4,None,
71,UNPRED,12,0.9294434881625944,2,images/picture_3.png,images/picture_1.png,0,"[-11.733433509789466, -11.733433509789462]",-11.733433509789464,-11.733433509789462,images/picture_2.png,1,"[-11.733433509789462, 11.733433509789464]",-11.733433509789462,11.733433509789464,images/picture_3.png,2,"[11.733433509789462, -11.733433509789466]",11.733433509789462,-11.733433509789464,0,1,1,0.9294434881625944,1.9294434881625944,1.0705565118374056,3.0,1,1.6794434881625944,0,4.0,3.0,1,2,7,0,7,0,0,3,3,8,,,,,,,614.2853781670001,614.2853781670001,615.3004172920009,615.9669997920009,616.1867382500004,616.1867382500004,616.1867382500004,617.266977583,617.266977583,617.266977583,617.266977583,618.2666542919997,200005,202,2023-04-11_14h50.37.074,DMS_et_12-36,2022.2.4,None,
67,UNPRED,12,0.9294434881625944,0,images/picture_1.png,images/picture_1.png,0,"[11.733433509789464, 11.733433509789462]",11.733433509789464,11.733433509789462,images/picture_2.png,1,"[-11.733433509789466, -11.733433509789462]",-11.733433509789464,-11.733433509789462,images/picture_3.png,2,"[11.733433509789462, -11.733433509789466]",11.733433509789462,-11.733433509789464,0,1,1,0.9294434881625944,1.9294434881625944,1.0705565118374056,3.0,1,1.6794434881625944,0,4.0,3.0,1,2,7,0,7,0,0,4,4,4,,,,,,,618.2666542919997,618.2666542919997,619.2671239579995,619.9530797919997,620.1862686670011,620.1862686670011,620.1862686670011,621.266954875,621.266954875,621.266954875,621.266954875,622.2664291670008,200005,202,2023-04-11_14h50.37.074,DMS_et_12-36,2022.2.4,None,
63,UNPRED,12,0.9294434881625944,1,images/picture_2.png,images/picture_1.png,0,"[11.733433509789464, 11.733433509789462]",11.733433509789464,11.733433509789462,images/picture_2.png,1,"[-11.733433509789462, 11.733433509789464]",-11.733433509789462,11.733433509789464,images/picture_3.png,2,"[-11.733433509789466, -11.733433509789462]",-11.733433509789464,-11.733433509789462,0,1,1,0.9294434881625944,1.9294434881625944,1.0705565118374056,3.0,1,1.6794434881625944,0,4.0,3.0,1,2,7,0,7,0,0,5,5,0,,,,,,,622.2664291670008,622.2664291670008,623.2669328749998,623.9534383749997,624.1863337920004,624.1863337920004,624.1863337920004,625.2668144580002,625.2668144580002,625.2668144580002,625.2668144580002,626.2665197919996,200005,202,2023-04-11_14h50.37.074,DMS_et_12-36,2022.2.4,None,
70,UNPRED,12,0.9294434881625944,1,images/picture_2.png,images/picture_1.png,0,"[11.733433509789462, -11.733433509789466]",11.733433509789462,-11.733433509789464,images/picture_2.png,1,"[-11.733433509789462, 11.733433509789464]",-11.733433509789462,11.733433509789464,images/picture_3.png,2,"[-11.733433509789466, -11.733433509789462]",-11.733433509789464,-11.733433509789462,0,1,1,0.9294434881625944,1.9294434881625944,1.0705565118374056,3.0,1,1.6794434881625944,0,4.0,3.0,1,2,7,0,7,0,0,6,6,7,,,,,,,626.2665197919996,626.2665197919996,627.2670504170001,627.9529358750005,628.1866092500004,628.1866092500004,628.1866092500004,629.266985667,629.266985667,629.266985667,629.266985667,630.2865290419995,200005,202,2023-04-11_14h50.37.074,DMS_et_12-36,2022.2.4,None,
66,UNPRED,12,0.9294434881625944,2,images/picture_3.png,images/picture_1.png,0,"[11.733433509789462, -11.733433509789466]",11.733433509789462,-11.733433509789464,images/picture_2.png,1,"[-11.733433509789462, 11.733433509789464]",-11.733433509789462,11.733433509789464,images/picture_3.png,2,"[11.733433509789464, 11.733433509789462]",11.733433509789464,11.733433509789462,0,1,1,0.9294434881625944,1.9294434881625944,1.0705565118374056,3.0,1,1.6794434881625944,0,4.0,3.0,1,2,7,0,7,0,0,7,7,3,,,,,,,630.2865290419995,630.2865290419995,631.3004624999994,631.9669371670007,632.2004941670002,632.2004941670002,632.2004941670002,633.2863579999994,633.2863579999994,633.2863579999994,633.2671290420003,634.2670372920002,200005,202,2023-04-11_14h50.37.074,DMS_et_12-36,2022.2.4,None,
65,UNPRED,12,0.9294434881625944,1,images/picture_2.png,images/picture_1.png,0,"[11.733433509789464, 11.733433509789462]",11.733433509789464,11.733433509789462,images/picture_2.png,1,"[-11.733433509789462, 11.733433509789464]",-11.733433509789462,11.733433509789464,images/picture_3.png,2,"[11.733433509789462, -11.733433509789466]",11.733433509789462,-11.733433509789464,0,1,1,0.9294434881625944,1.9294434881625944,1.0705565118374056,3.0,1,1.6794434881625944,0,4.0,3.0,1,2,7,0,7,0,0,8,8,2,,,,,,,634.2670372920002,634.2670372920002,635.2669330419994,635.953576625001,636.1862401670005,636.1862401670005,636.1862401670005,637.2670087080005,637.2670087080005,637.2670087080005,637.2670087080005,638.35593625,200005,202,2023-04-11_14h50.37.074,DMS_et_12-36,2022.2.4,None,
,,,,,,,,,,,,,,,,,,,,,,,,,,,,,,,,,,,7,0,7,0,,,,,,,,,638.35593625,650.3885756250002,,,,,,,,,,,,,200005,202,2023-04-11_14h50.37.074,DMS_et_12-36,2022.2.4,None,
80,PRED,12,0.9294434881625944,0,images/picture_1.png,images/picture_1.png,0,"[-11.733433509789462, 11.733433509789464]",-11.733433509789462,11.733433509789464,images/picture_2.png,1,"[11.733433509789462, -11.733433509789466]",11.733433509789462,-11.733433509789464,images/picture_3.png,2,"[11.733433509789464, 11.733433509789462]",11.733433509789464,11.733433509789462,0,1,1,0.9294434881625944,1.9294434881625944,1.0705565118374056,3.0,1,1.6794434881625944,0,4.0,3.0,1,2,8,0,8,0,0,0,0,8,,,,,,,650.3885756250002,650.3885756250002,651.4005324579994,652.0672003750005,652.3199262920007,652.3199262920007,652.3199262920007,653.4004288750002,653.4004288750002,653.4004288750002,653.3864961250001,654.399792708,200005,202,2023-04-11_14h50.37.074,DMS_et_12-36,2022.2.4,None,
76,PRED,12,0.9294434881625944,0,images/picture_1.png,images/picture_1.png,0,"[11.733433509789464, 11.733433509789462]",11.733433509789464,11.733433509789462,images/picture_2.png,1,"[11.733433509789462, -11.733433509789466]",11.733433509789462,-11.733433509789464,images/picture_3.png,2,"[-11.733433509789466, -11.733433509789462]",-11.733433509789464,-11.733433509789462,0,1,1,0.9294434881625944,1.9294434881625944,1.0705565118374056,3.0,1,1.6794434881625944,0,4.0,3.0,1,2,8,0,8,0,0,1,1,4,,,,,,,654.399792708,654.399792708,655.4003764579993,656.086247958001,656.333674458001,656.333674458001,656.333674458001,657.4197181670006,657.4197181670006,657.4197181670006,657.4004558329998,658.3998940000001,200005,202,2023-04-11_14h50.37.074,DMS_et_12-36,2022.2.4,None,
79,PRED,12,0.9294434881625944,0,images/picture_1.png,images/picture_1.png,0,"[-11.733433509789466, -11.733433509789462]",-11.733433509789464,-11.733433509789462,images/picture_2.png,1,"[-11.733433509789462, 11.733433509789464]",-11.733433509789462,11.733433509789464,images/picture_3.png,2,"[11.733433509789462, -11.733433509789466]",11.733433509789462,-11.733433509789464,0,1,1,0.9294434881625944,1.9294434881625944,1.0705565118374056,3.0,1,1.6794434881625944,0,4.0,3.0,1,2,8,0,8,0,0,2,2,7,,,,,,,658.3998940000001,658.3998940000001,659.4004367500002,660.086900458,660.33368075,660.33368075,660.33368075,661.4195232080001,661.4195232080001,661.4195232080001,661.4004259579997,662.3998251249996,200005,202,2023-04-11_14h50.37.074,DMS_et_12-36,2022.2.4,None,
75,PRED,12,0.9294434881625944,0,images/picture_1.png,images/picture_1.png,0,"[-11.733433509789466, -11.733433509789462]",-11.733433509789464,-11.733433509789462,images/picture_2.png,1,"[11.733433509789464, 11.733433509789462]",11.733433509789464,11.733433509789462,images/picture_3.png,2,"[11.733433509789462, -11.733433509789466]",11.733433509789462,-11.733433509789464,0,1,1,0.9294434881625944,1.9294434881625944,1.0705565118374056,3.0,1,1.6794434881625944,0,4.0,3.0,1,2,8,0,8,0,0,3,3,3,,,,,,,662.3998251249996,662.3998251249996,663.4004645000005,664.0862387500001,664.333733458001,664.333733458001,664.333733458001,665.4187906669995,665.4187906669995,665.4187906669995,665.4001253749993,666.3999477920006,200005,202,2023-04-11_14h50.37.074,DMS_et_12-36,2022.2.4,None,
77,PRED,12,0.9294434881625944,0,images/picture_1.png,images/picture_1.png,0,"[-11.733433509789462, 11.733433509789464]",-11.733433509789462,11.733433509789464,images/picture_2.png,1,"[11.733433509789464, 11.733433509789462]",11.733433509789464,11.733433509789462,images/picture_3.png,2,"[11.733433509789462, -11.733433509789466]",11.733433509789462,-11.733433509789464,0,1,1,0.9294434881625944,1.9294434881625944,1.0705565118374056,3.0,1,1.6794434881625944,0,4.0,3.0,1,2,8,0,8,0,0,4,4,5,,,,,,,666.3999477920006,666.3999477920006,667.4004099579997,668.0863184579994,668.3336989170002,668.3336989170002,668.3336989170002,669.400425875001,669.400425875001,669.400425875001,669.400425875001,670.3998774169995,200005,202,2023-04-11_14h50.37.074,DMS_et_12-36,2022.2.4,None,
78,PRED,12,0.9294434881625944,0,images/picture_1.png,images/picture_1.png,0,"[-11.733433509789466, -11.733433509789462]",-11.733433509789464,-11.733433509789462,images/picture_2.png,1,"[11.733433509789464, 11.733433509789462]",11.733433509789464,11.733433509789462,images/picture_3.png,2,"[11.733433509789462, -11.733433509789466]",11.733433509789462,-11.733433509789464,0,1,1,0.9294434881625944,1.9294434881625944,1.0705565118374056,3.0,1,1.6794434881625944,0,4.0,3.0,1,2,8,0,8,0,0,5,5,6,,,,,,,670.3998774169995,670.3998774169995,671.4004278329994,672.0863118329999,672.3195555830007,672.3195555830007,672.3195555830007,673.4004063749999,673.4004063749999,673.4004063749999,673.4004063749999,674.400040292001,200005,202,2023-04-11_14h50.37.074,DMS_et_12-36,2022.2.4,None,
73,PRED,12,0.9294434881625944,0,images/picture_1.png,images/picture_1.png,0,"[11.733433509789462, -11.733433509789466]",11.733433509789462,-11.733433509789464,images/picture_2.png,1,"[-11.733433509789466, -11.733433509789462]",-11.733433509789464,-11.733433509789462,images/picture_3.png,2,"[-11.733433509789462, 11.733433509789464]",-11.733433509789462,11.733433509789464,0,1,1,0.9294434881625944,1.9294434881625944,1.0705565118374056,3.0,1,1.6794434881625944,0,4.0,3.0,1,2,8,0,8,0,0,6,6,1,,,,,,,674.400040292001,674.400040292001,675.4002479999999,676.0857218750007,676.3189280829993,676.3189280829993,676.3189280829993,677.4005412919996,677.4005412919996,677.4005412919996,677.4005412919996,678.4001734579997,200005,202,2023-04-11_14h50.37.074,DMS_et_12-36,2022.2.4,None,
74,PRED,12,0.9294434881625944,0,images/picture_1.png,images/picture_1.png,0,"[-11.733433509789462, 11.733433509789464]",-11.733433509789462,11.733433509789464,images/picture_2.png,1,"[11.733433509789464, 11.733433509789462]",11.733433509789464,11.733433509789462,images/picture_3.png,2,"[-11.733433509789466, -11.733433509789462]",-11.733433509789464,-11.733433509789462,0,1,1,0.9294434881625944,1.9294434881625944,1.0705565118374056,3.0,1,1.6794434881625944,0,4.0,3.0,1,2,8,0,8,0,0,7,7,2,,,,,,,678.4001734579997,678.4001734579997,679.4004933329998,680.0862969169993,680.3201902920009,680.3201902920009,680.3201902920009,681.400448542001,681.400448542001,681.400448542001,681.400448542001,682.4001280419998,200005,202,2023-04-11_14h50.37.074,DMS_et_12-36,2022.2.4,None,
72,PRED,12,0.9294434881625944,0,images/picture_1.png,images/picture_1.png,0,"[11.733433509789462, -11.733433509789466]",11.733433509789462,-11.733433509789464,images/picture_2.png,1,"[-11.733433509789466, -11.733433509789462]",-11.733433509789464,-11.733433509789462,images/picture_3.png,2,"[11.733433509789464, 11.733433509789462]",11.733433509789464,11.733433509789462,0,1,1,0.9294434881625944,1.9294434881625944,1.0705565118374056,3.0,1,1.6794434881625944,0,4.0,3.0,1,2,8,0,8,0,0,8,8,0,,,,,,,682.4001280419998,682.4001280419998,683.4004345419999,684.0865087500006,684.320359708001,684.320359708001,684.320359708001,685.4004154579998,685.4004154579998,685.4004154579998,685.4004154579998,686.4791064580004,200005,202,2023-04-11_14h50.37.074,DMS_et_12-36,2022.2.4,None,
,,,,,,,,,,,,,,,,,,,,,,,,,,,,,,,,,,,8,0,8,0,,,,,,,,,686.4791064580004,698.5027360000004,,,,,,,,,,,,,200005,202,2023-04-11_14h50.37.074,DMS_et_12-36,2022.2.4,None,
85,UNPRED,12,0.9294434881625944,0,images/picture_1.png,images/picture_1.png,0,"[11.733433509789462, -11.733433509789466]",11.733433509789462,-11.733433509789464,images/picture_2.png,1,"[-11.733433509789466, -11.733433509789462]",-11.733433509789464,-11.733433509789462,images/picture_3.png,2,"[11.733433509789464, 11.733433509789462]",11.733433509789464,11.733433509789462,0,1,1,0.9294434881625944,1.9294434881625944,1.0705565118374056,3.0,1,1.6794434881625944,0,4.0,3.0,1,2,9,0,9,0,0,0,0,4,,,,,,,698.5027360000004,698.5027360000004,699.5004886669994,700.1864907079998,700.4337016669997,700.4337016669997,700.4337016669997,701.5203040420001,701.5203040420001,701.5203040420001,701.5004282080008,702.4998429170009,200005,202,2023-04-11_14h50.37.074,DMS_et_12-36,2022.2.4,None,
84,UNPRED,12,0.9294434881625944,0,images/picture_1.png,images/picture_1.png,0,"[11.733433509789462, -11.733433509789466]",11.733433509789462,-11.733433509789464,images/picture_2.png,1,"[11.733433509789464, 11.733433509789462]",11.733433509789464,11.733433509789462,images/picture_3.png,2,"[-11.733433509789466, -11.733433509789462]",-11.733433509789464,-11.733433509789462,0,1,1,0.9294434881625944,1.9294434881625944,1.0705565118374056,3.0,1,1.6794434881625944,0,4.0,3.0,1,2,9,0,9,0,0,1,1,3,,,,,,,702.4998429170009,702.4998429170009,703.5004884999998,704.1864705419994,704.419700583001,704.419700583001,704.419700583001,705.5004558750006,705.5004558750006,705.5004558750006,705.5004558750006,706.5002370420007,200005,202,2023-04-11_14h50.37.074,DMS_et_12-36,2022.2.4,None,
89,UNPRED,12,0.9294434881625944,1,images/picture_2.png,images/picture_1.png,0,"[-11.733433509789466, -11.733433509789462]",-11.733433509789464,-11.733433509789462,images/picture_2.png,1,"[11.733433509789462, -11.733433509789466]",11.733433509789462,-11.733433509789464,images/picture_3.png,2,"[11.733433509789464, 11.733433509789462]",11.733433509789464,11.733433509789462,0,1,1,0.9294434881625944,1.9294434881625944,1.0705565118374056,3.0,1,1.6794434881625944,0,4.0,3.0,1,2,9,0,9,0,0,2,2,8,,,,,,,706.5002370420007,706.5002370420007,707.5008369170009,708.1865107920003,708.4204626249993,708.4204626249993,708.4204626249993,709.5004078330003,709.5004078330003,709.5004078330003,709.5004078330003,710.499826792,200005,202,2023-04-11_14h50.37.074,DMS_et_12-36,2022.2.4,None,
81,UNPRED,12,0.9294434881625944,0,images/picture_1.png,images/picture_1.png,0,"[-11.733433509789462, 11.733433509789464]",-11.733433509789462,11.733433509789464,images/picture_2.png,1,"[-11.733433509789466, -11.733433509789462]",-11.733433509789464,-11.733433509789462,images/picture_3.png,2,"[11.733433509789464, 11.733433509789462]",11.733433509789464,11.733433509789462,0,1,1,0.9294434881625944,1.9294434881625944,1.0705565118374056,3.0,1,1.6794434881625944,0,4.0,3.0,1,2,9,0,9,0,0,3,3,0,,,,,,,710.499826792,710.499826792,711.5006645419999,712.1870510419994,712.4196749580005,712.4196749580005,712.4196749580005,713.5004276670006,713.5004276670006,713.5004276670006,713.5004276670006,714.4996480829996,200005,202,2023-04-11_14h50.37.074,DMS_et_12-36,2022.2.4,None,
88,UNPRED,12,0.9294434881625944,1,images/picture_2.png,images/picture_1.png,0,"[11.733433509789464, 11.733433509789462]",11.733433509789464,11.733433509789462,images/picture_2.png,1,"[11.733433509789462, -11.733433509789466]",11.733433509789462,-11.733433509789464,images/picture_3.png,2,"[-11.733433509789462, 11.733433509789464]",-11.733433509789462,11.733433509789464,0,1,1,0.9294434881625944,1.9294434881625944,1.0705565118374056,3.0,1,1.6794434881625944,0,4.0,3.0,1,2,9,0,9,0,0,4,4,7,,,,,,,714.4996480829996,714.4996480829996,715.5004480419993,716.187090292,716.4198009169995,716.4198009169995,716.4198009169995,717.500237667,717.500237667,717.500237667,717.500237667,718.5193454580003,200005,202,2023-04-11_14h50.37.074,DMS_et_12-36,2022.2.4,None,
83,UNPRED,12,0.9294434881625944,2,images/picture_3.png,images/picture_1.png,0,"[-11.733433509789466, -11.733433509789462]",-11.733433509789464,-11.733433509789462,images/picture_2.png,1,"[11.733433509789462, -11.733433509789466]",11.733433509789462,-11.733433509789464,images/picture_3.png,2,"[-11.733433509789462, 11.733433509789464]",-11.733433509789462,11.733433509789464,0,1,1,0.9294434881625944,1.9294434881625944,1.0705565118374056,3.0,1,1.6794434881625944,0,4.0,3.0,1,2,9,0,9,0,0,5,5,2,,,,,,,718.5193454580003,718.5193454580003,719.533899,720.2005373329994,720.4203820000002,720.4203820000002,720.4203820000002,721.5004695419993,721.5004695419993,721.5004695419993,721.5004695419993,722.4995841670006,200005,202,2023-04-11_14h50.37.074,DMS_et_12-36,2022.2.4,None,
86,UNPRED,12,0.9294434881625944,0,images/picture_1.png,images/picture_1.png,0,"[-11.733433509789462, 11.733433509789464]",-11.733433509789462,11.733433509789464,images/picture_2.png,1,"[-11.733433509789466, -11.733433509789462]",-11.733433509789464,-11.733433509789462,images/picture_3.png,2,"[11.733433509789462, -11.733433509789466]",11.733433509789462,-11.733433509789464,0,1,1,0.9294434881625944,1.9294434881625944,1.0705565118374056,3.0,1,1.6794434881625944,0,4.0,3.0,1,2,9,0,9,0,0,6,6,5,,,,,,,722.4995841670006,722.4995841670006,723.5004182499997,724.1862408329998,724.4339186249999,724.4339186249999,724.4339186249999,725.5198175000005,725.5198175000005,725.5198175000005,725.5004276670006,726.4991673330005,200005,202,2023-04-11_14h50.37.074,DMS_et_12-36,2022.2.4,None,
82,UNPRED,12,0.9294434881625944,1,images/picture_2.png,images/picture_1.png,0,"[11.733433509789462, -11.733433509789466]",11.733433509789462,-11.733433509789464,images/picture_2.png,1,"[11.733433509789464, 11.733433509789462]",11.733433509789464,11.733433509789462,images/picture_3.png,2,"[-11.733433509789466, -11.733433509789462]",-11.733433509789464,-11.733433509789462,0,1,1,0.9294434881625944,1.9294434881625944,1.0705565118374056,3.0,1,1.6794434881625944,0,4.0,3.0,1,2,9,0,9,0,0,7,7,1,,,,,,,726.4991673330005,726.4991673330005,727.5001822920003,728.1872112500005,728.4190524580008,728.4190524580008,728.4190524580008,729.5005215420006,729.5005215420006,729.5005215420006,729.5005215420006,730.5191207919997,200005,202,2023-04-11_14h50.37.074,DMS_et_12-36,2022.2.4,None,
87,UNPRED,12,0.9294434881625944,2,images/picture_3.png,images/picture_1.png,0,"[11.733433509789462, -11.733433509789466]",11.733433509789462,-11.733433509789464,images/picture_2.png,1,"[-11.733433509789466, -11.733433509789462]",-11.733433509789464,-11.733433509789462,images/picture_3.png,2,"[-11.733433509789462, 11.733433509789464]",-11.733433509789462,11.733433509789464,0,1,1,0.9294434881625944,1.9294434881625944,1.0705565118374056,3.0,1,1.6794434881625944,0,4.0,3.0,1,2,9,0,9,0,0,8,8,6,,,,,,,730.5191207919997,730.5191207919997,731.5339829580007,732.200421208001,732.4202200830005,732.4202200830005,732.4202200830005,733.500646333001,733.500646333001,733.500646333001,733.500646333001,734.6033887499998,200005,202,2023-04-11_14h50.37.074,DMS_et_12-36,2022.2.4,None,
,,,,,,,,,,,,,,,,,,,,,,,,,,,,,,,,,,,9,0,9,0,,,,,,,,,734.6033887499998,746.6312370420001,,,,,,,,,,,,,200005,202,2023-04-11_14h50.37.074,DMS_et_12-36,2022.2.4,None,
96,PRED,12,0.9294434881625944,2,images/picture_3.png,images/picture_1.png,0,"[-11.733433509789466, -11.733433509789462]",-11.733433509789464,-11.733433509789462,images/picture_2.png,1,"[-11.733433509789462, 11.733433509789464]",-11.733433509789462,11.733433509789464,images/picture_3.png,2,"[11.733433509789464, 11.733433509789462]",11.733433509789464,11.733433509789462,0,1,1,0.9294434881625944,1.9294434881625944,1.0705565118374056,3.0,1,1.6794434881625944,0,4.0,3.0,1,2,10,0,10,0,0,0,0,6,,,,,,,746.6312370420001,746.6312370420001,747.6336386250005,748.3192977500003,748.5528658330004,748.5528658330004,748.5528658330004,749.6338848329997,749.6338848329997,749.6338848329997,749.6197338330003,750.6531977079994,200005,202,2023-04-11_14h50.37.074,DMS_et_12-36,2022.2.4,None,
95,PRED,12,0.9294434881625944,2,images/picture_3.png,images/picture_1.png,0,"[11.733433509789462, -11.733433509789466]",11.733433509789462,-11.733433509789464,images/picture_2.png,1,"[-11.733433509789466, -11.733433509789462]",-11.733433509789464,-11.733433509789462,images/picture_3.png,2,"[11.733433509789464, 11.733433509789462]",11.733433509789464,11.733433509789462,0,1,1,0.9294434881625944,1.9294434881625944,1.0705565118374056,3.0,1,1.6794434881625944,0,4.0,3.0,1,2,10,0,10,0,0,1,1,5,,,,,,,750.6531977079994,750.6531977079994,751.6672084170004,752.3339878749994,752.5534824999995,752.5534824999995,752.5534824999995,753.6337734579993,753.6337734579993,753.6337734579993,753.6337734579993,754.6536841670004,200005,202,2023-04-11_14h50.37.074,DMS_et_12-36,2022.2.4,None,
94,PRED,12,0.9294434881625944,2,images/picture_3.png,images/picture_1.png,0,"[11.733433509789464, 11.733433509789462]",11.733433509789464,11.733433509789462,images/picture_2.png,1,"[-11.733433509789466, -11.733433509789462]",-11.733433509789464,-11.733433509789462,images/picture_3.png,2,"[11.733433509789462, -11.733433509789466]",11.733433509789462,-11.733433509789464,0,1,1,0.9294434881625944,1.9294434881625944,1.0705565118374056,3.0,1,1.6794434881625944,0,4.0,3.0,1,2,10,0,10,0,0,2,2,4,,,,,,,754.6536841670004,754.6536841670004,755.6672140419996,756.3338812500006,756.5534581669999,756.5534581669999,756.5534581669999,757.6336078330005,757.6336078330005,757.6336078330005,757.6336078330005,758.6343274579995,200005,202,2023-04-11_14h50.37.074,DMS_et_12-36,2022.2.4,None,
92,PRED,12,0.9294434881625944,2,images/picture_3.png,images/picture_1.png,0,"[11.733433509789464, 11.733433509789462]",11.733433509789464,11.733433509789462,images/picture_2.png,1,"[-11.733433509789462, 11.733433509789464]",-11.733433509789462,11.733433509789464,images/picture_3.png,2,"[-11.733433509789466, -11.733433509789462]",-11.733433509789464,-11.733433509789462,0,1,1,0.9294434881625944,1.9294434881625944,1.0705565118374056,3.0,1,1.6794434881625944,0,4.0,3.0,1,2,10,0,10,0,0,3,3,2,,,,,,,758.6343274579995,758.6343274579995,759.6339311249994,760.3203937500002,760.5538647920002,760.5538647920002,760.5538647920002,761.6339354169995,761.6339354169995,761.6339354169995,761.6339354169995,762.6525552500007,200005,202,2023-04-11_14h50.37.074,DMS_et_12-36,2022.2.4,None,
97,PRED,12,0.9294434881625944,2,images/picture_3.png,images/picture_1.png,0,"[-11.733433509789462, 11.733433509789464]",-11.733433509789462,11.733433509789464,images/picture_2.png,1,"[-11.733433509789466, -11.733433509789462]",-11.733433509789464,-11.733433509789462,images/picture_3.png,2,"[11.733433509789462, -11.733433509789466]",11.733433509789462,-11.733433509789464,0,1,1,0.9294434881625944,1.9294434881625944,1.0705565118374056,3.0,1,1.6794434881625944,0,4.0,3.0,1,2,10,0,10,0,0,4,4,7,,,,,,,762.6525552500007,762.6525552500007,763.6672351670004,764.3339653750008,764.5533244170001,764.5533244170001,764.5533244170001,765.6339076250006,765.6339076250006,765.6339076250006,765.6339076250006,766.6524606670009,200005,202,2023-04-11_14h50.37.074,DMS_et_12-36,2022.2.4,None,
98,PRED,12,0.9294434881625944,2,images/picture_3.png,images/picture_1.png,0,"[11.733433509789462, -11.733433509789466]",11.733433509789462,-11.733433509789464,images/picture_2.png,1,"[-11.733433509789466, -11.733433509789462]",-11.733433509789464,-11.733433509789462,images/picture_3.png,2,"[11.733433509789464, 11.733433509789462]",11.733433509789464,11.733433509789462,0,1,1,0.9294434881625944,1.9294434881625944,1.0705565118374056,3.0,1,1.6794434881625944,0,4.0,3.0,1,2,10,0,10,0,0,5,5,8,,,,,,,766.6524606670009,766.6524606670009,767.667196542001,768.3336514170005,768.5523375829998,768.5523375829998,768.5523375829998,769.6339684579998,769.6339684579998,769.6339684579998,769.6339684579998,770.6532837920004,200005,202,2023-04-11_14h50.37.074,DMS_et_12-36,2022.2.4,None,
91,PRED,12,0.9294434881625944,2,images/picture_3.png,images/picture_1.png,0,"[-11.733433509789462, 11.733433509789464]",-11.733433509789462,11.733433509789464,images/picture_2.png,1,"[11.733433509789464, 11.733433509789462]",11.733433509789464,11.733433509789462,images/picture_3.png,2,"[11.733433509789462, -11.733433509789466]",11.733433509789462,-11.733433509789464,0,1,1,0.9294434881625944,1.9294434881625944,1.0705565118374056,3.0,1,1.6794434881625944,0,4.0,3.0,1,2,10,0,10,0,0,6,6,1,,,,,,,770.6532837920004,770.6532837920004,771.6671897920005,772.3340112080004,772.5532473750009,772.5532473750009,772.5532473750009,773.6339255000003,773.6339255000003,773.6339255000003,773.6339255000003,774.6532326249999,200005,202,2023-04-11_14h50.37.074,DMS_et_12-36,2022.2.4,None,
93,PRED,12,0.9294434881625944,2,images/picture_3.png,images/picture_1.png,0,"[11.733433509789464, 11.733433509789462]",11.733433509789464,11.733433509789462,images/picture_2.png,1,"[11.733433509789462, -11.733433509789466]",11.733433509789462,-11.733433509789464,images/picture_3.png,2,"[-11.733433509789462, 11.733433509789464]",-11.733433509789462,11.733433509789464,0,1,1,0.9294434881625944,1.9294434881625944,1.0705565118374056,3.0,1,1.6794434881625944,0,4.0,3.0,1,2,10,0,10,0,0,7,7,3,,,,,,,774.6532326249999,774.6532326249999,775.6671622920003,776.3338796250009,776.5672047080006,776.5672047080006,776.5672047080006,777.6533507919994,777.6533507919994,777.6533507919994,777.6339884999998,778.6341224999996,200005,202,2023-04-11_14h50.37.074,DMS_et_12-36,2022.2.4,None,
90,PRED,12,0.9294434881625944,2,images/picture_3.png,images/picture_1.png,0,"[11.733433509789462, -11.733433509789466]",11.733433509789462,-11.733433509789464,images/picture_2.png,1,"[11.733433509789464, 11.733433509789462]",11.733433509789464,11.733433509789462,images/picture_3.png,2,"[-11.733433509789462, 11.733433509789464]",-11.733433509789462,11.733433509789464,0,1,1,0.9294434881625944,1.9294434881625944,1.0705565118374056,3.0,1,1.6794434881625944,0,4.0,3.0,1,2,10,0,10,0,0,8,8,0,,,,,,,778.6341224999996,778.6341224999996,779.6339264580001,780.3198395830004,780.5534149579998,780.5534149579998,780.5534149579998,781.633942583001,781.633942583001,781.633942583001,781.633942583001,782.7480141249998,200005,202,2023-04-11_14h50.37.074,DMS_et_12-36,2022.2.4,None,
,,,,,,,,,,,,,,,,,,,,,,,,,,,,,,,,,,,10,0,10,0,,,,,,,,,782.7480141249998,794.7715517920005,,,,,,,,,,,,,200005,202,2023-04-11_14h50.37.074,DMS_et_12-36,2022.2.4,None,
101,UNPRED,12,0.9294434881625944,1,images/picture_2.png,images/picture_1.png,0,"[-11.733433509789466, -11.733433509789462]",-11.733433509789464,-11.733433509789462,images/picture_2.png,1,"[11.733433509789462, -11.733433509789466]",11.733433509789462,-11.733433509789464,images/picture_3.png,2,"[-11.733433509789462, 11.733433509789464]",-11.733433509789462,11.733433509789464,0,1,1,0.9294434881625944,1.9294434881625944,1.0705565118374056,3.0,1,1.6794434881625944,0,4.0,3.0,1,2,11,0,11,0,0,0,0,2,,,,,,,794.7715517920005,794.7715517920005,795.7666534580003,796.4532330830007,796.7004599579996,796.7004599579996,796.7004599579996,797.7868449580001,797.7868449580001,797.7868449580001,797.7672532500001,798.7669852079998,200005,202,2023-04-11_14h50.37.074,DMS_et_12-36,2022.2.4,None,
105,UNPRED,12,0.9294434881625944,0,images/picture_1.png,images/picture_1.png,0,"[11.733433509789462, -11.733433509789466]",11.733433509789462,-11.733433509789464,images/picture_2.png,1,"[11.733433509789464, 11.733433509789462]",11.733433509789464,11.733433509789462,images/picture_3.png,2,"[-11.733433509789462, 11.733433509789464]",-11.733433509789462,11.733433509789464,0,1,1,0.9294434881625944,1.9294434881625944,1.0705565118374056,3.0,1,1.6794434881625944,0,4.0,3.0,1,2,11,0,11,0,0,1,1,6,,,,,,,798.7669852079998,798.7669852079998,799.7671321670005,800.453233708,800.6864356250007,800.6864356250007,800.6864356250007,801.7672238329997,801.7672238329997,801.7672238329997,801.7672238329997,802.7664004580001,200005,202,2023-04-11_14h50.37.074,DMS_et_12-36,2022.2.4,None,
102,UNPRED,12,0.9294434881625944,1,images/picture_2.png,images/picture_1.png,0,"[-11.733433509789462, 11.733433509789464]",-11.733433509789462,11.733433509789464,images/picture_2.png,1,"[11.733433509789462, -11.733433509789466]",11.733433509789462,-11.733433509789464,images/picture_3.png,2,"[-11.733433509789466, -11.733433509789462]",-11.733433509789464,-11.733433509789462,0,1,1,0.9294434881625944,1.9294434881625944,1.0705565118374056,3.0,1,1.6794434881625944,0,4.0,3.0,1,2,11,0,11,0,0,2,2,3,,,,,,,802.7664004580001,802.7664004580001,803.7672020000009,804.4534884999994,804.7006635420003,804.7006635420003,804.7006635420003,805.7673442079995,805.7673442079995,805.7673442079995,805.7673442079995,806.7868474170009,200005,202,2023-04-11_14h50.37.074,DMS_et_12-36,2022.2.4,None,
104,UNPRED,12,0.9294434881625944,2,images/picture_3.png,images/picture_1.png,0,"[11.733433509789462, -11.733433509789466]",11.733433509789462,-11.733433509789464,images/picture_2.png,1,"[-11.733433509789466, -11.733433509789462]",-11.733433509789464,-11.733433509789462,images/picture_3.png,2,"[-11.733433509789462, 11.733433509789464]",-11.733433509789462,11.733433509789464,0,1,1,0.9294434881625944,1.9294434881625944,1.0705565118374056,3.0,1,1.6794434881625944,0,4.0,3.0,1,2,11,0,11,0,0,3,3,5,,,,,,,806.7868474170009,806.7868474170009,807.8006732920003,808.4672389999996,808.6865255419998,808.6865255419998,808.6865255419998,809.7669983329997,809.7669983329997,809.7669983329997,809.7669983329997,810.7681460420008,200005,202,2023-04-11_14h50.37.074,DMS_et_12-36,2022.2.4,None,
107,UNPRED,12,0.9294434881625944,1,images/picture_2.png,images/picture_1.png,0,"[-11.733433509789462, 11.733433509789464]",-11.733433509789462,11.733433509789464,images/picture_2.png,1,"[11.733433509789462, -11.733433509789466]",11.733433509789462,-11.733433509789464,images/picture_3.png,2,"[-11.733433509789466, -11.733433509789462]",-11.733433509789464,-11.733433509789462,0,1,1,0.9294434881625944,1.9294434881625944,1.0705565118374056,3.0,1,1.6794434881625944,0,4.0,3.0,1,2,11,0,11,0,0,4,4,8,,,,,,,810.7681460420008,810.7681460420008,811.7672402080007,812.4539114170002,812.7006562080005,812.7006562080005,812.7006562080005,813.7672483749993,813.7672483749993,813.7672483749993,813.7672483749993,814.7862740420005,200005,202,2023-04-11_14h50.37.074,DMS_et_12-36,2022.2.4,None,
100,UNPRED,12,0.9294434881625944,2,images/picture_3.png,images/picture_1.png,0,"[-11.733433509789462, 11.733433509789464]",-11.733433509789462,11.733433509789464,images/picture_2.png,1,"[-11.733433509789466, -11.733433509789462]",-11.733433509789464,-11.733433509789462,images/picture_3.png,2,"[11.733433509789462, -11.733433509789466]",11.733433509789462,-11.733433509789464,0,1,1,0.9294434881625944,1.9294434881625944,1.0705565118374056,3.0,1,1.6794434881625944,0,4.0,3.0,1,2,11,0,11,0,0,5,5,1,,,,,,,814.7862740420005,814.7862740420005,815.8007057499999,816.4674410419993,816.6865398749997,816.6865398749997,816.6865398749997,817.7673051250003,817.7673051250003,817.7673051250003,817.7673051250003,818.7661723330002,200005,202,2023-04-11_14h50.37.074,DMS_et_12-36,2022.2.4,None,
99,UNPRED,12,0.9294434881625944,1,images/picture_2.png,images/picture_1.png,0,"[11.733433509789464, 11.733433509789462]",11.733433509789464,11.733433509789462,images/picture_2.png,1,"[-11.733433509789462, 11.733433509789464]",-11.733433509789462,11.733433509789464,images/picture_3.png,2,"[-11.733433509789466, -11.733433509789462]",-11.733433509789464,-11.733433509789462,0,1,1,0.9294434881625944,1.9294434881625944,1.0705565118374056,3.0,1,1.6794434881625944,0,4.0,3.0,1,2,11,0,11,0,0,6,6,0,,,,,,,818.7661723330002,818.7661723330002,819.7669192079993,820.4532349580004,820.6866608330001,820.6866608330001,820.6866608330001,821.767439917001,821.767439917001,821.767439917001,821.767439917001,822.7667004579998,200005,202,2023-04-11_14h50.37.074,DMS_et_12-36,2022.2.4,None,
106,UNPRED,12,0.9294434881625944,1,images/picture_2.png,images/picture_1.png,0,"[-11.733433509789462, 11.733433509789464]",-11.733433509789462,11.733433509789464,images/picture_2.png,1,"[-11.733433509789466, -11.733433509789462]",-11.733433509789464,-11.733433509789462,images/picture_3.png,2,"[11.733433509789464, 11.733433509789462]",11.733433509789464,11.733433509789462,0,1,1,0.9294434881625944,1.9294434881625944,1.0705565118374056,3.0,1,1.6794434881625944,0,4.0,3.0,1,2,11,0,11,0,0,7,7,7,,,,,,,822.7667004579998,822.7667004579998,823.7672342080004,824.4538930420003,824.6865352080004,824.6865352080004,824.6865352080004,825.7673789170003,825.7673789170003,825.7673789170003,825.7673789170003,826.7667314999999,200005,202,2023-04-11_14h50.37.074,DMS_et_12-36,2022.2.4,None,
103,UNPRED,12,0.9294434881625944,1,images/picture_2.png,images/picture_1.png,0,"[11.733433509789464, 11.733433509789462]",11.733433509789464,11.733433509789462,images/picture_2.png,1,"[-11.733433509789462, 11.733433509789464]",-11.733433509789462,11.733433509789464,images/picture_3.png,2,"[11.733433509789462, -11.733433509789466]",11.733433509789462,-11.733433509789464,0,1,1,0.9294434881625944,1.9294434881625944,1.0705565118374056,3.0,1,1.6794434881625944,0,4.0,3.0,1,2,11,0,11,0,0,8,8,4,,,,,,,826.7667314999999,826.7667314999999,827.7675194170006,828.453825083001,828.6866329170007,828.6866329170007,828.6866329170007,829.766996792001,829.766996792001,829.766996792001,829.766996792001,830.9402507499999,200005,202,2023-04-11_14h50.37.074,DMS_et_12-36,2022.2.4,None,
,,,,,,,,,,,,,,,,,,,,,,,,,,,,,,,,,,,11,0,11,0,,,,,,,,,830.9402507499999,843.0758626250008,,,,,,,,,,,,,200005,202,2023-04-11_14h50.37.074,DMS_et_12-36,2022.2.4,None,
,,,,,,,,,,,,,,,,,,,,,,,,,,,,,,,,,,,,,,,,,,,,,,,843.0758626250008,855.6091212080009,,,,,,,,,,,,,,,,,,,
