trial_count,blockType,blockNum,delay_time,stimImage_i,stimImage,responseImage1,responseImage1_i,responseImage1_pos,responseImage1_X,responseImage1_Y,responseImage2,responseImage2_i,responseImage2_pos,responseImage2_X,responseImage2_Y,responseImage3,responseImage3_i,responseImage3_pos,responseImage3_X,responseImage3_Y,cue_onset,cue_dur,delay_onset,delay_dur,resp_onset,resp_dur,rest_onset,rest_dur,circle_dur,circle_onset,blocks.thisRepN,blocks.thisTrialN,blocks.thisN,blocks.thisIndex,trials.thisRepN,trials.thisTrialN,trials.thisN,trials.thisIndex,key_resp.started,text.started,key_resp.keys,key_resp.rt,text_2.started,text_2.stopped,etRecord.started,sample.started,Delay.started,sample.stopped,Delay.stopped,Response_1.started,Response_2.started,Response_3.started,polygon.started,Response_1.stopped,Response_2.stopped,Response_3.stopped,etRecord.stopped,polygon.stopped,participant,session,date,expName,psychopyVersion,frameRate,
,,,,,,,,,,,,,,,,,,,,,,,,,,,,,,,,,,,,,,,18.12998745799996,18.12998745799996,t,48.7233602500055,,,,,,,,,,,,,,,,,200002,205,2023-03-21_16h19.06.375,DMS_BEST_eyetracking_DAN_base_12-36_looped_10minWORKING,2022.2.4,None,
3,PRED,12,0.6630405882192234,1,images/picture_2.png,images/picture_1.png,0,"[-11.733433509789466, -11.733433509789462]",-11.733433509789464,-11.733433509789462,images/picture_2.png,1,"[11.733433509789462, -11.733433509789466]",11.733433509789462,-11.733433509789464,images/picture_3.png,2,"[-11.733433509789462, 11.733433509789464]",-11.733433509789462,11.733433509789464,0,1,1,0.6630405882192234,1.6630405882192234,1.3369594117807766,3,1,1.4130405882192234,0,0,0,0,0,0,0,0,3,,,,,66.87589050002862,78.91492912499234,,,,,,,,,,,,,,,200002,205,2023-03-21_16h19.06.375,DMS_BEST_eyetracking_DAN_base_12-36_looped_10minWORKING,2022.2.4,None,
3,PRED,12,0.6630405882192234,1,images/picture_2.png,images/picture_1.png,0,"[-11.733433509789466, -11.733433509789462]",-11.733433509789464,-11.733433509789462,images/picture_2.png,1,"[11.733433509789462, -11.733433509789466]",11.733433509789462,-11.733433509789464,images/picture_3.png,2,"[-11.733433509789462, 11.733433509789464]",-11.733433509789462,11.733433509789464,0,1,1,0.6630405882192234,1.6630405882192234,1.3369594117807766,3,1,1.4130405882192234,0,0,0,0,0,0,0,0,3,,,,,,,0.005780500010587275,78.91492912499234,78.91492912499234,79.92403191595804,80.34260304097552,80.57653991598636,80.57653991598636,80.57653991598636,81.90976041601971,81.9238567079883,81.9238567079883,81.9238567079883,4.011078165960498,82.94358054094482,200002,205,2023-03-21_16h19.06.375,DMS_BEST_eyetracking_DAN_base_12-36_looped_10minWORKING,2022.2.4,None,
0,PRED,12,0.7053168568617854,1,images/picture_2.png,images/picture_1.png,0,"[-11.733433509789462, 11.733433509789464]",-11.733433509789462,11.733433509789464,images/picture_2.png,1,"[-11.733433509789466, -11.733433509789462]",-11.733433509789464,-11.733433509789462,images/picture_3.png,2,"[11.733433509789462, -11.733433509789466]",11.733433509789462,-11.733433509789464,0,1,1,0.7053168568617854,1.7053168568617854,1.2946831431382146,3,1,1.4553168568617854,0,0,0,0,0,0,1,1,0,,,,,,,,,,,,,,,,,,,,,200002,205,2023-03-21_16h19.06.375,DMS_BEST_eyetracking_DAN_base_12-36_looped_10minWORKING,2022.2.4,None,
0,PRED,12,0.7053168568617854,1,images/picture_2.png,images/picture_1.png,0,"[-11.733433509789462, 11.733433509789464]",-11.733433509789462,11.733433509789464,images/picture_2.png,1,"[-11.733433509789466, -11.733433509789462]",-11.733433509789464,-11.733433509789462,images/picture_3.png,2,"[11.733433509789462, -11.733433509789466]",11.733433509789462,-11.733433509789464,0,1,1,0.7053168568617854,1.7053168568617854,1.2946831431382146,3,1,1.4553168568617854,0,0,0,0,0,0,1,1,0,,,,,,,0.004905042005702853,82.94358054094482,82.94358054094482,83.95734750002157,84.40901195805054,84.62357579101808,84.62357579101808,84.62357579101808,85.92352454096545,85.92352454096545,85.92352454096545,85.92352454096545,4.030075625050813,86.92409608303569,200002,205,2023-03-21_16h19.06.375,DMS_BEST_eyetracking_DAN_base_12-36_looped_10minWORKING,2022.2.4,None,
5,PRED,12,0.515828373466909,1,images/picture_2.png,images/picture_1.png,0,"[11.733433509789462, -11.733433509789466]",11.733433509789462,-11.733433509789464,images/picture_2.png,1,"[-11.733433509789466, -11.733433509789462]",-11.733433509789464,-11.733433509789462,images/picture_3.png,2,"[-11.733433509789462, 11.733433509789464]",-11.733433509789462,11.733433509789464,0,1,1,0.515828373466909,1.5158283734669091,1.4841716265330909,3,1,1.2658283734669091,0,0,0,0,0,0,2,2,5,,,,,,,,,,,,,,,,,,,,,200002,205,2023-03-21_16h19.06.375,DMS_BEST_eyetracking_DAN_base_12-36_looped_10minWORKING,2022.2.4,None,
5,PRED,12,0.515828373466909,1,images/picture_2.png,images/picture_1.png,0,"[11.733433509789462, -11.733433509789466]",11.733433509789462,-11.733433509789464,images/picture_2.png,1,"[-11.733433509789466, -11.733433509789462]",-11.733433509789464,-11.733433509789462,images/picture_3.png,2,"[-11.733433509789462, 11.733433509789464]",-11.733433509789462,11.733433509789464,0,1,1,0.515828373466909,1.5158283734669091,1.4841716265330909,3,1,1.2658283734669091,0,0,0,0,0,0,2,2,5,,,,,,,0.005032791988924146,86.9764807500178,86.9764807500178,87.990489791031,88.25764062500093,88.47675229096785,88.47675229096785,88.47675229096785,89.95722466602456,89.95722466602456,89.95722466602456,89.95722466602456,4.030005209031515,90.95727558294311,200002,205,2023-03-21_16h19.06.375,DMS_BEST_eyetracking_DAN_base_12-36_looped_10minWORKING,2022.2.4,None,
2,PRED,12,1.1943643490648084,1,images/picture_2.png,images/picture_1.png,0,"[-11.733433509789462, 11.733433509789464]",-11.733433509789462,11.733433509789464,images/picture_2.png,1,"[11.733433509789462, -11.733433509789466]",11.733433509789462,-11.733433509789464,images/picture_3.png,2,"[-11.733433509789466, -11.733433509789462]",-11.733433509789464,-11.733433509789462,0,1,1,1.1943643490648084,2.1943643490648084,0.8056356509351916,3,1,1.9443643490648084,0,0,0,0,0,0,3,3,2,,,,,,,,,,,,,,,,,,,,,200002,205,2023-03-21_16h19.06.375,DMS_BEST_eyetracking_DAN_base_12-36_looped_10minWORKING,2022.2.4,None,
2,PRED,12,1.1943643490648084,1,images/picture_2.png,images/picture_1.png,0,"[-11.733433509789462, 11.733433509789464]",-11.733433509789462,11.733433509789464,images/picture_2.png,1,"[11.733433509789462, -11.733433509789466]",11.733433509789462,-11.733433509789464,images/picture_3.png,2,"[-11.733433509789466, -11.733433509789462]",-11.733433509789464,-11.733433509789462,0,1,1,1.1943643490648084,2.1943643490648084,0.8056356509351916,3,1,1.9443643490648084,0,0,0,0,0,0,3,3,2,,,,,,,0.0047636249801144,91.00968400004786,91.00968400004786,92.0237427080283,92.95760745799635,93.17678487498779,93.17678487498779,93.17678487498779,93.9908474580152,93.9908474580152,93.9908474580152,93.9908474580152,4.030049416935071,94.99058054096531,200002,205,2023-03-21_16h19.06.375,DMS_BEST_eyetracking_DAN_base_12-36_looped_10minWORKING,2022.2.4,None,
8,PRED,12,0.6349456167398363,1,images/picture_2.png,images/picture_1.png,0,"[-11.733433509789462, 11.733433509789464]",-11.733433509789462,11.733433509789464,images/picture_2.png,1,"[11.733433509789462, -11.733433509789466]",11.733433509789462,-11.733433509789464,images/picture_3.png,2,"[-11.733433509789466, -11.733433509789462]",-11.733433509789464,-11.733433509789462,0,1,1,0.6349456167398363,1.6349456167398362,1.3650543832601638,3,1,1.3849456167398362,0,0,0,0,0,0,4,4,8,,,,,,,,,,,,,,,,,,,,,200002,205,2023-03-21_16h19.06.375,DMS_BEST_eyetracking_DAN_base_12-36_looped_10minWORKING,2022.2.4,None,
8,PRED,12,0.6349456167398363,1,images/picture_2.png,images/picture_1.png,0,"[-11.733433509789462, 11.733433509789464]",-11.733433509789462,11.733433509789464,images/picture_2.png,1,"[11.733433509789462, -11.733433509789466]",11.733433509789462,-11.733433509789464,images/picture_3.png,2,"[-11.733433509789466, -11.733433509789462]",-11.733433509789464,-11.733433509789462,0,1,1,0.6349456167398363,1.6349456167398362,1.3650543832601638,3,1,1.3849456167398362,0,0,0,0,0,0,4,4,8,,,,,,,0.001961292000487447,95.02348774997517,95.02348774997517,96.02427616599016,96.4099454160314,96.65739316598047,96.65739316598047,96.65739316598047,98.02421354094986,98.02421354094986,98.02421354094986,98.02421354094986,3.9982399999862537,99.04388533299789,200002,205,2023-03-21_16h19.06.375,DMS_BEST_eyetracking_DAN_base_12-36_looped_10minWORKING,2022.2.4,None,
6,PRED,12,0.7509384870748372,1,images/picture_2.png,images/picture_1.png,0,"[11.733433509789462, -11.733433509789466]",11.733433509789462,-11.733433509789464,images/picture_2.png,1,"[11.733433509789464, 11.733433509789462]",11.733433509789464,11.733433509789462,images/picture_3.png,2,"[-11.733433509789462, 11.733433509789464]",-11.733433509789462,11.733433509789464,0,1,1,0.7509384870748372,1.7509384870748372,1.2490615129251628,3,1,1.5009384870748372,0,0,0,0,0,0,5,5,6,,,,,,,,,,,,,,,,,,,,,200002,205,2023-03-21_16h19.06.375,DMS_BEST_eyetracking_DAN_base_12-36_looped_10minWORKING,2022.2.4,None,
6,PRED,12,0.7509384870748372,1,images/picture_2.png,images/picture_1.png,0,"[11.733433509789462, -11.733433509789466]",11.733433509789462,-11.733433509789464,images/picture_2.png,1,"[11.733433509789464, 11.733433509789462]",11.733433509789464,11.733433509789462,images/picture_3.png,2,"[-11.733433509789462, 11.733433509789464]",-11.733433509789462,11.733433509789464,0,1,1,0.7509384870748372,1.7509384870748372,1.2490615129251628,3,1,1.5009384870748372,0,0,0,0,0,0,5,5,6,,,,,,,0.004774541012011468,99.04388533299789,99.04388533299789,100.05758508294821,100.55752970802132,100.7767604580149,100.7767604580149,100.7767604580149,102.02400900004432,102.02400900004432,102.02400900004432,102.02400900004432,4.029885791009292,103.02425362495705,200002,205,2023-03-21_16h19.06.375,DMS_BEST_eyetracking_DAN_base_12-36_looped_10minWORKING,2022.2.4,None,
4,PRED,12,1.0268478023394314,1,images/picture_2.png,images/picture_1.png,0,"[-11.733433509789462, 11.733433509789464]",-11.733433509789462,11.733433509789464,images/picture_2.png,1,"[11.733433509789464, 11.733433509789462]",11.733433509789464,11.733433509789462,images/picture_3.png,2,"[-11.733433509789466, -11.733433509789462]",-11.733433509789464,-11.733433509789462,0,1,1,1.0268478023394314,2.0268478023394314,0.9731521976605686,3,1,1.7768478023394314,0,0,0,0,0,0,6,6,4,,,,,,,,,,,,,,,,,,,,,200002,205,2023-03-21_16h19.06.375,DMS_BEST_eyetracking_DAN_base_12-36_looped_10minWORKING,2022.2.4,None,
4,PRED,12,1.0268478023394314,1,images/picture_2.png,images/picture_1.png,0,"[-11.733433509789462, 11.733433509789464]",-11.733433509789462,11.733433509789464,images/picture_2.png,1,"[11.733433509789464, 11.733433509789462]",11.733433509789464,11.733433509789462,images/picture_3.png,2,"[-11.733433509789466, -11.733433509789462]",-11.733433509789464,-11.733433509789462,0,1,1,1.0268478023394314,2.0268478023394314,0.9731521976605686,3,1,1.7768478023394314,0,0,0,0,0,0,6,6,4,,,,,,,0.004819583031348884,103.07695304101799,103.07695304101799,104.09087608300615,104.85715974995401,105.0759997080313,105.0759997080313,105.0759997080313,106.05755616596434,106.05755616596434,106.05755616596434,106.05755616596434,4.0303313749609515,107.05757241602987,200002,205,2023-03-21_16h19.06.375,DMS_BEST_eyetracking_DAN_base_12-36_looped_10minWORKING,2022.2.4,None,
7,PRED,12,0.9958122263501366,1,images/picture_2.png,images/picture_1.png,0,"[-11.733433509789466, -11.733433509789462]",-11.733433509789464,-11.733433509789462,images/picture_2.png,1,"[11.733433509789462, -11.733433509789466]",11.733433509789462,-11.733433509789464,images/picture_3.png,2,"[-11.733433509789462, 11.733433509789464]",-11.733433509789462,11.733433509789464,0,1,1,0.9958122263501366,1.9958122263501368,1.0041877736498634,3,1,1.7458122263501366,0,0,0,0,0,0,7,7,7,,,,,,,,,,,,,,,,,,,,,200002,205,2023-03-21_16h19.06.375,DMS_BEST_eyetracking_DAN_base_12-36_looped_10minWORKING,2022.2.4,None,
7,PRED,12,0.9958122263501366,1,images/picture_2.png,images/picture_1.png,0,"[-11.733433509789466, -11.733433509789462]",-11.733433509789464,-11.733433509789462,images/picture_2.png,1,"[11.733433509789462, -11.733433509789466]",11.733433509789462,-11.733433509789464,images/picture_3.png,2,"[-11.733433509789462, 11.733433509789464]",-11.733433509789462,11.733433509789464,0,1,1,0.9958122263501366,1.9958122263501368,1.0041877736498634,3,1,1.7458122263501366,0,0,0,0,0,0,7,7,7,,,,,,,0.00486458302475512,107.11042516597081,107.11042516597081,108.1240214999998,108.85726545797661,109.09057270805351,109.09057270805351,109.09057270805351,110.09085208293982,110.10989750002045,110.10989750002045,110.10989750002045,4.0295794159173965,111.09083270805422,200002,205,2023-03-21_16h19.06.375,DMS_BEST_eyetracking_DAN_base_12-36_looped_10minWORKING,2022.2.4,None,
1,PRED,12,0.6436884463645317,1,images/picture_2.png,images/picture_1.png,0,"[11.733433509789462, -11.733433509789466]",11.733433509789462,-11.733433509789464,images/picture_2.png,1,"[-11.733433509789462, 11.733433509789464]",-11.733433509789462,11.733433509789464,images/picture_3.png,2,"[11.733433509789464, 11.733433509789462]",11.733433509789464,11.733433509789462,0,1,1,0.6436884463645317,1.6436884463645316,1.3563115536354684,3,1,1.3936884463645316,0,0,0,0,0,0,8,8,1,,,,,,,,,,,,,,,,,,,,,200002,205,2023-03-21_16h19.06.375,DMS_BEST_eyetracking_DAN_base_12-36_looped_10minWORKING,2022.2.4,None,
1,PRED,12,0.6436884463645317,1,images/picture_2.png,images/picture_1.png,0,"[11.733433509789462, -11.733433509789466]",11.733433509789462,-11.733433509789464,images/picture_2.png,1,"[-11.733433509789462, 11.733433509789464]",-11.733433509789462,11.733433509789464,images/picture_3.png,2,"[11.733433509789464, 11.733433509789462]",11.733433509789464,11.733433509789462,0,1,1,0.6436884463645317,1.6436884463645316,1.3563115536354684,3,1,1.3936884463645316,0,0,0,0,0,0,8,8,1,,,,,,,0.0048465830041095614,111.14340749999974,111.14340749999974,112.15768375003245,112.54334212501999,112.75753895798698,112.75753895798698,112.75753895798698,114.12435095803812,114.12435095803812,114.12435095803812,114.12435095803812,4.029644166934304,115.1239104999695,200002,205,2023-03-21_16h19.06.375,DMS_BEST_eyetracking_DAN_base_12-36_looped_10minWORKING,2022.2.4,None,
,,,,,,,,,,,,,,,,,,,,,,,,,,,,,,,0,0,0,0,,,,,,,,,115.17555158294272,127.21062725002412,,,,,,,,,,,,,,,200002,205,2023-03-21_16h19.06.375,DMS_BEST_eyetracking_DAN_base_12-36_looped_10minWORKING,2022.2.4,None,
17,UNPRED,12,0.8909724196702975,0,images/picture_1.png,images/picture_1.png,0,"[11.733433509789464, 11.733433509789462]",11.733433509789464,11.733433509789462,images/picture_2.png,1,"[11.733433509789462, -11.733433509789466]",11.733433509789462,-11.733433509789464,images/picture_3.png,2,"[-11.733433509789466, -11.733433509789462]",-11.733433509789464,-11.733433509789462,0,1,1,0.8909724196702975,1.8909724196702973,1.1090275803297025,3,1,1.6409724196702975,0,1,0,1,0,0,0,0,8,,,,,,,,,,,,,,,,,,,,,200002,205,2023-03-21_16h19.06.375,DMS_BEST_eyetracking_DAN_base_12-36_looped_10minWORKING,2022.2.4,None,
17,UNPRED,12,0.8909724196702975,0,images/picture_1.png,images/picture_1.png,0,"[11.733433509789464, 11.733433509789462]",11.733433509789464,11.733433509789462,images/picture_2.png,1,"[11.733433509789462, -11.733433509789466]",11.733433509789462,-11.733433509789464,images/picture_3.png,2,"[-11.733433509789466, -11.733433509789462]",-11.733433509789464,-11.733433509789462,0,1,1,0.8909724196702975,1.8909724196702973,1.1090275803297025,3,1,1.6409724196702975,0,1,0,1,0,0,0,0,8,,,,,,,0.0039579999865964055,127.21062725002412,127.21062725002412,128.2242302079685,128.85750554094557,129.09058650000952,129.09058650000952,129.09058650000952,130.21019875002094,130.21019875002094,130.21019875002094,130.21019875002094,4.0113474579993635,131.24344741599634,200002,205,2023-03-21_16h19.06.375,DMS_BEST_eyetracking_DAN_base_12-36_looped_10minWORKING,2022.2.4,None,
16,UNPRED,12,0.5391003860028681,1,images/picture_2.png,images/picture_1.png,0,"[11.733433509789462, -11.733433509789466]",11.733433509789462,-11.733433509789464,images/picture_2.png,1,"[-11.733433509789466, -11.733433509789462]",-11.733433509789464,-11.733433509789462,images/picture_3.png,2,"[-11.733433509789462, 11.733433509789464]",-11.733433509789462,11.733433509789464,0,1,1,0.5391003860028681,1.5391003860028682,1.4608996139971318,3,1,1.2891003860028682,0,1,0,1,0,0,1,1,7,,,,,,,,,,,,,,,,,,,,,200002,205,2023-03-21_16h19.06.375,DMS_BEST_eyetracking_DAN_base_12-36_looped_10minWORKING,2022.2.4,None,
16,UNPRED,12,0.5391003860028681,1,images/picture_2.png,images/picture_1.png,0,"[11.733433509789462, -11.733433509789466]",11.733433509789462,-11.733433509789464,images/picture_2.png,1,"[-11.733433509789466, -11.733433509789462]",-11.733433509789464,-11.733433509789462,images/picture_3.png,2,"[-11.733433509789462, 11.733433509789464]",-11.733433509789462,11.733433509789464,0,1,1,0.5391003860028681,1.5391003860028682,1.4608996139971318,3,1,1.2891003860028682,0,1,0,1,0,0,1,1,7,,,,,,,0.007191166980192065,131.24344741599634,131.24344741599634,132.25754716596566,132.54360858304426,132.75741750001907,132.75741750001907,132.75741750001907,134.2242350409506,134.2242350409506,134.2242350409506,134.2242350409506,4.028839124948718,135.22400095802732,200002,205,2023-03-21_16h19.06.375,DMS_BEST_eyetracking_DAN_base_12-36_looped_10minWORKING,2022.2.4,None,
11,UNPRED,12,1.198056575089827,1,images/picture_2.png,images/picture_1.png,0,"[-11.733433509789466, -11.733433509789462]",-11.733433509789464,-11.733433509789462,images/picture_2.png,1,"[-11.733433509789462, 11.733433509789464]",-11.733433509789462,11.733433509789464,images/picture_3.png,2,"[11.733433509789464, 11.733433509789462]",11.733433509789464,11.733433509789462,0,1,1,1.198056575089827,2.198056575089827,0.8019434249101729,3,1,1.9480565750898269,0,1,0,1,0,0,2,2,2,,,,,,,,,,,,,,,,,,,,,200002,205,2023-03-21_16h19.06.375,DMS_BEST_eyetracking_DAN_base_12-36_looped_10minWORKING,2022.2.4,None,
11,UNPRED,12,1.198056575089827,1,images/picture_2.png,images/picture_1.png,0,"[-11.733433509789466, -11.733433509789462]",-11.733433509789464,-11.733433509789462,images/picture_2.png,1,"[-11.733433509789462, 11.733433509789464]",-11.733433509789462,11.733433509789464,images/picture_3.png,2,"[11.733433509789464, 11.733433509789462]",11.733433509789464,11.733433509789462,0,1,1,1.198056575089827,2.198056575089827,0.8019434249101729,3,1,1.9480565750898269,0,1,0,1,0,0,2,2,2,,,,,,,0.0018643750809133053,135.25720233295579,135.25720233295579,136.25720587500837,137.2100451659644,137.45714695798233,137.45714695798233,137.45714695798233,138.25755062501412,138.25755062501412,138.25755062501412,138.25755062501412,3.999715834041126,139.27600391604938,200002,205,2023-03-21_16h19.06.375,DMS_BEST_eyetracking_DAN_base_12-36_looped_10minWORKING,2022.2.4,None,
13,UNPRED,12,0.96355604626641,0,images/picture_1.png,images/picture_1.png,0,"[-11.733433509789466, -11.733433509789462]",-11.733433509789464,-11.733433509789462,images/picture_2.png,1,"[-11.733433509789462, 11.733433509789464]",-11.733433509789462,11.733433509789464,images/picture_3.png,2,"[11.733433509789464, 11.733433509789462]",11.733433509789464,11.733433509789462,0,1,1,0.96355604626641,1.9635560462664101,1.0364439537335899,3,1,1.7135560462664101,0,1,0,1,0,0,3,3,4,,,,,,,,,,,,,,,,,,,,,200002,205,2023-03-21_16h19.06.375,DMS_BEST_eyetracking_DAN_base_12-36_looped_10minWORKING,2022.2.4,None,
13,UNPRED,12,0.96355604626641,0,images/picture_1.png,images/picture_1.png,0,"[-11.733433509789466, -11.733433509789462]",-11.733433509789464,-11.733433509789462,images/picture_2.png,1,"[-11.733433509789462, 11.733433509789464]",-11.733433509789462,11.733433509789464,images/picture_3.png,2,"[11.733433509789464, 11.733433509789462]",11.733433509789464,11.733433509789462,0,1,1,0.96355604626641,1.9635560462664101,1.0364439537335899,3,1,1.7135560462664101,0,1,0,1,0,0,3,3,4,,,,,,,0.004445415921509266,139.27600391604938,139.27600391604938,140.29095749999397,140.99090929096565,141.22396012500394,141.22396012500394,141.22396012500394,142.25746908294968,142.25746908294968,142.25746908294968,142.25746908294968,4.0303566249785945,143.25753933296073,200002,205,2023-03-21_16h19.06.375,DMS_BEST_eyetracking_DAN_base_12-36_looped_10minWORKING,2022.2.4,None,
14,UNPRED,12,1.0581963190774348,0,images/picture_1.png,images/picture_1.png,0,"[-11.733433509789466, -11.733433509789462]",-11.733433509789464,-11.733433509789462,images/picture_2.png,1,"[11.733433509789462, -11.733433509789466]",11.733433509789462,-11.733433509789464,images/picture_3.png,2,"[-11.733433509789462, 11.733433509789464]",-11.733433509789462,11.733433509789464,0,1,1,1.0581963190774348,2.0581963190774353,0.9418036809225652,3,1,1.8081963190774348,0,1,0,1,0,0,4,4,5,,,,,,,,,,,,,,,,,,,,,200002,205,2023-03-21_16h19.06.375,DMS_BEST_eyetracking_DAN_base_12-36_looped_10minWORKING,2022.2.4,None,
14,UNPRED,12,1.0581963190774348,0,images/picture_1.png,images/picture_1.png,0,"[-11.733433509789466, -11.733433509789462]",-11.733433509789464,-11.733433509789462,images/picture_2.png,1,"[11.733433509789462, -11.733433509789466]",11.733433509789462,-11.733433509789464,images/picture_3.png,2,"[-11.733433509789462, 11.733433509789464]",-11.733433509789462,11.733433509789464,0,1,1,1.0581963190774348,2.0581963190774353,0.9418036809225652,3,1,1.8081963190774348,0,1,0,1,0,0,4,4,5,,,,,,,0.003548000007867813,143.31018758297432,143.31018758297432,144.32427141594235,145.1243840829702,145.34316104103345,145.34316104103345,145.34316104103345,146.2907856659731,146.2907856659731,146.2907856659731,146.2907856659731,4.029840041999705,147.29087770800106,200002,205,2023-03-21_16h19.06.375,DMS_BEST_eyetracking_DAN_base_12-36_looped_10minWORKING,2022.2.4,None,
10,UNPRED,12,1.006400250486821,1,images/picture_2.png,images/picture_1.png,0,"[-11.733433509789466, -11.733433509789462]",-11.733433509789464,-11.733433509789462,images/picture_2.png,1,"[11.733433509789464, 11.733433509789462]",11.733433509789464,11.733433509789462,images/picture_3.png,2,"[11.733433509789462, -11.733433509789466]",11.733433509789462,-11.733433509789464,0,1,1,1.006400250486821,2.006400250486821,0.9935997495131791,3,1,1.7564002504868208,0,1,0,1,0,0,5,5,1,,,,,,,,,,,,,,,,,,,,,200002,205,2023-03-21_16h19.06.375,DMS_BEST_eyetracking_DAN_base_12-36_looped_10minWORKING,2022.2.4,None,
10,UNPRED,12,1.006400250486821,1,images/picture_2.png,images/picture_1.png,0,"[-11.733433509789466, -11.733433509789462]",-11.733433509789464,-11.733433509789462,images/picture_2.png,1,"[11.733433509789464, 11.733433509789462]",11.733433509789464,11.733433509789462,images/picture_3.png,2,"[11.733433509789462, -11.733433509789466]",11.733433509789462,-11.733433509789464,0,1,1,1.006400250486821,2.006400250486821,0.9935997495131791,3,1,1.7564002504868208,0,1,0,1,0,0,5,5,1,,,,,,,0.005992957972921431,147.34406975004822,147.34406975004822,148.35751316603273,149.11004066595342,149.32394637505058,149.32394637505058,149.32394637505058,150.32378262502607,150.32378262502607,150.32378262502607,150.32378262502607,4.028987915953621,151.32418724999297,200002,205,2023-03-21_16h19.06.375,DMS_BEST_eyetracking_DAN_base_12-36_looped_10minWORKING,2022.2.4,None,
12,UNPRED,12,0.7883060009599325,2,images/picture_3.png,images/picture_1.png,0,"[-11.733433509789466, -11.733433509789462]",-11.733433509789464,-11.733433509789462,images/picture_2.png,1,"[-11.733433509789462, 11.733433509789464]",-11.733433509789462,11.733433509789464,images/picture_3.png,2,"[11.733433509789464, 11.733433509789462]",11.733433509789464,11.733433509789462,0,1,1,0.7883060009599325,1.7883060009599323,1.2116939990400677,3,1,1.5383060009599323,0,1,0,1,0,0,6,6,3,,,,,,,,,,,,,,,,,,,,,200002,205,2023-03-21_16h19.06.375,DMS_BEST_eyetracking_DAN_base_12-36_looped_10minWORKING,2022.2.4,None,
12,UNPRED,12,0.7883060009599325,2,images/picture_3.png,images/picture_1.png,0,"[-11.733433509789466, -11.733433509789462]",-11.733433509789464,-11.733433509789462,images/picture_2.png,1,"[-11.733433509789462, 11.733433509789464]",-11.733433509789462,11.733433509789464,images/picture_3.png,2,"[11.733433509789464, 11.733433509789462]",11.733433509789464,11.733433509789462,0,1,1,0.7883060009599325,1.7883060009599323,1.2116939990400677,3,1,1.5383060009599323,0,1,0,1,0,0,6,6,3,,,,,,,0.0022364590549841523,151.35714508302044,151.35714508302044,152.35723258298822,152.91012470796704,153.14356116601266,153.14356116601266,153.14356116601266,154.35769487498328,154.35769487498328,154.35769487498328,154.35769487498328,3.998776209075004,155.37647875002585,200002,205,2023-03-21_16h19.06.375,DMS_BEST_eyetracking_DAN_base_12-36_looped_10minWORKING,2022.2.4,None,
9,UNPRED,12,0.6792143277342888,1,images/picture_2.png,images/picture_1.png,0,"[11.733433509789464, 11.733433509789462]",11.733433509789464,11.733433509789462,images/picture_2.png,1,"[-11.733433509789462, 11.733433509789464]",-11.733433509789462,11.733433509789464,images/picture_3.png,2,"[-11.733433509789466, -11.733433509789462]",-11.733433509789464,-11.733433509789462,0,1,1,0.6792143277342888,1.6792143277342888,1.3207856722657112,3,1,1.4292143277342888,0,1,0,1,0,0,7,7,0,,,,,,,,,,,,,,,,,,,,,200002,205,2023-03-21_16h19.06.375,DMS_BEST_eyetracking_DAN_base_12-36_looped_10minWORKING,2022.2.4,None,
9,UNPRED,12,0.6792143277342888,1,images/picture_2.png,images/picture_1.png,0,"[11.733433509789464, 11.733433509789462]",11.733433509789464,11.733433509789462,images/picture_2.png,1,"[-11.733433509789462, 11.733433509789464]",-11.733433509789462,11.733433509789464,images/picture_3.png,2,"[-11.733433509789466, -11.733433509789462]",-11.733433509789464,-11.733433509789462,0,1,1,0.6792143277342888,1.6792143277342888,1.3207856722657112,3,1,1.4292143277342888,0,1,0,1,0,0,7,7,0,,,,,,,0.004058833001181483,155.37647875002585,155.37647875002585,156.3905768749537,156.8095021659974,157.02382983302232,157.02382983302232,157.02382983302232,158.35734616604168,158.35734616604168,158.35734616604168,158.35734616604168,4.028683542041108,159.3575341249816,200002,205,2023-03-21_16h19.06.375,DMS_BEST_eyetracking_DAN_base_12-36_looped_10minWORKING,2022.2.4,None,
15,UNPRED,12,1.016633500896121,2,images/picture_3.png,images/picture_1.png,0,"[11.733433509789464, 11.733433509789462]",11.733433509789464,11.733433509789462,images/picture_2.png,1,"[-11.733433509789466, -11.733433509789462]",-11.733433509789464,-11.733433509789462,images/picture_3.png,2,"[11.733433509789462, -11.733433509789466]",11.733433509789462,-11.733433509789464,0,1,1,1.016633500896121,2.0166335008961207,0.9833664991038792,3,1,1.7666335008961207,0,1,0,1,0,0,8,8,6,,,,,,,,,,,,,,,,,,,,,200002,205,2023-03-21_16h19.06.375,DMS_BEST_eyetracking_DAN_base_12-36_looped_10minWORKING,2022.2.4,None,
15,UNPRED,12,1.016633500896121,2,images/picture_3.png,images/picture_1.png,0,"[11.733433509789464, 11.733433509789462]",11.733433509789464,11.733433509789462,images/picture_2.png,1,"[-11.733433509789466, -11.733433509789462]",-11.733433509789464,-11.733433509789462,images/picture_3.png,2,"[11.733433509789462, -11.733433509789466]",11.733433509789462,-11.733433509789464,0,1,1,1.016633500896121,2.0166335008961207,0.9833664991038792,3,1,1.7666335008961207,0,1,0,1,0,0,8,8,6,,,,,,,0.0033292920561507344,159.40995233296417,159.40995233296417,160.42426941602025,161.19111420796253,161.41017266595736,161.41017266595736,161.41017266595736,162.39086362498347,162.39086362498347,162.39086362498347,162.39086362498347,4.028883874998428,163.3909190830309,200002,205,2023-03-21_16h19.06.375,DMS_BEST_eyetracking_DAN_base_12-36_looped_10minWORKING,2022.2.4,None,
,,,,,,,,,,,,,,,,,,,,,,,,,,,,,,,1,0,1,0,,,,,,,,,163.46560274995863,175.4915964580141,,,,,,,,,,,,,,,200002,205,2023-03-21_16h19.06.375,DMS_BEST_eyetracking_DAN_base_12-36_looped_10minWORKING,2022.2.4,None,
22,PRED,12,0.8597014130581874,1,images/picture_2.png,images/picture_1.png,0,"[-11.733433509789466, -11.733433509789462]",-11.733433509789464,-11.733433509789462,images/picture_2.png,1,"[11.733433509789462, -11.733433509789466]",11.733433509789462,-11.733433509789464,images/picture_3.png,2,"[-11.733433509789462, 11.733433509789464]",-11.733433509789462,11.733433509789464,0,1,1,0.8597014130581874,1.8597014130581877,1.1402985869418123,3,1,1.6097014130581877,0,2,0,2,0,0,0,0,4,,,,,,,,,,,,,,,,,,,,,200002,205,2023-03-21_16h19.06.375,DMS_BEST_eyetracking_DAN_base_12-36_looped_10minWORKING,2022.2.4,None,
22,PRED,12,0.8597014130581874,1,images/picture_2.png,images/picture_1.png,0,"[-11.733433509789466, -11.733433509789462]",-11.733433509789464,-11.733433509789462,images/picture_2.png,1,"[11.733433509789462, -11.733433509789466]",11.733433509789462,-11.733433509789464,images/picture_3.png,2,"[-11.733433509789462, 11.733433509789464]",-11.733433509789462,11.733433509789464,0,1,1,0.8597014130581874,1.8597014130581877,1.1402985869418123,3,1,1.6097014130581877,0,2,0,2,0,0,0,0,4,,,,,,,0.0037302080309018493,175.4915964580141,175.4915964580141,176.49060841603205,177.10921645804774,177.3432182079414,177.3432182079414,177.3432182079414,178.49084829096682,178.49084829096682,178.49084829096682,178.49084829096682,3.996316208038479,179.50980141595937,200002,205,2023-03-21_16h19.06.375,DMS_BEST_eyetracking_DAN_base_12-36_looped_10minWORKING,2022.2.4,None,
25,PRED,12,1.1753029824931405,1,images/picture_2.png,images/picture_1.png,0,"[11.733433509789462, -11.733433509789466]",11.733433509789462,-11.733433509789464,images/picture_2.png,1,"[-11.733433509789462, 11.733433509789464]",-11.733433509789462,11.733433509789464,images/picture_3.png,2,"[11.733433509789464, 11.733433509789462]",11.733433509789464,11.733433509789462,0,1,1,1.1753029824931405,2.1753029824931405,0.8246970175068595,3,1,1.9253029824931405,0,2,0,2,0,0,1,1,7,,,,,,,,,,,,,,,,,,,,,200002,205,2023-03-21_16h19.06.375,DMS_BEST_eyetracking_DAN_base_12-36_looped_10minWORKING,2022.2.4,None,
25,PRED,12,1.1753029824931405,1,images/picture_2.png,images/picture_1.png,0,"[11.733433509789462, -11.733433509789466]",11.733433509789462,-11.733433509789464,images/picture_2.png,1,"[-11.733433509789462, 11.733433509789464]",-11.733433509789462,11.733433509789464,images/picture_3.png,2,"[11.733433509789464, 11.733433509789462]",11.733433509789464,11.733433509789462,0,1,1,1.1753029824931405,2.1753029824931405,0.8246970175068595,3,1,1.9253029824931405,0,2,0,2,0,0,1,1,7,,,,,,,0.004986959043890238,179.50980141595937,179.50980141595937,180.52415112499148,181.44336312497035,181.65764274995308,181.65764274995308,181.65764274995308,182.49098641599994,182.49098641599994,182.49098641599994,182.49098641599994,4.0308442920213565,183.49092875001952,200002,205,2023-03-21_16h19.06.375,DMS_BEST_eyetracking_DAN_base_12-36_looped_10minWORKING,2022.2.4,None,
18,PRED,12,0.7078506117204759,1,images/picture_2.png,images/picture_1.png,0,"[11.733433509789464, 11.733433509789462]",11.733433509789464,11.733433509789462,images/picture_2.png,1,"[-11.733433509789466, -11.733433509789462]",-11.733433509789464,-11.733433509789462,images/picture_3.png,2,"[-11.733433509789462, 11.733433509789464]",-11.733433509789462,11.733433509789464,0,1,1,0.7078506117204759,1.707850611720476,1.292149388279524,3,1,1.457850611720476,0,2,0,2,0,0,2,2,0,,,,,,,,,,,,,,,,,,,,,200002,205,2023-03-21_16h19.06.375,DMS_BEST_eyetracking_DAN_base_12-36_looped_10minWORKING,2022.2.4,None,
18,PRED,12,0.7078506117204759,1,images/picture_2.png,images/picture_1.png,0,"[11.733433509789464, 11.733433509789462]",11.733433509789464,11.733433509789462,images/picture_2.png,1,"[-11.733433509789466, -11.733433509789462]",-11.733433509789464,-11.733433509789462,images/picture_3.png,2,"[-11.733433509789462, 11.733433509789464]",-11.733433509789462,11.733433509789464,0,1,1,0.7078506117204759,1.707850611720476,1.292149388279524,3,1,1.457850611720476,0,2,0,2,0,0,2,2,0,,,,,,,0.004973792005330324,183.5436693750089,183.5436693750089,184.5575151660014,185.00948783301283,185.2238773329882,185.2238773329882,185.2238773329882,186.52386458299588,186.52386458299588,186.52386458299588,186.52386458299588,4.029728249995969,187.52410008304287,200002,205,2023-03-21_16h19.06.375,DMS_BEST_eyetracking_DAN_base_12-36_looped_10minWORKING,2022.2.4,None,
26,PRED,12,1.0296613818290674,1,images/picture_2.png,images/picture_1.png,0,"[11.733433509789462, -11.733433509789466]",11.733433509789462,-11.733433509789464,images/picture_2.png,1,"[-11.733433509789462, 11.733433509789464]",-11.733433509789462,11.733433509789464,images/picture_3.png,2,"[11.733433509789464, 11.733433509789462]",11.733433509789464,11.733433509789462,0,1,1,1.0296613818290674,2.0296613818290674,0.9703386181709326,3,1,1.7796613818290674,0,2,0,2,0,0,3,3,8,,,,,,,,,,,,,,,,,,,,,200002,205,2023-03-21_16h19.06.375,DMS_BEST_eyetracking_DAN_base_12-36_looped_10minWORKING,2022.2.4,None,
26,PRED,12,1.0296613818290674,1,images/picture_2.png,images/picture_1.png,0,"[11.733433509789462, -11.733433509789466]",11.733433509789462,-11.733433509789464,images/picture_2.png,1,"[-11.733433509789462, 11.733433509789464]",-11.733433509789462,11.733433509789464,images/picture_3.png,2,"[11.733433509789464, 11.733433509789462]",11.733433509789464,11.733433509789462,0,1,1,1.0296613818290674,2.0296613818290674,0.9703386181709326,3,1,1.7796613818290674,0,2,0,2,0,0,3,3,8,,,,,,,0.0048593750689178705,187.57679458300117,187.57679458300117,188.59078654099721,189.35744587494992,189.59056820801925,189.59056820801925,189.59056820801925,190.55752016603947,190.55752016603947,190.55752016603947,190.55752016603947,4.028971084044315,191.55749787495006,200002,205,2023-03-21_16h19.06.375,DMS_BEST_eyetracking_DAN_base_12-36_looped_10minWORKING,2022.2.4,None,
19,PRED,12,0.7115520410500278,1,images/picture_2.png,images/picture_1.png,0,"[11.733433509789464, 11.733433509789462]",11.733433509789464,11.733433509789462,images/picture_2.png,1,"[11.733433509789462, -11.733433509789466]",11.733433509789462,-11.733433509789464,images/picture_3.png,2,"[-11.733433509789462, 11.733433509789464]",-11.733433509789462,11.733433509789464,0,1,1,0.7115520410500278,1.7115520410500278,1.2884479589499722,3,1,1.4615520410500278,0,2,0,2,0,0,4,4,1,,,,,,,,,,,,,,,,,,,,,200002,205,2023-03-21_16h19.06.375,DMS_BEST_eyetracking_DAN_base_12-36_looped_10minWORKING,2022.2.4,None,
19,PRED,12,0.7115520410500278,1,images/picture_2.png,images/picture_1.png,0,"[11.733433509789464, 11.733433509789462]",11.733433509789464,11.733433509789462,images/picture_2.png,1,"[11.733433509789462, -11.733433509789466]",11.733433509789462,-11.733433509789464,images/picture_3.png,2,"[-11.733433509789462, 11.733433509789464]",-11.733433509789462,11.733433509789464,0,1,1,0.7115520410500278,1.7115520410500278,1.2884479589499722,3,1,1.4615520410500278,0,2,0,2,0,0,4,4,1,,,,,,,0.004774458007887006,191.61024604097474,191.61024604097474,192.62427954096347,193.0770572910551,193.29068279103376,193.29068279103376,193.29068279103376,194.59088054101449,194.59088054101449,194.59088054101449,194.59088054101449,4.0304673329228535,195.59094908297993,200002,205,2023-03-21_16h19.06.375,DMS_BEST_eyetracking_DAN_base_12-36_looped_10minWORKING,2022.2.4,None,
21,PRED,12,0.8840632304539078,1,images/picture_2.png,images/picture_1.png,0,"[-11.733433509789466, -11.733433509789462]",-11.733433509789464,-11.733433509789462,images/picture_2.png,1,"[-11.733433509789462, 11.733433509789464]",-11.733433509789462,11.733433509789464,images/picture_3.png,2,"[11.733433509789464, 11.733433509789462]",11.733433509789464,11.733433509789462,0,1,1,0.8840632304539078,1.884063230453908,1.1159367695460922,3,1,1.6340632304539078,0,2,0,2,0,0,5,5,3,,,,,,,,,,,,,,,,,,,,,200002,205,2023-03-21_16h19.06.375,DMS_BEST_eyetracking_DAN_base_12-36_looped_10minWORKING,2022.2.4,None,
21,PRED,12,0.8840632304539078,1,images/picture_2.png,images/picture_1.png,0,"[-11.733433509789466, -11.733433509789462]",-11.733433509789464,-11.733433509789462,images/picture_2.png,1,"[-11.733433509789462, 11.733433509789464]",-11.733433509789462,11.733433509789464,images/picture_3.png,2,"[11.733433509789464, 11.733433509789462]",11.733433509789464,11.733433509789462,0,1,1,0.8840632304539078,1.884063230453908,1.1159367695460922,3,1,1.6340632304539078,0,2,0,2,0,0,5,5,3,,,,,,,0.0048364580143243074,195.64350329095032,195.64350329095032,196.65707645798102,197.29051495797466,197.50927475001663,197.50927475001663,197.50927475001663,198.62422895804048,198.62422895804048,198.62422895804048,198.62422895804048,4.030649540945888,199.62426924996544,200002,205,2023-03-21_16h19.06.375,DMS_BEST_eyetracking_DAN_base_12-36_looped_10minWORKING,2022.2.4,None,
23,PRED,12,0.839769084823849,1,images/picture_2.png,images/picture_1.png,0,"[11.733433509789462, -11.733433509789466]",11.733433509789462,-11.733433509789464,images/picture_2.png,1,"[11.733433509789464, 11.733433509789462]",11.733433509789464,11.733433509789462,images/picture_3.png,2,"[-11.733433509789466, -11.733433509789462]",-11.733433509789464,-11.733433509789462,0,1,1,0.839769084823849,1.8397690848238493,1.160230915176151,3,1,1.5897690848238493,0,2,0,2,0,0,6,6,5,,,,,,,,,,,,,,,,,,,,,200002,205,2023-03-21_16h19.06.375,DMS_BEST_eyetracking_DAN_base_12-36_looped_10minWORKING,2022.2.4,None,
23,PRED,12,0.839769084823849,1,images/picture_2.png,images/picture_1.png,0,"[11.733433509789462, -11.733433509789466]",11.733433509789462,-11.733433509789464,images/picture_2.png,1,"[11.733433509789464, 11.733433509789462]",11.733433509789464,11.733433509789462,images/picture_3.png,2,"[-11.733433509789466, -11.733433509789462]",-11.733433509789464,-11.733433509789462,0,1,1,0.839769084823849,1.8397690848238493,1.160230915176151,3,1,1.5897690848238493,0,2,0,2,0,0,6,6,5,,,,,,,0.004911500029265881,199.67698995803948,199.67698995803948,200.69095058296807,201.27669483295176,201.49058658303693,201.49058658303693,201.49058658303693,202.65753450000193,202.65753450000193,202.65753450000193,202.65753450000193,4.030161208938807,203.65761616604868,200002,205,2023-03-21_16h19.06.375,DMS_BEST_eyetracking_DAN_base_12-36_looped_10minWORKING,2022.2.4,None,
24,PRED,12,0.5468682211902447,1,images/picture_2.png,images/picture_1.png,0,"[-11.733433509789462, 11.733433509789464]",-11.733433509789462,11.733433509789464,images/picture_2.png,1,"[-11.733433509789466, -11.733433509789462]",-11.733433509789464,-11.733433509789462,images/picture_3.png,2,"[11.733433509789462, -11.733433509789466]",11.733433509789462,-11.733433509789464,0,1,1,0.5468682211902447,1.5468682211902447,1.4531317788097553,3,1,1.2968682211902447,0,2,0,2,0,0,7,7,6,,,,,,,,,,,,,,,,,,,,,200002,205,2023-03-21_16h19.06.375,DMS_BEST_eyetracking_DAN_base_12-36_looped_10minWORKING,2022.2.4,None,
24,PRED,12,0.5468682211902447,1,images/picture_2.png,images/picture_1.png,0,"[-11.733433509789462, 11.733433509789464]",-11.733433509789462,11.733433509789464,images/picture_2.png,1,"[-11.733433509789466, -11.733433509789462]",-11.733433509789464,-11.733433509789462,images/picture_3.png,2,"[11.733433509789462, -11.733433509789466]",11.733433509789462,-11.733433509789464,0,1,1,0.5468682211902447,1.5468682211902447,1.4531317788097553,3,1,1.2968682211902447,0,2,0,2,0,0,7,7,6,,,,,,,0.004965625004842877,203.7102366660256,203.7102366660256,204.72414737497456,205.01005625003017,205.22401166602504,205.22401166602504,205.22401166602504,206.6908584999619,206.6908584999619,206.6908584999619,206.6908584999619,4.029094791971147,207.69073675002437,200002,205,2023-03-21_16h19.06.375,DMS_BEST_eyetracking_DAN_base_12-36_looped_10minWORKING,2022.2.4,None,
20,PRED,12,0.6884392405000495,1,images/picture_2.png,images/picture_1.png,0,"[-11.733433509789462, 11.733433509789464]",-11.733433509789462,11.733433509789464,images/picture_2.png,1,"[-11.733433509789466, -11.733433509789462]",-11.733433509789464,-11.733433509789462,images/picture_3.png,2,"[11.733433509789464, 11.733433509789462]",11.733433509789464,11.733433509789462,0,1,1,0.6884392405000495,1.6884392405000497,1.3115607594999503,3,1,1.4384392405000497,0,2,0,2,0,0,8,8,2,,,,,,,,,,,,,,,,,,,,,200002,205,2023-03-21_16h19.06.375,DMS_BEST_eyetracking_DAN_base_12-36_looped_10minWORKING,2022.2.4,None,
20,PRED,12,0.6884392405000495,1,images/picture_2.png,images/picture_1.png,0,"[-11.733433509789462, 11.733433509789464]",-11.733433509789462,11.733433509789464,images/picture_2.png,1,"[-11.733433509789466, -11.733433509789462]",-11.733433509789464,-11.733433509789462,images/picture_3.png,2,"[11.733433509789464, 11.733433509789462]",11.733433509789464,11.733433509789462,0,1,1,0.6884392405000495,1.6884392405000497,1.3115607594999503,3,1,1.4384392405000497,0,2,0,2,0,0,8,8,2,,,,,,,0.002613415941596031,207.72358124994207,207.72358124994207,208.72428716602735,209.1768342499854,209.4100703749573,209.4100703749573,209.4100703749573,210.72421583300456,210.72421583300456,210.72421583300456,210.72421583300456,3.9973004159983248,211.77795054099988,200002,205,2023-03-21_16h19.06.375,DMS_BEST_eyetracking_DAN_base_12-36_looped_10minWORKING,2022.2.4,None,
,,,,,,,,,,,,,,,,,,,,,,,,,,,,,,,2,0,2,0,,,,,,,,,211.77795054099988,223.8106902500149,,,,,,,,,,,,,,,200002,205,2023-03-21_16h19.06.375,DMS_BEST_eyetracking_DAN_base_12-36_looped_10minWORKING,2022.2.4,None,
27,UNPRED,12,1.1646323769260791,2,images/picture_3.png,images/picture_1.png,0,"[-11.733433509789466, -11.733433509789462]",-11.733433509789464,-11.733433509789462,images/picture_2.png,1,"[-11.733433509789462, 11.733433509789464]",-11.733433509789462,11.733433509789464,images/picture_3.png,2,"[11.733433509789462, -11.733433509789466]",11.733433509789462,-11.733433509789464,0,1,1,1.1646323769260791,2.164632376926079,0.8353676230739211,3,1,1.9146323769260791,0,3,0,3,0,0,0,0,0,,,,,,,,,,,,,,,,,,,,,200002,205,2023-03-21_16h19.06.375,DMS_BEST_eyetracking_DAN_base_12-36_looped_10minWORKING,2022.2.4,None,
27,UNPRED,12,1.1646323769260791,2,images/picture_3.png,images/picture_1.png,0,"[-11.733433509789466, -11.733433509789462]",-11.733433509789464,-11.733433509789462,images/picture_2.png,1,"[-11.733433509789462, 11.733433509789464]",-11.733433509789462,11.733433509789464,images/picture_3.png,2,"[11.733433509789462, -11.733433509789466]",11.733433509789462,-11.733433509789464,0,1,1,1.1646323769260791,2.164632376926079,0.8353676230739211,3,1,1.9146323769260791,0,3,0,3,0,0,0,0,0,,,,,,,0.003015000023879111,223.8106902500149,223.8106902500149,224.82428437494673,225.7242903750157,225.976482457947,225.976482457947,225.976482457947,226.81017137505114,226.82427933299914,226.82427933299914,226.82427933299914,4.00928837491665,227.82356908300426,200002,205,2023-03-21_16h19.06.375,DMS_BEST_eyetracking_DAN_base_12-36_looped_10minWORKING,2022.2.4,None,
35,UNPRED,12,0.5158725205261294,2,images/picture_3.png,images/picture_1.png,0,"[11.733433509789462, -11.733433509789466]",11.733433509789462,-11.733433509789464,images/picture_2.png,1,"[-11.733433509789466, -11.733433509789462]",-11.733433509789464,-11.733433509789462,images/picture_3.png,2,"[11.733433509789464, 11.733433509789462]",11.733433509789464,11.733433509789462,0,1,1,0.5158725205261294,1.5158725205261294,1.4841274794738706,3,1,1.2658725205261294,0,3,0,3,0,0,1,1,8,,,,,,,,,,,,,,,,,,,,,200002,205,2023-03-21_16h19.06.375,DMS_BEST_eyetracking_DAN_base_12-36_looped_10minWORKING,2022.2.4,None,
35,UNPRED,12,0.5158725205261294,2,images/picture_3.png,images/picture_1.png,0,"[11.733433509789462, -11.733433509789466]",11.733433509789462,-11.733433509789464,images/picture_2.png,1,"[-11.733433509789466, -11.733433509789462]",-11.733433509789464,-11.733433509789462,images/picture_3.png,2,"[11.733433509789464, 11.733433509789462]",11.733433509789464,11.733433509789462,0,1,1,0.5158725205261294,1.5158725205261294,1.4841274794738706,3,1,1.2658725205261294,0,3,0,3,0,0,1,1,8,,,,,,,0.0013176660286262631,227.82356908300426,227.82356908300426,228.82415574998595,229.09093458298594,229.32358670805115,229.32358670805115,229.32358670805115,230.82437024998944,230.81021837494336,230.81021837494336,230.81021837494336,3.999156125006266,231.84345920803025,200002,205,2023-03-21_16h19.06.375,DMS_BEST_eyetracking_DAN_base_12-36_looped_10minWORKING,2022.2.4,None,
34,UNPRED,12,1.197606622452612,2,images/picture_3.png,images/picture_1.png,0,"[11.733433509789462, -11.733433509789466]",11.733433509789462,-11.733433509789464,images/picture_2.png,1,"[-11.733433509789462, 11.733433509789464]",-11.733433509789462,11.733433509789464,images/picture_3.png,2,"[-11.733433509789466, -11.733433509789462]",-11.733433509789464,-11.733433509789462,0,1,1,1.197606622452612,2.197606622452612,0.8023933775473879,3,1,1.9476066224526118,0,3,0,3,0,0,2,2,7,,,,,,,,,,,,,,,,,,,,,200002,205,2023-03-21_16h19.06.375,DMS_BEST_eyetracking_DAN_base_12-36_looped_10minWORKING,2022.2.4,None,
34,UNPRED,12,1.197606622452612,2,images/picture_3.png,images/picture_1.png,0,"[11.733433509789462, -11.733433509789466]",11.733433509789462,-11.733433509789464,images/picture_2.png,1,"[-11.733433509789462, 11.733433509789464]",-11.733433509789462,11.733433509789464,images/picture_3.png,2,"[-11.733433509789466, -11.733433509789462]",-11.733433509789464,-11.733433509789462,0,1,1,1.197606622452612,2.197606622452612,0.8023933775473879,3,1,1.9476066224526118,0,3,0,3,0,0,2,2,7,,,,,,,0.003156707971356809,231.84345920803025,231.84345920803025,232.8575251250295,233.79088400001638,234.0240385410143,234.0240385410143,234.0240385410143,234.8243423330132,234.8243423330132,234.8243423330132,234.8243423330132,4.030665875063278,235.8242369160289,200002,205,2023-03-21_16h19.06.375,DMS_BEST_eyetracking_DAN_base_12-36_looped_10minWORKING,2022.2.4,None,
28,UNPRED,12,0.9303065773981274,0,images/picture_1.png,images/picture_1.png,0,"[-11.733433509789466, -11.733433509789462]",-11.733433509789464,-11.733433509789462,images/picture_2.png,1,"[-11.733433509789462, 11.733433509789464]",-11.733433509789462,11.733433509789464,images/picture_3.png,2,"[11.733433509789464, 11.733433509789462]",11.733433509789464,11.733433509789462,0,1,1,0.9303065773981274,1.9303065773981276,1.0696934226018726,3,1,1.6803065773981274,0,3,0,3,0,0,3,3,1,,,,,,,,,,,,,,,,,,,,,200002,205,2023-03-21_16h19.06.375,DMS_BEST_eyetracking_DAN_base_12-36_looped_10minWORKING,2022.2.4,None,
28,UNPRED,12,0.9303065773981274,0,images/picture_1.png,images/picture_1.png,0,"[-11.733433509789466, -11.733433509789462]",-11.733433509789464,-11.733433509789462,images/picture_2.png,1,"[-11.733433509789462, 11.733433509789464]",-11.733433509789462,11.733433509789464,images/picture_3.png,2,"[11.733433509789464, 11.733433509789462]",11.733433509789464,11.733433509789462,0,1,1,0.9303065773981274,1.9303065773981276,1.0696934226018726,3,1,1.6803065773981274,0,3,0,3,0,0,3,3,1,,,,,,,0.006096958066336811,235.87679316604044,235.87679316604044,236.89058500004467,237.55731029098388,237.7905305000022,237.7905305000022,237.7905305000022,238.8576930409763,238.8576930409763,238.8576930409763,238.8576930409763,4.030071167042479,239.85749524994753,200002,205,2023-03-21_16h19.06.375,DMS_BEST_eyetracking_DAN_base_12-36_looped_10minWORKING,2022.2.4,None,
29,UNPRED,12,0.9765072536434768,2,images/picture_3.png,images/picture_1.png,0,"[-11.733433509789466, -11.733433509789462]",-11.733433509789464,-11.733433509789462,images/picture_2.png,1,"[11.733433509789462, -11.733433509789466]",11.733433509789462,-11.733433509789464,images/picture_3.png,2,"[11.733433509789464, 11.733433509789462]",11.733433509789464,11.733433509789462,0,1,1,0.9765072536434768,1.976507253643477,1.023492746356523,3,1,1.726507253643477,0,3,0,3,0,0,4,4,2,,,,,,,,,,,,,,,,,,,,,200002,205,2023-03-21_16h19.06.375,DMS_BEST_eyetracking_DAN_base_12-36_looped_10minWORKING,2022.2.4,None,
29,UNPRED,12,0.9765072536434768,2,images/picture_3.png,images/picture_1.png,0,"[-11.733433509789466, -11.733433509789462]",-11.733433509789464,-11.733433509789462,images/picture_2.png,1,"[11.733433509789462, -11.733433509789466]",11.733433509789462,-11.733433509789464,images/picture_3.png,2,"[11.733433509789464, 11.733433509789462]",11.733433509789464,11.733433509789462,0,1,1,0.9765072536434768,1.976507253643477,1.023492746356523,3,1,1.726507253643477,0,3,0,3,0,0,4,4,2,,,,,,,0.004461166099645197,239.90997349994723,239.90997349994723,240.9240675830515,241.64354391605593,241.85725641599856,241.85725641599856,241.85725641599856,242.89081741601694,242.89081741601694,242.89081741601694,242.89081741601694,4.029109250055626,243.8907947910484,200002,205,2023-03-21_16h19.06.375,DMS_BEST_eyetracking_DAN_base_12-36_looped_10minWORKING,2022.2.4,None,
33,UNPRED,12,0.9036884032618864,2,images/picture_3.png,images/picture_1.png,0,"[11.733433509789464, 11.733433509789462]",11.733433509789464,11.733433509789462,images/picture_2.png,1,"[-11.733433509789462, 11.733433509789464]",-11.733433509789462,11.733433509789464,images/picture_3.png,2,"[11.733433509789462, -11.733433509789466]",11.733433509789462,-11.733433509789464,0,1,1,0.9036884032618864,1.9036884032618864,1.0963115967381136,3,1,1.6536884032618864,0,3,0,3,0,0,5,5,6,,,,,,,,,,,,,,,,,,,,,200002,205,2023-03-21_16h19.06.375,DMS_BEST_eyetracking_DAN_base_12-36_looped_10minWORKING,2022.2.4,None,
33,UNPRED,12,0.9036884032618864,2,images/picture_3.png,images/picture_1.png,0,"[11.733433509789464, 11.733433509789462]",11.733433509789464,11.733433509789462,images/picture_2.png,1,"[-11.733433509789462, 11.733433509789464]",-11.733433509789462,11.733433509789464,images/picture_3.png,2,"[11.733433509789462, -11.733433509789466]",11.733433509789462,-11.733433509789464,0,1,1,0.9036884032618864,1.9036884032618864,1.0963115967381136,3,1,1.6536884032618864,0,3,0,3,0,0,5,5,6,,,,,,,0.003042332944460213,243.92486558295786,243.92486558295786,244.9242750830017,245.59083879098762,245.82383054099046,245.82383054099046,245.82383054099046,246.92414462496527,246.92414462496527,246.92414462496527,246.92414462496527,3.996423582895659,247.92360262502916,200002,205,2023-03-21_16h19.06.375,DMS_BEST_eyetracking_DAN_base_12-36_looped_10minWORKING,2022.2.4,None,
30,UNPRED,12,1.1265539458059926,0,images/picture_1.png,images/picture_1.png,0,"[11.733433509789464, 11.733433509789462]",11.733433509789464,11.733433509789462,images/picture_2.png,1,"[11.733433509789462, -11.733433509789466]",11.733433509789462,-11.733433509789464,images/picture_3.png,2,"[-11.733433509789462, 11.733433509789464]",-11.733433509789462,11.733433509789464,0,1,1,1.1265539458059926,2.126553945805993,0.8734460541940074,3,1,1.8765539458059928,0,3,0,3,0,0,6,6,3,,,,,,,,,,,,,,,,,,,,,200002,205,2023-03-21_16h19.06.375,DMS_BEST_eyetracking_DAN_base_12-36_looped_10minWORKING,2022.2.4,None,
30,UNPRED,12,1.1265539458059926,0,images/picture_1.png,images/picture_1.png,0,"[11.733433509789464, 11.733433509789462]",11.733433509789464,11.733433509789462,images/picture_2.png,1,"[11.733433509789462, -11.733433509789466]",11.733433509789462,-11.733433509789464,images/picture_3.png,2,"[-11.733433509789462, 11.733433509789464]",-11.733433509789462,11.733433509789464,0,1,1,1.1265539458059926,2.126553945805993,0.8734460541940074,3,1,1.8765539458059928,0,3,0,3,0,0,6,6,3,,,,,,,0.0021183330100029707,247.92360262502916,247.92360262502916,248.92401216598228,249.8101766250329,250.04365841601975,250.04365841601975,250.04365841601975,250.9242948750034,250.9242948750034,250.9242948750034,250.9242948750034,3.998212124919519,251.94344275002368,200002,205,2023-03-21_16h19.06.375,DMS_BEST_eyetracking_DAN_base_12-36_looped_10minWORKING,2022.2.4,None,
31,UNPRED,12,0.5649472220222476,1,images/picture_2.png,images/picture_1.png,0,"[-11.733433509789466, -11.733433509789462]",-11.733433509789464,-11.733433509789462,images/picture_2.png,1,"[11.733433509789462, -11.733433509789466]",11.733433509789462,-11.733433509789464,images/picture_3.png,2,"[-11.733433509789462, 11.733433509789464]",-11.733433509789462,11.733433509789464,0,1,1,0.5649472220222476,1.5649472220222476,1.4350527779777524,3,1,1.3149472220222476,0,3,0,3,0,0,7,7,4,,,,,,,,,,,,,,,,,,,,,200002,205,2023-03-21_16h19.06.375,DMS_BEST_eyetracking_DAN_base_12-36_looped_10minWORKING,2022.2.4,None,
31,UNPRED,12,0.5649472220222476,1,images/picture_2.png,images/picture_1.png,0,"[-11.733433509789466, -11.733433509789462]",-11.733433509789464,-11.733433509789462,images/picture_2.png,1,"[11.733433509789462, -11.733433509789466]",11.733433509789462,-11.733433509789464,images/picture_3.png,2,"[-11.733433509789462, 11.733433509789464]",-11.733433509789462,11.733433509789464,0,1,1,0.5649472220222476,1.5649472220222476,1.4350527779777524,3,1,1.3149472220222476,0,3,0,3,0,0,7,7,4,,,,,,,0.007577082957141101,251.94344275002368,251.94344275002368,252.95753158302978,253.2575489160372,253.49057525000535,253.49057525000535,253.49057525000535,254.92415870795958,254.92415870795958,254.92415870795958,254.92415870795958,4.029555082903244,255.92423270794097,200002,205,2023-03-21_16h19.06.375,DMS_BEST_eyetracking_DAN_base_12-36_looped_10minWORKING,2022.2.4,None,
32,UNPRED,12,0.5032954041379102,1,images/picture_2.png,images/picture_1.png,0,"[11.733433509789464, 11.733433509789462]",11.733433509789464,11.733433509789462,images/picture_2.png,1,"[-11.733433509789466, -11.733433509789462]",-11.733433509789464,-11.733433509789462,images/picture_3.png,2,"[-11.733433509789462, 11.733433509789464]",-11.733433509789462,11.733433509789464,0,1,1,0.5032954041379102,1.5032954041379103,1.4967045958620897,3,1,1.2532954041379103,0,3,0,3,0,0,8,8,5,,,,,,,,,,,,,,,,,,,,,200002,205,2023-03-21_16h19.06.375,DMS_BEST_eyetracking_DAN_base_12-36_looped_10minWORKING,2022.2.4,None,
32,UNPRED,12,0.5032954041379102,1,images/picture_2.png,images/picture_1.png,0,"[11.733433509789464, 11.733433509789462]",11.733433509789464,11.733433509789462,images/picture_2.png,1,"[-11.733433509789466, -11.733433509789462]",-11.733433509789464,-11.733433509789462,images/picture_3.png,2,"[-11.733433509789462, 11.733433509789464]",-11.733433509789462,11.733433509789464,0,1,1,0.5032954041379102,1.5032954041379103,1.4967045958620897,3,1,1.2532954041379103,0,3,0,3,0,0,8,8,5,,,,,,,0.004775207955390215,255.97661887505092,255.97661887505092,256.9908595409943,257.24330616602674,257.4574203749653,257.4574203749653,257.4574203749653,258.9571001250297,258.9571001250297,258.9571001250297,258.9571001250297,4.030343082966283,259.95754020800814,200002,205,2023-03-21_16h19.06.375,DMS_BEST_eyetracking_DAN_base_12-36_looped_10minWORKING,2022.2.4,None,
,,,,,,,,,,,,,,,,,,,,,,,,,,,,,,,3,0,3,0,,,,,,,,,260.0549571659649,272.07879187504295,,,,,,,,,,,,,,,200002,205,2023-03-21_16h19.06.375,DMS_BEST_eyetracking_DAN_base_12-36_looped_10minWORKING,2022.2.4,None,
37,PRED,12,1.0230517175721179,1,images/picture_2.png,images/picture_1.png,0,"[-11.733433509789462, 11.733433509789464]",-11.733433509789462,11.733433509789464,images/picture_2.png,1,"[11.733433509789462, -11.733433509789466]",11.733433509789462,-11.733433509789464,images/picture_3.png,2,"[-11.733433509789466, -11.733433509789462]",-11.733433509789464,-11.733433509789462,0,1,1,1.0230517175721179,2.023051717572118,0.976948282427882,3,1,1.773051717572118,0,4,0,4,0,0,0,0,1,,,,,,,,,,,,,,,,,,,,,200002,205,2023-03-21_16h19.06.375,DMS_BEST_eyetracking_DAN_base_12-36_looped_10minWORKING,2022.2.4,None,
37,PRED,12,1.0230517175721179,1,images/picture_2.png,images/picture_1.png,0,"[-11.733433509789462, 11.733433509789464]",-11.733433509789462,11.733433509789464,images/picture_2.png,1,"[11.733433509789462, -11.733433509789466]",11.733433509789462,-11.733433509789464,images/picture_3.png,2,"[-11.733433509789466, -11.733433509789462]",-11.733433509789464,-11.733433509789462,0,1,1,1.0230517175721179,2.023051717572118,0.976948282427882,3,1,1.773051717572118,0,4,0,4,0,0,0,0,1,,,,,,,0.003938750014640391,272.07879187504295,272.07879187504295,273.0909378749784,273.8574390000431,274.0906520000426,274.0906520000426,274.0906520000426,275.07729537494015,275.07729537494015,275.07729537494015,275.07729537494015,4.009058792027645,276.1106205829419,200002,205,2023-03-21_16h19.06.375,DMS_BEST_eyetracking_DAN_base_12-36_looped_10minWORKING,2022.2.4,None,
42,PRED,12,0.7702598979038506,1,images/picture_2.png,images/picture_1.png,0,"[-11.733433509789466, -11.733433509789462]",-11.733433509789464,-11.733433509789462,images/picture_2.png,1,"[11.733433509789462, -11.733433509789466]",11.733433509789462,-11.733433509789464,images/picture_3.png,2,"[-11.733433509789462, 11.733433509789464]",-11.733433509789462,11.733433509789464,0,1,1,0.7702598979038506,1.7702598979038506,1.2297401020961494,3,1,1.5202598979038506,0,4,0,4,0,0,1,1,6,,,,,,,,,,,,,,,,,,,,,200002,205,2023-03-21_16h19.06.375,DMS_BEST_eyetracking_DAN_base_12-36_looped_10minWORKING,2022.2.4,None,
42,PRED,12,0.7702598979038506,1,images/picture_2.png,images/picture_1.png,0,"[-11.733433509789466, -11.733433509789462]",-11.733433509789464,-11.733433509789462,images/picture_2.png,1,"[11.733433509789462, -11.733433509789466]",11.733433509789462,-11.733433509789464,images/picture_3.png,2,"[-11.733433509789462, 11.733433509789464]",-11.733433509789462,11.733433509789464,0,1,1,0.7702598979038506,1.7702598979038506,1.2297401020961494,3,1,1.5202598979038506,0,4,0,4,0,0,1,1,6,,,,,,,0.00479525001719594,276.1106205829419,276.1106205829419,277.12401095801033,277.64246462495066,277.85710762499366,277.85710762499366,277.85710762499366,279.0904776250245,279.0904776250245,279.0904776250245,279.0904776250245,4.030827875016257,280.09097599994857,200002,205,2023-03-21_16h19.06.375,DMS_BEST_eyetracking_DAN_base_12-36_looped_10minWORKING,2022.2.4,None,
43,PRED,12,1.0491805574578574,1,images/picture_2.png,images/picture_1.png,0,"[-11.733433509789466, -11.733433509789462]",-11.733433509789464,-11.733433509789462,images/picture_2.png,1,"[11.733433509789462, -11.733433509789466]",11.733433509789462,-11.733433509789464,images/picture_3.png,2,"[-11.733433509789462, 11.733433509789464]",-11.733433509789462,11.733433509789464,0,1,1,1.0491805574578574,2.049180557457857,0.9508194425421426,3,1,1.7991805574578574,0,4,0,4,0,0,2,2,7,,,,,,,,,,,,,,,,,,,,,200002,205,2023-03-21_16h19.06.375,DMS_BEST_eyetracking_DAN_base_12-36_looped_10minWORKING,2022.2.4,None,
43,PRED,12,1.0491805574578574,1,images/picture_2.png,images/picture_1.png,0,"[-11.733433509789466, -11.733433509789462]",-11.733433509789464,-11.733433509789462,images/picture_2.png,1,"[11.733433509789462, -11.733433509789466]",11.733433509789462,-11.733433509789464,images/picture_3.png,2,"[-11.733433509789462, 11.733433509789464]",-11.733433509789462,11.733433509789464,0,1,1,1.0491805574578574,2.049180557457857,0.9508194425421426,3,1,1.7991805574578574,0,4,0,4,0,0,2,2,7,,,,,,,0.0047782500041648746,280.1435389580438,280.1435389580438,281.1576333330013,281.9575694579398,282.17690866603516,282.17690866603516,282.17690866603516,283.124188582995,283.1432937500067,283.1432937500067,283.1432937500067,4.0296560829738155,284.1242841250496,200002,205,2023-03-21_16h19.06.375,DMS_BEST_eyetracking_DAN_base_12-36_looped_10minWORKING,2022.2.4,None,
40,PRED,12,0.5916486349054291,1,images/picture_2.png,images/picture_1.png,0,"[11.733433509789462, -11.733433509789466]",11.733433509789462,-11.733433509789464,images/picture_2.png,1,"[-11.733433509789462, 11.733433509789464]",-11.733433509789462,11.733433509789464,images/picture_3.png,2,"[11.733433509789464, 11.733433509789462]",11.733433509789464,11.733433509789462,0,1,1,0.5916486349054291,1.5916486349054288,1.4083513650945712,3,1,1.3416486349054288,0,4,0,4,0,0,3,3,4,,,,,,,,,,,,,,,,,,,,,200002,205,2023-03-21_16h19.06.375,DMS_BEST_eyetracking_DAN_base_12-36_looped_10minWORKING,2022.2.4,None,
40,PRED,12,0.5916486349054291,1,images/picture_2.png,images/picture_1.png,0,"[11.733433509789462, -11.733433509789466]",11.733433509789462,-11.733433509789464,images/picture_2.png,1,"[-11.733433509789462, 11.733433509789464]",-11.733433509789462,11.733433509789464,images/picture_3.png,2,"[11.733433509789464, 11.733433509789462]",11.733433509789464,11.733433509789462,0,1,1,0.5916486349054291,1.5916486349054288,1.4083513650945712,3,1,1.3416486349054288,0,4,0,4,0,0,3,3,4,,,,,,,0.0049237500643357635,284.1767387910513,284.1767387910513,285.1909150000429,285.5242703750264,285.74337120796554,285.74337120796554,285.74337120796554,287.1574492909713,287.1574492909713,287.1574492909713,287.1574492909713,4.029646916082129,288.1573276659474,200002,205,2023-03-21_16h19.06.375,DMS_BEST_eyetracking_DAN_base_12-36_looped_10minWORKING,2022.2.4,None,
41,PRED,12,0.7344792667347649,1,images/picture_2.png,images/picture_1.png,0,"[11.733433509789464, 11.733433509789462]",11.733433509789464,11.733433509789462,images/picture_2.png,1,"[-11.733433509789466, -11.733433509789462]",-11.733433509789464,-11.733433509789462,images/picture_3.png,2,"[11.733433509789462, -11.733433509789466]",11.733433509789462,-11.733433509789464,0,1,1,0.7344792667347649,1.7344792667347648,1.2655207332652352,3,1,1.4844792667347648,0,4,0,4,0,0,4,4,5,,,,,,,,,,,,,,,,,,,,,200002,205,2023-03-21_16h19.06.375,DMS_BEST_eyetracking_DAN_base_12-36_looped_10minWORKING,2022.2.4,None,
41,PRED,12,0.7344792667347649,1,images/picture_2.png,images/picture_1.png,0,"[11.733433509789464, 11.733433509789462]",11.733433509789464,11.733433509789462,images/picture_2.png,1,"[-11.733433509789466, -11.733433509789462]",-11.733433509789464,-11.733433509789462,images/picture_3.png,2,"[11.733433509789462, -11.733433509789466]",11.733433509789462,-11.733433509789464,0,1,1,0.7344792667347649,1.7344792667347648,1.2655207332652352,3,1,1.4844792667347648,0,4,0,4,0,0,4,4,5,,,,,,,0.004920499981380999,288.2101544579491,288.2101544579491,289.22380466596223,289.71000383305363,289.9239130410133,289.9239130410133,289.9239130410133,291.1908314579632,291.1908314579632,291.1908314579632,291.1908314579632,4.030510541982949,292.19063708302565,200002,205,2023-03-21_16h19.06.375,DMS_BEST_eyetracking_DAN_base_12-36_looped_10minWORKING,2022.2.4,None,
44,PRED,12,0.6225237837315089,1,images/picture_2.png,images/picture_1.png,0,"[11.733433509789462, -11.733433509789466]",11.733433509789462,-11.733433509789464,images/picture_2.png,1,"[-11.733433509789462, 11.733433509789464]",-11.733433509789462,11.733433509789464,images/picture_3.png,2,"[11.733433509789464, 11.733433509789462]",11.733433509789464,11.733433509789462,0,1,1,0.6225237837315089,1.6225237837315087,1.3774762162684913,3,1,1.3725237837315087,0,4,0,4,0,0,5,5,8,,,,,,,,,,,,,,,,,,,,,200002,205,2023-03-21_16h19.06.375,DMS_BEST_eyetracking_DAN_base_12-36_looped_10minWORKING,2022.2.4,None,
44,PRED,12,0.6225237837315089,1,images/picture_2.png,images/picture_1.png,0,"[11.733433509789462, -11.733433509789466]",11.733433509789462,-11.733433509789464,images/picture_2.png,1,"[-11.733433509789462, 11.733433509789464]",-11.733433509789462,11.733433509789464,images/picture_3.png,2,"[11.733433509789464, 11.733433509789462]",11.733433509789464,11.733433509789462,0,1,1,0.6225237837315089,1.6225237837315087,1.3774762162684913,3,1,1.3725237837315087,0,4,0,4,0,0,5,5,8,,,,,,,0.0047851670533418655,292.2441624579951,292.2441624579951,293.2574957499746,293.6243182909675,293.843644166016,293.843644166016,293.843644166016,295.2239733330207,295.2239733330207,295.2239733330207,295.2239733330207,4.0299351250287145,296.2241600829875,200002,205,2023-03-21_16h19.06.375,DMS_BEST_eyetracking_DAN_base_12-36_looped_10minWORKING,2022.2.4,None,
36,PRED,12,0.9561601853911228,1,images/picture_2.png,images/picture_1.png,0,"[-11.733433509789466, -11.733433509789462]",-11.733433509789464,-11.733433509789462,images/picture_2.png,1,"[11.733433509789462, -11.733433509789466]",11.733433509789462,-11.733433509789464,images/picture_3.png,2,"[11.733433509789464, 11.733433509789462]",11.733433509789464,11.733433509789462,0,1,1,0.9561601853911228,1.9561601853911228,1.0438398146088772,3,1,1.7061601853911228,0,4,0,4,0,0,6,6,0,,,,,,,,,,,,,,,,,,,,,200002,205,2023-03-21_16h19.06.375,DMS_BEST_eyetracking_DAN_base_12-36_looped_10minWORKING,2022.2.4,None,
36,PRED,12,0.9561601853911228,1,images/picture_2.png,images/picture_1.png,0,"[-11.733433509789466, -11.733433509789462]",-11.733433509789464,-11.733433509789462,images/picture_2.png,1,"[11.733433509789462, -11.733433509789466]",11.733433509789462,-11.733433509789464,images/picture_3.png,2,"[11.733433509789464, 11.733433509789462]",11.733433509789464,11.733433509789462,0,1,1,0.9561601853911228,1.9561601853911228,1.0438398146088772,3,1,1.7061601853911228,0,4,0,4,0,0,6,6,0,,,,,,,0.004832542035728693,296.2772378330119,296.2772378330119,297.2909094579518,297.99090516602155,298.2104840410175,298.2104840410175,298.2104840410175,299.257163207978,299.257163207978,299.257163207978,299.257163207978,4.030686166952364,300.25752541597467,200002,205,2023-03-21_16h19.06.375,DMS_BEST_eyetracking_DAN_base_12-36_looped_10minWORKING,2022.2.4,None,
39,PRED,12,1.1412613374133358,1,images/picture_2.png,images/picture_1.png,0,"[-11.733433509789466, -11.733433509789462]",-11.733433509789464,-11.733433509789462,images/picture_2.png,1,"[-11.733433509789462, 11.733433509789464]",-11.733433509789462,11.733433509789464,images/picture_3.png,2,"[11.733433509789462, -11.733433509789466]",11.733433509789462,-11.733433509789464,0,1,1,1.1412613374133358,2.141261337413336,0.8587386625866641,3,1,1.891261337413336,0,4,0,4,0,0,7,7,3,,,,,,,,,,,,,,,,,,,,,200002,205,2023-03-21_16h19.06.375,DMS_BEST_eyetracking_DAN_base_12-36_looped_10minWORKING,2022.2.4,None,
39,PRED,12,1.1412613374133358,1,images/picture_2.png,images/picture_1.png,0,"[-11.733433509789466, -11.733433509789462]",-11.733433509789464,-11.733433509789462,images/picture_2.png,1,"[-11.733433509789462, 11.733433509789464]",-11.733433509789462,11.733433509789464,images/picture_3.png,2,"[11.733433509789462, -11.733433509789466]",11.733433509789462,-11.733433509789464,0,1,1,1.1412613374133358,2.141261337413336,0.8587386625866641,3,1,1.891261337413336,0,4,0,4,0,0,7,7,3,,,,,,,0.005257040960714221,300.3102672500536,300.3102672500536,301.32400270795915,302.210156874964,302.42417729098815,302.42417729098815,302.42417729098815,303.2908184999833,303.2908184999833,303.2908184999833,303.2908184999833,4.028785082977265,304.2906709579984,200002,205,2023-03-21_16h19.06.375,DMS_BEST_eyetracking_DAN_base_12-36_looped_10minWORKING,2022.2.4,None,
38,PRED,12,1.0691792809188656,1,images/picture_2.png,images/picture_1.png,0,"[11.733433509789464, 11.733433509789462]",11.733433509789464,11.733433509789462,images/picture_2.png,1,"[11.733433509789462, -11.733433509789466]",11.733433509789462,-11.733433509789464,images/picture_3.png,2,"[-11.733433509789466, -11.733433509789462]",-11.733433509789464,-11.733433509789462,0,1,1,1.0691792809188656,2.0691792809188656,0.9308207190811344,3,1,1.8191792809188656,0,4,0,4,0,0,8,8,2,,,,,,,,,,,,,,,,,,,,,200002,205,2023-03-21_16h19.06.375,DMS_BEST_eyetracking_DAN_base_12-36_looped_10minWORKING,2022.2.4,None,
38,PRED,12,1.0691792809188656,1,images/picture_2.png,images/picture_1.png,0,"[11.733433509789464, 11.733433509789462]",11.733433509789464,11.733433509789462,images/picture_2.png,1,"[11.733433509789462, -11.733433509789466]",11.733433509789462,-11.733433509789464,images/picture_3.png,2,"[-11.733433509789466, -11.733433509789462]",-11.733433509789464,-11.733433509789462,0,1,1,1.0691792809188656,2.0691792809188656,0.9308207190811344,3,1,1.8191792809188656,0,4,0,4,0,0,8,8,2,,,,,,,0.004972000024281442,304.343512833002,304.343512833002,305.3574012500467,306.1769592909841,306.39064645802137,306.39064645802137,306.39064645802137,307.3239791659871,307.3239791659871,307.3239791659871,307.3239791659871,4.029601625050418,308.3240731250262,200002,205,2023-03-21_16h19.06.375,DMS_BEST_eyetracking_DAN_base_12-36_looped_10minWORKING,2022.2.4,None,
,,,,,,,,,,,,,,,,,,,,,,,,,,,,,,,4,0,4,0,,,,,,,,,308.4227676660521,320.44343891600147,,,,,,,,,,,,,,,200002,205,2023-03-21_16h19.06.375,DMS_BEST_eyetracking_DAN_base_12-36_looped_10minWORKING,2022.2.4,None,
49,UNPRED,12,0.7141309939766469,0,images/picture_1.png,images/picture_1.png,0,"[-11.733433509789462, 11.733433509789464]",-11.733433509789462,11.733433509789464,images/picture_2.png,1,"[-11.733433509789466, -11.733433509789462]",-11.733433509789464,-11.733433509789462,images/picture_3.png,2,"[11.733433509789462, -11.733433509789466]",11.733433509789462,-11.733433509789464,0,1,1,0.7141309939766469,1.714130993976647,1.285869006023353,3,1,1.464130993976647,0,5,0,5,0,0,0,0,4,,,,,,,,,,,,,,,,,,,,,200002,205,2023-03-21_16h19.06.375,DMS_BEST_eyetracking_DAN_base_12-36_looped_10minWORKING,2022.2.4,None,
49,UNPRED,12,0.7141309939766469,0,images/picture_1.png,images/picture_1.png,0,"[-11.733433509789462, 11.733433509789464]",-11.733433509789462,11.733433509789464,images/picture_2.png,1,"[-11.733433509789466, -11.733433509789462]",-11.733433509789464,-11.733433509789462,images/picture_3.png,2,"[11.733433509789462, -11.733433509789466]",11.733433509789462,-11.733433509789464,0,1,1,0.7141309939766469,1.714130993976647,1.285869006023353,3,1,1.464130993976647,0,5,0,5,0,0,0,0,4,,,,,,,0.0033810000168159604,320.44343891600147,320.44343891600147,321.45758279098663,321.90971787495073,322.1572968750261,322.1572968750261,322.1572968750261,323.4431555409683,323.4575476249447,323.4575476249447,323.4575476249447,4.012956875027157,324.4759257079568,200002,205,2023-03-21_16h19.06.375,DMS_BEST_eyetracking_DAN_base_12-36_looped_10minWORKING,2022.2.4,None,
46,UNPRED,12,0.9098081224756968,2,images/picture_3.png,images/picture_1.png,0,"[11.733433509789462, -11.733433509789466]",11.733433509789462,-11.733433509789464,images/picture_2.png,1,"[-11.733433509789462, 11.733433509789464]",-11.733433509789462,11.733433509789464,images/picture_3.png,2,"[-11.733433509789466, -11.733433509789462]",-11.733433509789464,-11.733433509789462,0,1,1,0.9098081224756968,1.9098081224756969,1.0901918775243034,3,1,1.6598081224756966,0,5,0,5,0,0,1,1,1,,,,,,,,,,,,,,,,,,,,,200002,205,2023-03-21_16h19.06.375,DMS_BEST_eyetracking_DAN_base_12-36_looped_10minWORKING,2022.2.4,None,
46,UNPRED,12,0.9098081224756968,2,images/picture_3.png,images/picture_1.png,0,"[11.733433509789462, -11.733433509789466]",11.733433509789462,-11.733433509789464,images/picture_2.png,1,"[-11.733433509789462, 11.733433509789464]",-11.733433509789462,11.733433509789464,images/picture_3.png,2,"[-11.733433509789466, -11.733433509789462]",-11.733433509789464,-11.733433509789462,0,1,1,0.9098081224756968,1.9098081224756969,1.0901918775243034,3,1,1.6598081224756966,0,5,0,5,0,0,1,1,1,,,,,,,0.004487541038542986,324.4759257079568,324.4759257079568,325.49093254096806,326.1435010000132,326.35692941595335,326.35692941595335,326.35692941595335,327.45754795800894,327.45754795800894,327.45754795800894,327.45754795800894,4.028767875046469,328.45742658304516,200002,205,2023-03-21_16h19.06.375,DMS_BEST_eyetracking_DAN_base_12-36_looped_10minWORKING,2022.2.4,None,
52,UNPRED,12,1.0173599813360503,1,images/picture_2.png,images/picture_1.png,0,"[-11.733433509789462, 11.733433509789464]",-11.733433509789462,11.733433509789464,images/picture_2.png,1,"[11.733433509789462, -11.733433509789466]",11.733433509789462,-11.733433509789464,images/picture_3.png,2,"[11.733433509789464, 11.733433509789462]",11.733433509789464,11.733433509789462,0,1,1,1.0173599813360503,2.0173599813360505,0.9826400186639496,3,1,1.7673599813360503,0,5,0,5,0,0,2,2,7,,,,,,,,,,,,,,,,,,,,,200002,205,2023-03-21_16h19.06.375,DMS_BEST_eyetracking_DAN_base_12-36_looped_10minWORKING,2022.2.4,None,
52,UNPRED,12,1.0173599813360503,1,images/picture_2.png,images/picture_1.png,0,"[-11.733433509789462, 11.733433509789464]",-11.733433509789462,11.733433509789464,images/picture_2.png,1,"[11.733433509789462, -11.733433509789466]",11.733433509789462,-11.733433509789464,images/picture_3.png,2,"[11.733433509789464, 11.733433509789462]",11.733433509789464,11.733433509789462,0,1,1,1.0173599813360503,2.0173599813360505,0.9826400186639496,3,1,1.7673599813360503,0,5,0,5,0,0,2,2,7,,,,,,,0.004741832963190973,328.5092824159656,328.5092824159656,329.5240459579509,330.29071683296934,330.51016912504565,330.51016912504565,330.51016912504565,331.4907785409596,331.4907785409596,331.4907785409596,331.4907785409596,4.030137666966766,332.4905233749887,200002,205,2023-03-21_16h19.06.375,DMS_BEST_eyetracking_DAN_base_12-36_looped_10minWORKING,2022.2.4,None,
51,UNPRED,12,1.1214837697791562,2,images/picture_3.png,images/picture_1.png,0,"[-11.733433509789466, -11.733433509789462]",-11.733433509789464,-11.733433509789462,images/picture_2.png,1,"[-11.733433509789462, 11.733433509789464]",-11.733433509789462,11.733433509789464,images/picture_3.png,2,"[11.733433509789464, 11.733433509789462]",11.733433509789464,11.733433509789462,0,1,1,1.1214837697791562,2.1214837697791564,0.8785162302208438,3,1,1.8714837697791564,0,5,0,5,0,0,3,3,6,,,,,,,,,,,,,,,,,,,,,200002,205,2023-03-21_16h19.06.375,DMS_BEST_eyetracking_DAN_base_12-36_looped_10minWORKING,2022.2.4,None,
51,UNPRED,12,1.1214837697791562,2,images/picture_3.png,images/picture_1.png,0,"[-11.733433509789466, -11.733433509789462]",-11.733433509789464,-11.733433509789462,images/picture_2.png,1,"[-11.733433509789462, 11.733433509789464]",-11.733433509789462,11.733433509789464,images/picture_3.png,2,"[11.733433509789464, 11.733433509789462]",11.733433509789464,11.733433509789462,0,1,1,1.1214837697791562,2.1214837697791564,0.8785162302208438,3,1,1.8714837697791564,0,5,0,5,0,0,3,3,6,,,,,,,0.002600374980829656,332.52381320798304,332.52381320798304,333.5242535410216,334.41016337496694,334.6436584580224,334.6436584580224,334.6436584580224,335.524194541038,335.524194541038,335.524194541038,335.524194541038,3.9981950420187786,336.5235642079497,200002,205,2023-03-21_16h19.06.375,DMS_BEST_eyetracking_DAN_base_12-36_looped_10minWORKING,2022.2.4,None,
50,UNPRED,12,0.9053229615995856,0,images/picture_1.png,images/picture_1.png,0,"[11.733433509789462, -11.733433509789466]",11.733433509789462,-11.733433509789464,images/picture_2.png,1,"[-11.733433509789466, -11.733433509789462]",-11.733433509789464,-11.733433509789462,images/picture_3.png,2,"[11.733433509789464, 11.733433509789462]",11.733433509789464,11.733433509789462,0,1,1,0.9053229615995856,1.9053229615995853,1.0946770384004143,3,1,1.6553229615995857,0,5,0,5,0,0,4,4,5,,,,,,,,,,,,,,,,,,,,,200002,205,2023-03-21_16h19.06.375,DMS_BEST_eyetracking_DAN_base_12-36_looped_10minWORKING,2022.2.4,None,
50,UNPRED,12,0.9053229615995856,0,images/picture_1.png,images/picture_1.png,0,"[11.733433509789462, -11.733433509789466]",11.733433509789462,-11.733433509789464,images/picture_2.png,1,"[-11.733433509789466, -11.733433509789462]",-11.733433509789464,-11.733433509789462,images/picture_3.png,2,"[11.733433509789464, 11.733433509789462]",11.733433509789464,11.733433509789462,0,1,1,0.9053229615995856,1.9053229615995853,1.0946770384004143,3,1,1.6553229615995857,0,5,0,5,0,0,4,4,5,,,,,,,0.003285209066234529,336.5235642079497,336.5235642079497,337.52423579094466,338.1908553750254,338.42421454098076,338.42421454098076,338.42421454098076,339.5781189580448,339.5781189580448,339.5781189580448,339.5781189580448,3.996722709038295,340.6094173749443,200002,205,2023-03-21_16h19.06.375,DMS_BEST_eyetracking_DAN_base_12-36_looped_10minWORKING,2022.2.4,None,
53,UNPRED,12,0.7813206496036067,1,images/picture_2.png,images/picture_1.png,0,"[-11.733433509789466, -11.733433509789462]",-11.733433509789464,-11.733433509789462,images/picture_2.png,1,"[11.733433509789462, -11.733433509789466]",11.733433509789462,-11.733433509789464,images/picture_3.png,2,"[11.733433509789464, 11.733433509789462]",11.733433509789464,11.733433509789462,0,1,1,0.7813206496036067,1.7813206496036067,1.2186793503963933,3,1,1.5313206496036067,0,5,0,5,0,0,5,5,8,,,,,,,,,,,,,,,,,,,,,200002,205,2023-03-21_16h19.06.375,DMS_BEST_eyetracking_DAN_base_12-36_looped_10minWORKING,2022.2.4,None,
53,UNPRED,12,0.7813206496036067,1,images/picture_2.png,images/picture_1.png,0,"[-11.733433509789466, -11.733433509789462]",-11.733433509789464,-11.733433509789462,images/picture_2.png,1,"[11.733433509789462, -11.733433509789466]",11.733433509789462,-11.733433509789464,images/picture_3.png,2,"[11.733433509789464, 11.733433509789462]",11.733433509789464,11.733433509789462,0,1,1,0.7813206496036067,1.7813206496036067,1.2186793503963933,3,1,1.5313206496036067,0,5,0,5,0,0,5,5,8,,,,,,,0.0052096250001341105,340.6094173749443,340.6094173749443,341.62431350001134,342.142973082955,342.3571692080004,342.3571692080004,342.3571692080004,343.5910179159837,343.5910179159837,343.5910179159837,343.5910179159837,4.030572792049497,344.5908822499914,200002,205,2023-03-21_16h19.06.375,DMS_BEST_eyetracking_DAN_base_12-36_looped_10minWORKING,2022.2.4,None,
47,UNPRED,12,0.684618321706803,0,images/picture_1.png,images/picture_1.png,0,"[11.733433509789462, -11.733433509789466]",11.733433509789462,-11.733433509789464,images/picture_2.png,1,"[-11.733433509789466, -11.733433509789462]",-11.733433509789464,-11.733433509789462,images/picture_3.png,2,"[-11.733433509789462, 11.733433509789464]",-11.733433509789462,11.733433509789464,0,1,1,0.684618321706803,1.6846183217068031,1.315381678293197,3,1,1.4346183217068031,0,5,0,5,0,0,6,6,2,,,,,,,,,,,,,,,,,,,,,200002,205,2023-03-21_16h19.06.375,DMS_BEST_eyetracking_DAN_base_12-36_looped_10minWORKING,2022.2.4,None,
47,UNPRED,12,0.684618321706803,0,images/picture_1.png,images/picture_1.png,0,"[11.733433509789462, -11.733433509789466]",11.733433509789462,-11.733433509789464,images/picture_2.png,1,"[-11.733433509789466, -11.733433509789462]",-11.733433509789464,-11.733433509789462,images/picture_3.png,2,"[-11.733433509789462, 11.733433509789464]",-11.733433509789462,11.733433509789464,0,1,1,0.684618321706803,1.6846183217068031,1.315381678293197,3,1,1.4346183217068031,0,5,0,5,0,0,6,6,2,,,,,,,0.0035498749930411577,344.62427154101897,344.62427154101897,345.6242072080495,346.05744116602,346.31017624994274,346.31017624994274,346.31017624994274,347.62425716605503,347.62425716605503,347.62425716605503,347.62425716605503,3.9982947079697624,348.62648416601587,200002,205,2023-03-21_16h19.06.375,DMS_BEST_eyetracking_DAN_base_12-36_looped_10minWORKING,2022.2.4,None,
45,UNPRED,12,1.0903629626807434,0,images/picture_1.png,images/picture_1.png,0,"[11.733433509789462, -11.733433509789466]",11.733433509789462,-11.733433509789464,images/picture_2.png,1,"[-11.733433509789462, 11.733433509789464]",-11.733433509789462,11.733433509789464,images/picture_3.png,2,"[-11.733433509789466, -11.733433509789462]",-11.733433509789464,-11.733433509789462,0,1,1,1.0903629626807434,2.0903629626807434,0.9096370373192566,3,1,1.8403629626807436,0,5,0,5,0,0,7,7,0,,,,,,,,,,,,,,,,,,,,,200002,205,2023-03-21_16h19.06.375,DMS_BEST_eyetracking_DAN_base_12-36_looped_10minWORKING,2022.2.4,None,
45,UNPRED,12,1.0903629626807434,0,images/picture_1.png,images/picture_1.png,0,"[11.733433509789462, -11.733433509789466]",11.733433509789462,-11.733433509789464,images/picture_2.png,1,"[-11.733433509789462, 11.733433509789464]",-11.733433509789462,11.733433509789464,images/picture_3.png,2,"[-11.733433509789466, -11.733433509789462]",-11.733433509789464,-11.733433509789462,0,1,1,1.0903629626807434,2.0903629626807434,0.9096370373192566,3,1,1.8403629626807436,0,5,0,5,0,0,7,7,0,,,,,,,0.0033850829349830747,348.62648416601587,348.62648416601587,349.62417612504214,350.47582695796154,350.70955233299173,350.70955233299173,350.70955233299173,351.62407654104754,351.62407654104754,351.62407654104754,351.62407654104754,3.9965508750174195,352.62592595804017,200002,205,2023-03-21_16h19.06.375,DMS_BEST_eyetracking_DAN_base_12-36_looped_10minWORKING,2022.2.4,None,
48,UNPRED,12,1.124635528968927,0,images/picture_1.png,images/picture_1.png,0,"[11.733433509789464, 11.733433509789462]",11.733433509789464,11.733433509789462,images/picture_2.png,1,"[-11.733433509789462, 11.733433509789464]",-11.733433509789462,11.733433509789464,images/picture_3.png,2,"[-11.733433509789466, -11.733433509789462]",-11.733433509789464,-11.733433509789462,0,1,1,1.124635528968927,2.1246355289689265,0.8753644710310731,3,1,1.8746355289689267,0,5,0,5,0,0,8,8,3,,,,,,,,,,,,,,,,,,,,,200002,205,2023-03-21_16h19.06.375,DMS_BEST_eyetracking_DAN_base_12-36_looped_10minWORKING,2022.2.4,None,
48,UNPRED,12,1.124635528968927,0,images/picture_1.png,images/picture_1.png,0,"[11.733433509789464, 11.733433509789462]",11.733433509789464,11.733433509789462,images/picture_2.png,1,"[-11.733433509789462, 11.733433509789464]",-11.733433509789462,11.733433509789464,images/picture_3.png,2,"[-11.733433509789466, -11.733433509789462]",-11.733433509789464,-11.733433509789462,0,1,1,1.124635528968927,2.1246355289689265,0.8753644710310731,3,1,1.8746355289689267,0,5,0,5,0,0,8,8,3,,,,,,,0.0034582080552354455,352.62592595804017,352.62592595804017,353.624299832969,354.51026708295103,354.7434927079594,354.7434927079594,354.7434927079594,355.6242263750173,355.6242263750173,355.6242263750173,355.6242263750173,3.9971443749964237,356.7077457079431,200002,205,2023-03-21_16h19.06.375,DMS_BEST_eyetracking_DAN_base_12-36_looped_10minWORKING,2022.2.4,None,
,,,,,,,,,,,,,,,,,,,,,,,,,,,,,,,5,0,5,0,,,,,,,,,356.7077457079431,368.7270667910343,,,,,,,,,,,,,,,200002,205,2023-03-21_16h19.06.375,DMS_BEST_eyetracking_DAN_base_12-36_looped_10minWORKING,2022.2.4,None,
58,PRED,12,0.8508145479831493,0,images/picture_1.png,images/picture_1.png,0,"[11.733433509789464, 11.733433509789462]",11.733433509789464,11.733433509789462,images/picture_2.png,1,"[-11.733433509789466, -11.733433509789462]",-11.733433509789464,-11.733433509789462,images/picture_3.png,2,"[11.733433509789462, -11.733433509789466]",11.733433509789462,-11.733433509789464,0,1,1,0.8508145479831493,1.8508145479831493,1.1491854520168507,3,1,1.6008145479831493,0,6,0,6,0,0,0,0,4,,,,,,,,,,,,,,,,,,,,,200002,205,2023-03-21_16h19.06.375,DMS_BEST_eyetracking_DAN_base_12-36_looped_10minWORKING,2022.2.4,None,
58,PRED,12,0.8508145479831493,0,images/picture_1.png,images/picture_1.png,0,"[11.733433509789464, 11.733433509789462]",11.733433509789464,11.733433509789462,images/picture_2.png,1,"[-11.733433509789466, -11.733433509789462]",-11.733433509789464,-11.733433509789462,images/picture_3.png,2,"[11.733433509789462, -11.733433509789466]",11.733433509789462,-11.733433509789464,0,1,1,0.8508145479831493,1.8508145479831493,1.1491854520168507,3,1,1.6008145479831493,0,6,0,6,0,0,0,0,4,,,,,,,0.002996583003550768,368.7270667910343,368.7270667910343,369.7243327080505,370.34295737498906,370.576016832958,370.576016832958,370.576016832958,371.7243225410348,371.7243225410348,371.7243225410348,371.7243225410348,3.99378991604317,372.7432867080206,200002,205,2023-03-21_16h19.06.375,DMS_BEST_eyetracking_DAN_base_12-36_looped_10minWORKING,2022.2.4,None,
62,PRED,12,0.941834416963318,0,images/picture_1.png,images/picture_1.png,0,"[-11.733433509789462, 11.733433509789464]",-11.733433509789462,11.733433509789464,images/picture_2.png,1,"[11.733433509789462, -11.733433509789466]",11.733433509789462,-11.733433509789464,images/picture_3.png,2,"[11.733433509789464, 11.733433509789462]",11.733433509789464,11.733433509789462,0,1,1,0.941834416963318,1.9418344169633184,1.0581655830366818,3,1,1.6918344169633182,0,6,0,6,0,0,1,1,8,,,,,,,,,,,,,,,,,,,,,200002,205,2023-03-21_16h19.06.375,DMS_BEST_eyetracking_DAN_base_12-36_looped_10minWORKING,2022.2.4,None,
62,PRED,12,0.941834416963318,0,images/picture_1.png,images/picture_1.png,0,"[-11.733433509789462, 11.733433509789464]",-11.733433509789462,11.733433509789464,images/picture_2.png,1,"[11.733433509789462, -11.733433509789466]",11.733433509789462,-11.733433509789464,images/picture_3.png,2,"[11.733433509789464, 11.733433509789462]",11.733433509789464,11.733433509789462,0,1,1,0.941834416963318,1.9418344169633184,1.0581655830366818,3,1,1.6918344169633182,0,6,0,6,0,0,1,1,8,,,,,,,0.0034999160561710596,372.7432867080206,372.7432867080206,373.75734395801555,374.44248020800296,374.6572880829917,374.6572880829917,374.6572880829917,375.72413962497376,375.72413962497376,375.72413962497376,375.72413962497376,4.029921791050583,376.7243010830134,200002,205,2023-03-21_16h19.06.375,DMS_BEST_eyetracking_DAN_base_12-36_looped_10minWORKING,2022.2.4,None,
56,PRED,12,0.8611813597073736,0,images/picture_1.png,images/picture_1.png,0,"[11.733433509789464, 11.733433509789462]",11.733433509789464,11.733433509789462,images/picture_2.png,1,"[-11.733433509789466, -11.733433509789462]",-11.733433509789464,-11.733433509789462,images/picture_3.png,2,"[-11.733433509789462, 11.733433509789464]",-11.733433509789462,11.733433509789464,0,1,1,0.8611813597073736,1.8611813597073736,1.1388186402926264,3,1,1.6111813597073736,0,6,0,6,0,0,2,2,2,,,,,,,,,,,,,,,,,,,,,200002,205,2023-03-21_16h19.06.375,DMS_BEST_eyetracking_DAN_base_12-36_looped_10minWORKING,2022.2.4,None,
56,PRED,12,0.8611813597073736,0,images/picture_1.png,images/picture_1.png,0,"[11.733433509789464, 11.733433509789462]",11.733433509789464,11.733433509789462,images/picture_2.png,1,"[-11.733433509789466, -11.733433509789462]",-11.733433509789464,-11.733433509789462,images/picture_3.png,2,"[-11.733433509789462, 11.733433509789464]",-11.733433509789462,11.733433509789464,0,1,1,0.8611813597073736,1.8611813597073736,1.1388186402926264,3,1,1.6111813597073736,0,6,0,6,0,0,2,2,2,,,,,,,0.003493292024359107,376.7769458750263,376.7769458750263,377.7909128749743,378.3909227499971,378.61019058304373,378.61019058304373,378.61019058304373,379.7575917500071,379.7575917500071,379.7575917500071,379.7575917500071,4.029032250051387,380.7570913330419,200002,205,2023-03-21_16h19.06.375,DMS_BEST_eyetracking_DAN_base_12-36_looped_10minWORKING,2022.2.4,None,
55,PRED,12,0.6276368720464675,0,images/picture_1.png,images/picture_1.png,0,"[11.733433509789462, -11.733433509789466]",11.733433509789462,-11.733433509789464,images/picture_2.png,1,"[11.733433509789464, 11.733433509789462]",11.733433509789464,11.733433509789462,images/picture_3.png,2,"[-11.733433509789462, 11.733433509789464]",-11.733433509789462,11.733433509789464,0,1,1,0.6276368720464675,1.6276368720464671,1.3723631279535329,3,1,1.3776368720464671,0,6,0,6,0,0,3,3,1,,,,,,,,,,,,,,,,,,,,,200002,205,2023-03-21_16h19.06.375,DMS_BEST_eyetracking_DAN_base_12-36_looped_10minWORKING,2022.2.4,None,
55,PRED,12,0.6276368720464675,0,images/picture_1.png,images/picture_1.png,0,"[11.733433509789462, -11.733433509789466]",11.733433509789462,-11.733433509789464,images/picture_2.png,1,"[11.733433509789464, 11.733433509789462]",11.733433509789464,11.733433509789462,images/picture_3.png,2,"[-11.733433509789462, 11.733433509789464]",-11.733433509789462,11.733433509789464,0,1,1,0.6276368720464675,1.6276368720464671,1.3723631279535329,3,1,1.3776368720464671,0,6,0,6,0,0,3,3,1,,,,,,,0.0013940420467406511,380.79076520795934,380.79076520795934,381.79087737505324,382.17707308300305,382.4109440409811,382.4109440409811,382.4109440409811,383.79096579097677,383.79096579097677,383.79096579097677,383.79096579097677,3.999311499996111,384.7916006660089,200002,205,2023-03-21_16h19.06.375,DMS_BEST_eyetracking_DAN_base_12-36_looped_10minWORKING,2022.2.4,None,
54,PRED,12,0.6107314787361343,0,images/picture_1.png,images/picture_1.png,0,"[-11.733433509789466, -11.733433509789462]",-11.733433509789464,-11.733433509789462,images/picture_2.png,1,"[11.733433509789462, -11.733433509789466]",11.733433509789462,-11.733433509789464,images/picture_3.png,2,"[11.733433509789464, 11.733433509789462]",11.733433509789464,11.733433509789462,0,1,1,0.6107314787361343,1.6107314787361342,1.3892685212638658,3,1,1.3607314787361342,0,6,0,6,0,0,4,4,0,,,,,,,,,,,,,,,,,,,,,200002,205,2023-03-21_16h19.06.375,DMS_BEST_eyetracking_DAN_base_12-36_looped_10minWORKING,2022.2.4,None,
54,PRED,12,0.6107314787361343,0,images/picture_1.png,images/picture_1.png,0,"[-11.733433509789466, -11.733433509789462]",-11.733433509789464,-11.733433509789462,images/picture_2.png,1,"[11.733433509789462, -11.733433509789466]",11.733433509789462,-11.733433509789464,images/picture_3.png,2,"[11.733433509789464, 11.733433509789462]",11.733433509789464,11.733433509789462,0,1,1,0.6107314787361343,1.6107314787361342,1.3892685212638658,3,1,1.3607314787361342,0,6,0,6,0,0,4,4,0,,,,,,,0.003345250035636127,384.7916006660089,384.7916006660089,385.7909128749743,386.1576328750234,386.39090162504,386.39090162504,386.39090162504,387.7908272079658,387.7908272079658,387.7908272079658,387.7908272079658,3.9977400000207126,388.8105844160309,200002,205,2023-03-21_16h19.06.375,DMS_BEST_eyetracking_DAN_base_12-36_looped_10minWORKING,2022.2.4,None,
61,PRED,12,1.064908681484013,0,images/picture_1.png,images/picture_1.png,0,"[-11.733433509789462, 11.733433509789464]",-11.733433509789462,11.733433509789464,images/picture_2.png,1,"[11.733433509789464, 11.733433509789462]",11.733433509789464,11.733433509789462,images/picture_3.png,2,"[11.733433509789462, -11.733433509789466]",11.733433509789462,-11.733433509789464,0,1,1,1.064908681484013,2.064908681484013,0.9350913185159871,3,1,1.8149086814840127,0,6,0,6,0,0,5,5,7,,,,,,,,,,,,,,,,,,,,,200002,205,2023-03-21_16h19.06.375,DMS_BEST_eyetracking_DAN_base_12-36_looped_10minWORKING,2022.2.4,None,
61,PRED,12,1.064908681484013,0,images/picture_1.png,images/picture_1.png,0,"[-11.733433509789462, 11.733433509789464]",-11.733433509789462,11.733433509789464,images/picture_2.png,1,"[11.733433509789464, 11.733433509789462]",11.733433509789464,11.733433509789462,images/picture_3.png,2,"[11.733433509789462, -11.733433509789466]",11.733433509789462,-11.733433509789464,0,1,1,1.064908681484013,2.064908681484013,0.9350913185159871,3,1,1.8149086814840127,0,6,0,6,0,0,5,5,7,,,,,,,0.003438082989305258,388.8105844160309,388.8105844160309,389.8243604579475,390.62393945804797,390.857082915958,390.857082915958,390.857082915958,391.79077487497125,391.79077487497125,391.79077487497125,391.79077487497125,4.030066957930103,392.7908248750027,200002,205,2023-03-21_16h19.06.375,DMS_BEST_eyetracking_DAN_base_12-36_looped_10minWORKING,2022.2.4,None,
60,PRED,12,0.9310483823551788,0,images/picture_1.png,images/picture_1.png,0,"[11.733433509789464, 11.733433509789462]",11.733433509789464,11.733433509789462,images/picture_2.png,1,"[11.733433509789462, -11.733433509789466]",11.733433509789462,-11.733433509789464,images/picture_3.png,2,"[-11.733433509789466, -11.733433509789462]",-11.733433509789464,-11.733433509789462,0,1,1,0.9310483823551788,1.9310483823551787,1.0689516176448213,3,1,1.6810483823551787,0,6,0,6,0,0,6,6,6,,,,,,,,,,,,,,,,,,,,,200002,205,2023-03-21_16h19.06.375,DMS_BEST_eyetracking_DAN_base_12-36_looped_10minWORKING,2022.2.4,None,
60,PRED,12,0.9310483823551788,0,images/picture_1.png,images/picture_1.png,0,"[11.733433509789464, 11.733433509789462]",11.733433509789464,11.733433509789462,images/picture_2.png,1,"[11.733433509789462, -11.733433509789466]",11.733433509789462,-11.733433509789464,images/picture_3.png,2,"[-11.733433509789466, -11.733433509789462]",-11.733433509789464,-11.733433509789462,0,1,1,0.9310483823551788,1.9310483823551787,1.0689516176448213,3,1,1.6810483823551787,0,6,0,6,0,0,6,6,6,,,,,,,0.0034929169341921806,392.8434423330473,392.8434423330473,393.85713587503415,394.5242974580033,394.75728133297525,394.75728133297525,394.75728133297525,395.8243431249866,395.8243431249866,395.8243431249866,395.8243431249866,4.028907416970469,396.8243430410512,200002,205,2023-03-21_16h19.06.375,DMS_BEST_eyetracking_DAN_base_12-36_looped_10minWORKING,2022.2.4,None,
57,PRED,12,0.6851089890226172,0,images/picture_1.png,images/picture_1.png,0,"[-11.733433509789462, 11.733433509789464]",-11.733433509789462,11.733433509789464,images/picture_2.png,1,"[11.733433509789462, -11.733433509789466]",11.733433509789462,-11.733433509789464,images/picture_3.png,2,"[11.733433509789464, 11.733433509789462]",11.733433509789464,11.733433509789462,0,1,1,0.6851089890226172,1.6851089890226172,1.3148910109773828,3,1,1.4351089890226172,0,6,0,6,0,0,7,7,3,,,,,,,,,,,,,,,,,,,,,200002,205,2023-03-21_16h19.06.375,DMS_BEST_eyetracking_DAN_base_12-36_looped_10minWORKING,2022.2.4,None,
57,PRED,12,0.6851089890226172,0,images/picture_1.png,images/picture_1.png,0,"[-11.733433509789462, 11.733433509789464]",-11.733433509789462,11.733433509789464,images/picture_2.png,1,"[11.733433509789462, -11.733433509789466]",11.733433509789462,-11.733433509789464,images/picture_3.png,2,"[11.733433509789464, 11.733433509789462]",11.733433509789464,11.733433509789462,0,1,1,0.6851089890226172,1.6851089890226172,1.3148910109773828,3,1,1.4351089890226172,0,6,0,6,0,0,7,7,3,,,,,,,0.0028346249600872397,396.8768383329734,396.8768383329734,397.8909000409767,398.3242600830272,398.5436474160524,398.5436474160524,398.5436474160524,399.8573355829576,399.8573355829576,399.8573355829576,399.8573355829576,4.027428624918684,400.85772754100617,200002,205,2023-03-21_16h19.06.375,DMS_BEST_eyetracking_DAN_base_12-36_looped_10minWORKING,2022.2.4,None,
59,PRED,12,0.6510802417108248,0,images/picture_1.png,images/picture_1.png,0,"[11.733433509789464, 11.733433509789462]",11.733433509789464,11.733433509789462,images/picture_2.png,1,"[11.733433509789462, -11.733433509789466]",11.733433509789462,-11.733433509789464,images/picture_3.png,2,"[-11.733433509789462, 11.733433509789464]",-11.733433509789462,11.733433509789464,0,1,1,0.6510802417108248,1.6510802417108248,1.3489197582891752,3,1,1.4010802417108248,0,6,0,6,0,0,8,8,5,,,,,,,,,,,,,,,,,,,,,200002,205,2023-03-21_16h19.06.375,DMS_BEST_eyetracking_DAN_base_12-36_looped_10minWORKING,2022.2.4,None,
59,PRED,12,0.6510802417108248,0,images/picture_1.png,images/picture_1.png,0,"[11.733433509789464, 11.733433509789462]",11.733433509789464,11.733433509789462,images/picture_2.png,1,"[11.733433509789462, -11.733433509789466]",11.733433509789462,-11.733433509789464,images/picture_3.png,2,"[-11.733433509789462, 11.733433509789464]",-11.733433509789462,11.733433509789464,0,1,1,0.6510802417108248,1.6510802417108248,1.3489197582891752,3,1,1.4010802417108248,0,6,0,6,0,0,8,8,5,,,,,,,0.0013007080415263772,400.8903807080351,400.8903807080351,401.8908047910081,402.29091154097114,402.5433484580135,402.5433484580135,402.5433484580135,403.89098762499634,403.89098762499634,403.89098762499634,403.89098762499634,3.999485915992409,404.9807372910436,200002,205,2023-03-21_16h19.06.375,DMS_BEST_eyetracking_DAN_base_12-36_looped_10minWORKING,2022.2.4,None,
,,,,,,,,,,,,,,,,,,,,,,,,,,,,,,,6,0,6,0,,,,,,,,,404.9807372910436,417.0110940829618,,,,,,,,,,,,,,,200002,205,2023-03-21_16h19.06.375,DMS_BEST_eyetracking_DAN_base_12-36_looped_10minWORKING,2022.2.4,None,
66,UNPRED,12,1.0667997242243192,0,images/picture_1.png,images/picture_1.png,0,"[11.733433509789464, 11.733433509789462]",11.733433509789464,11.733433509789462,images/picture_2.png,1,"[-11.733433509789466, -11.733433509789462]",-11.733433509789464,-11.733433509789462,images/picture_3.png,2,"[-11.733433509789462, 11.733433509789464]",-11.733433509789462,11.733433509789464,0,1,1,1.0667997242243192,2.0667997242243192,0.9332002757756808,3,1,1.8167997242243192,0,7,0,7,0,0,0,0,3,,,,,,,,,,,,,,,,,,,,,200002,205,2023-03-21_16h19.06.375,DMS_BEST_eyetracking_DAN_base_12-36_looped_10minWORKING,2022.2.4,None,
66,UNPRED,12,1.0667997242243192,0,images/picture_1.png,images/picture_1.png,0,"[11.733433509789464, 11.733433509789462]",11.733433509789464,11.733433509789462,images/picture_2.png,1,"[-11.733433509789466, -11.733433509789462]",-11.733433509789464,-11.733433509789462,images/picture_3.png,2,"[-11.733433509789462, 11.733433509789464]",-11.733433509789462,11.733433509789464,0,1,1,1.0667997242243192,2.0667997242243192,0.9332002757756808,3,1,1.8167997242243192,0,7,0,7,0,0,0,0,3,,,,,,,0.0032826659735292196,417.0110940829618,417.0110940829618,418.02430391602684,418.82432795804925,419.0760255829664,419.0760255829664,419.0760255829664,420.01031525002327,420.0240925409598,420.0240925409598,420.0240925409598,4.00994224997703,421.04379062494263,200002,205,2023-03-21_16h19.06.375,DMS_BEST_eyetracking_DAN_base_12-36_looped_10minWORKING,2022.2.4,None,
67,UNPRED,12,0.6409623745859148,1,images/picture_2.png,images/picture_1.png,0,"[11.733433509789462, -11.733433509789466]",11.733433509789462,-11.733433509789464,images/picture_2.png,1,"[-11.733433509789462, 11.733433509789464]",-11.733433509789462,11.733433509789464,images/picture_3.png,2,"[11.733433509789464, 11.733433509789462]",11.733433509789464,11.733433509789462,0,1,1,0.6409623745859148,1.6409623745859148,1.3590376254140852,3,1,1.3909623745859148,0,7,0,7,0,0,1,1,4,,,,,,,,,,,,,,,,,,,,,200002,205,2023-03-21_16h19.06.375,DMS_BEST_eyetracking_DAN_base_12-36_looped_10minWORKING,2022.2.4,None,
67,UNPRED,12,0.6409623745859148,1,images/picture_2.png,images/picture_1.png,0,"[11.733433509789462, -11.733433509789466]",11.733433509789462,-11.733433509789464,images/picture_2.png,1,"[-11.733433509789462, 11.733433509789464]",-11.733433509789462,11.733433509789464,images/picture_3.png,2,"[11.733433509789464, 11.733433509789462]",11.733433509789464,11.733433509789462,0,1,1,0.6409623745859148,1.6409623745859148,1.3590376254140852,3,1,1.3909623745859148,0,7,0,7,0,0,1,1,4,,,,,,,0.005521958926692605,421.04379062494263,421.04379062494263,422.0572774159955,422.443223875016,422.65723512496334,422.65723512496334,422.65723512496334,424.02424591605086,424.02424591605086,424.02424591605086,424.02424591605086,4.0307218339294195,425.0245548749808,200002,205,2023-03-21_16h19.06.375,DMS_BEST_eyetracking_DAN_base_12-36_looped_10minWORKING,2022.2.4,None,
63,UNPRED,12,1.1316778514808628,2,images/picture_3.png,images/picture_1.png,0,"[-11.733433509789466, -11.733433509789462]",-11.733433509789464,-11.733433509789462,images/picture_2.png,1,"[-11.733433509789462, 11.733433509789464]",-11.733433509789462,11.733433509789464,images/picture_3.png,2,"[11.733433509789464, 11.733433509789462]",11.733433509789464,11.733433509789462,0,1,1,1.1316778514808628,2.1316778514808625,0.8683221485191372,3,1,1.8816778514808623,0,7,0,7,0,0,2,2,0,,,,,,,,,,,,,,,,,,,,,200002,205,2023-03-21_16h19.06.375,DMS_BEST_eyetracking_DAN_base_12-36_looped_10minWORKING,2022.2.4,None,
63,UNPRED,12,1.1316778514808628,2,images/picture_3.png,images/picture_1.png,0,"[-11.733433509789466, -11.733433509789462]",-11.733433509789464,-11.733433509789462,images/picture_2.png,1,"[-11.733433509789462, 11.733433509789464]",-11.733433509789462,11.733433509789464,images/picture_3.png,2,"[11.733433509789464, 11.733433509789462]",11.733433509789464,11.733433509789462,0,1,1,1.1316778514808628,2.1316778514808625,0.8683221485191372,3,1,1.8816778514808623,0,7,0,7,0,0,2,2,0,,,,,,,0.003783666994422674,425.0581326249521,425.0581326249521,426.0575689160032,426.9433887080522,427.1906512499554,427.1906512499554,427.1906512499554,428.05762550001964,428.05762550001964,428.05762550001964,428.05762550001964,3.9970644999993965,429.0591969159432,200002,205,2023-03-21_16h19.06.375,DMS_BEST_eyetracking_DAN_base_12-36_looped_10minWORKING,2022.2.4,None,
71,UNPRED,12,1.0023378466704909,2,images/picture_3.png,images/picture_1.png,0,"[-11.733433509789462, 11.733433509789464]",-11.733433509789462,11.733433509789464,images/picture_2.png,1,"[11.733433509789462, -11.733433509789466]",11.733433509789462,-11.733433509789464,images/picture_3.png,2,"[-11.733433509789466, -11.733433509789462]",-11.733433509789464,-11.733433509789462,0,1,1,1.0023378466704909,2.0023378466704913,0.9976621533295088,3,1,1.7523378466704909,0,7,0,7,0,0,3,3,8,,,,,,,,,,,,,,,,,,,,,200002,205,2023-03-21_16h19.06.375,DMS_BEST_eyetracking_DAN_base_12-36_looped_10minWORKING,2022.2.4,None,
71,UNPRED,12,1.0023378466704909,2,images/picture_3.png,images/picture_1.png,0,"[-11.733433509789462, 11.733433509789464]",-11.733433509789462,11.733433509789464,images/picture_2.png,1,"[11.733433509789462, -11.733433509789466]",11.733433509789462,-11.733433509789464,images/picture_3.png,2,"[-11.733433509789466, -11.733433509789462]",-11.733433509789464,-11.733433509789462,0,1,1,1.0023378466704909,2.0023378466704913,0.9976621533295088,3,1,1.7523378466704909,0,7,0,7,0,0,3,3,8,,,,,,,0.003335250075906515,429.0591969159432,429.0591969159432,430.0575376659399,430.8242564579705,431.05723325000145,431.05723325000145,431.05723325000145,432.0582024999894,432.0582024999894,432.0582024999894,432.0582024999894,3.9967807909706607,433.0578267079545,200002,205,2023-03-21_16h19.06.375,DMS_BEST_eyetracking_DAN_base_12-36_looped_10minWORKING,2022.2.4,None,
