trial_count,blockType,blockNum,delay_time,stimImage_i,stimImage,responseImage1,responseImage1_i,responseImage1_pos,responseImage1_X,responseImage1_Y,responseImage2,responseImage2_i,responseImage2_pos,responseImage2_X,responseImage2_Y,responseImage3,responseImage3_i,responseImage3_pos,responseImage3_X,responseImage3_Y,cue_onset,cue_dur,delay_onset,delay_dur,resp_onset,resp_dur,rest_onset,rest_dur,circle_dur,circle_onset,total_dur,cross_onset,cross_dur,delay_resp_period,blocks.thisRepN,blocks.thisTrialN,blocks.thisN,blocks.thisIndex,trials.thisRepN,trials.thisTrialN,trials.thisN,trials.thisIndex,key_resp.started,text.started,key_resp.keys,key_resp.rt,text_2.started,text_2.stopped,sample.started,Delay.started,sample.stopped,Delay.stopped,Response_1.started,Response_2.started,Response_3.started,polygon.started,Response_1.stopped,Response_2.stopped,Response_3.stopped,polygon.stopped,participant,session,date,expName,psychopyVersion,frameRate,
,,,,,,,,,,,,,,,,,,,,,,,,,,,,,,,,,,,,,,,,,,,40.496702792,40.496702792,t,66.91887274999999,,,,,,,,,,,,,,,200007,002,2023-04-11_08h57.24.225,DMS_et_12-36,2022.2.4,None,
3,PRED,12,0.7105805086530421,2,images/picture_3.png,images/picture_1.png,0,"[-11.733433509789466, -11.733433509789462]",-11.733433509789464,-11.733433509789462,images/picture_2.png,1,"[11.733433509789464, 11.733433509789462]",11.733433509789464,11.733433509789462,images/picture_3.png,2,"[11.733433509789462, -11.733433509789466]",11.733433509789462,-11.733433509789464,0,1,1,0.7105805086530421,1.710580508653042,1.289419491346958,3.0,1,1.460580508653042,0,4.0,3.0,1,2,0,0,0,0,0,0,0,3,,,,,107.93394750000002,119.981581167,119.981581167,119.981581167,120.97784525,121.444319667,121.67771033400001,121.67771033400001,121.67771033400001,122.96295437500001,122.977393334,122.977393334,122.977393334,123.99631166700001,200007,002,2023-04-11_08h57.24.225,DMS_et_12-36,2022.2.4,None,
0,PRED,12,0.7105805086530421,2,images/picture_3.png,images/picture_1.png,0,"[11.733433509789462, -11.733433509789466]",11.733433509789462,-11.733433509789464,images/picture_2.png,1,"[-11.733433509789466, -11.733433509789462]",-11.733433509789464,-11.733433509789462,images/picture_3.png,2,"[-11.733433509789462, 11.733433509789464]",-11.733433509789462,11.733433509789464,0,1,1,0.7105805086530421,1.710580508653042,1.289419491346958,3.0,1,1.460580508653042,0,4.0,3.0,1,2,0,0,0,0,0,1,1,0,,,,,,,123.99631166700001,123.99631166700001,125.01097462500002,125.463524167,125.67764383400001,125.67764383400001,125.67764383400001,126.97776487499999,126.97776487499999,126.97776487499999,126.97776487499999,127.99640675,200007,002,2023-04-11_08h57.24.225,DMS_et_12-36,2022.2.4,None,
7,PRED,12,0.7105805086530421,2,images/picture_3.png,images/picture_1.png,0,"[-11.733433509789466, -11.733433509789462]",-11.733433509789464,-11.733433509789462,images/picture_2.png,1,"[11.733433509789462, -11.733433509789466]",11.733433509789462,-11.733433509789464,images/picture_3.png,2,"[11.733433509789464, 11.733433509789462]",11.733433509789464,11.733433509789462,0,1,1,0.7105805086530421,1.710580508653042,1.289419491346958,3.0,1,1.460580508653042,0,4.0,3.0,1,2,0,0,0,0,0,2,2,7,,,,,,,127.99640675,127.99640675,129.01111929200002,129.463107375,129.67772225000002,129.67772225000002,129.67772225000002,130.977672417,130.977672417,130.977672417,130.977672417,131.996729709,200007,002,2023-04-11_08h57.24.225,DMS_et_12-36,2022.2.4,None,
1,PRED,12,0.7105805086530421,2,images/picture_3.png,images/picture_1.png,0,"[-11.733433509789462, 11.733433509789464]",-11.733433509789462,11.733433509789464,images/picture_2.png,1,"[11.733433509789462, -11.733433509789466]",11.733433509789462,-11.733433509789464,images/picture_3.png,2,"[11.733433509789464, 11.733433509789462]",11.733433509789464,11.733433509789462,0,1,1,0.7105805086530421,1.710580508653042,1.289419491346958,3.0,1,1.460580508653042,0,4.0,3.0,1,2,0,0,0,0,0,3,3,1,,,,,,,131.996729709,131.996729709,133.0107225,133.463267959,133.677656375,133.677656375,133.677656375,134.977710875,134.977710875,134.977710875,134.977710875,135.99635875,200007,002,2023-04-11_08h57.24.225,DMS_et_12-36,2022.2.4,None,
5,PRED,12,0.7105805086530421,2,images/picture_3.png,images/picture_1.png,0,"[11.733433509789462, -11.733433509789466]",11.733433509789462,-11.733433509789464,images/picture_2.png,1,"[11.733433509789464, 11.733433509789462]",11.733433509789464,11.733433509789462,images/picture_3.png,2,"[-11.733433509789466, -11.733433509789462]",-11.733433509789464,-11.733433509789462,0,1,1,0.7105805086530421,1.710580508653042,1.289419491346958,3.0,1,1.460580508653042,0,4.0,3.0,1,2,0,0,0,0,0,4,4,5,,,,,,,135.99635875,135.99635875,137.010822417,137.463319167,137.677675125,137.677675125,137.677675125,138.977603792,138.977603792,138.977603792,138.977603792,139.996905375,200007,002,2023-04-11_08h57.24.225,DMS_et_12-36,2022.2.4,None,
6,PRED,12,0.7105805086530421,2,images/picture_3.png,images/picture_1.png,0,"[-11.733433509789466, -11.733433509789462]",-11.733433509789464,-11.733433509789462,images/picture_2.png,1,"[11.733433509789464, 11.733433509789462]",11.733433509789464,11.733433509789462,images/picture_3.png,2,"[11.733433509789462, -11.733433509789466]",11.733433509789462,-11.733433509789464,0,1,1,0.7105805086530421,1.710580508653042,1.289419491346958,3.0,1,1.460580508653042,0,4.0,3.0,1,2,0,0,0,0,0,5,5,6,,,,,,,139.996905375,139.996905375,141.011059334,141.463449792,141.677715084,141.677715084,141.677715084,142.97743879200002,142.97743879200002,142.97743879200002,142.97743879200002,143.996563167,200007,002,2023-04-11_08h57.24.225,DMS_et_12-36,2022.2.4,None,
8,PRED,12,0.7105805086530421,2,images/picture_3.png,images/picture_1.png,0,"[-11.733433509789462, 11.733433509789464]",-11.733433509789462,11.733433509789464,images/picture_2.png,1,"[11.733433509789462, -11.733433509789466]",11.733433509789462,-11.733433509789464,images/picture_3.png,2,"[-11.733433509789466, -11.733433509789462]",-11.733433509789464,-11.733433509789462,0,1,1,0.7105805086530421,1.710580508653042,1.289419491346958,3.0,1,1.460580508653042,0,4.0,3.0,1,2,0,0,0,0,0,6,6,8,,,,,,,143.996563167,143.996563167,145.010891042,145.46350129200002,145.67766358400002,145.67766358400002,145.67766358400002,146.977747709,146.977747709,146.977747709,146.977747709,147.996681459,200007,002,2023-04-11_08h57.24.225,DMS_et_12-36,2022.2.4,None,
4,PRED,12,0.7105805086530421,2,images/picture_3.png,images/picture_1.png,0,"[11.733433509789462, -11.733433509789466]",11.733433509789462,-11.733433509789464,images/picture_2.png,1,"[-11.733433509789466, -11.733433509789462]",-11.733433509789464,-11.733433509789462,images/picture_3.png,2,"[-11.733433509789462, 11.733433509789464]",-11.733433509789462,11.733433509789464,0,1,1,0.7105805086530421,1.710580508653042,1.289419491346958,3.0,1,1.460580508653042,0,4.0,3.0,1,2,0,0,0,0,0,7,7,4,,,,,,,147.996681459,147.996681459,149.011037959,149.463415542,149.67773033400002,149.67773033400002,149.67773033400002,151.107091125,151.107091125,151.107091125,151.107091125,152.12990225000001,200007,002,2023-04-11_08h57.24.225,DMS_et_12-36,2022.2.4,None,
2,PRED,12,0.7105805086530421,2,images/picture_3.png,images/picture_1.png,0,"[11.733433509789464, 11.733433509789462]",11.733433509789464,11.733433509789462,images/picture_2.png,1,"[11.733433509789462, -11.733433509789466]",11.733433509789462,-11.733433509789464,images/picture_3.png,2,"[-11.733433509789466, -11.733433509789462]",-11.733433509789464,-11.733433509789462,0,1,1,0.7105805086530421,1.710580508653042,1.289419491346958,3.0,1,1.460580508653042,0,4.0,3.0,1,2,0,0,0,0,0,8,8,2,,,,,,,152.12990225000001,152.12990225000001,153.143802042,153.596531292,153.811170834,153.811170834,153.811170834,155.111354709,155.111354709,155.111354709,155.111354709,156.132329417,200007,002,2023-04-11_08h57.24.225,DMS_et_12-36,2022.2.4,None,
,,,,,,,,,,,,,,,,,,,,,,,,,,,,,,,,,,,0,0,0,0,,,,,,,,,156.132329417,168.163256834,,,,,,,,,,,,,200007,002,2023-04-11_08h57.24.225,DMS_et_12-36,2022.2.4,None,
16,UNPRED,12,0.7105805086530421,0,images/picture_1.png,images/picture_1.png,0,"[11.733433509789464, 11.733433509789462]",11.733433509789464,11.733433509789462,images/picture_2.png,1,"[-11.733433509789462, 11.733433509789464]",-11.733433509789462,11.733433509789464,images/picture_3.png,2,"[11.733433509789462, -11.733433509789466]",11.733433509789462,-11.733433509789464,0,1,1,0.7105805086530421,1.710580508653042,1.289419491346958,3.0,1,1.460580508653042,0,4.0,3.0,1,2,1,0,1,0,0,0,0,7,,,,,,,168.163256834,168.163256834,169.177747584,169.63323375000002,169.877687625,169.877687625,169.877687625,171.1637005,171.177510834,171.177510834,171.177510834,172.177038375,200007,002,2023-04-11_08h57.24.225,DMS_et_12-36,2022.2.4,None,
9,UNPRED,12,0.7105805086530421,0,images/picture_1.png,images/picture_1.png,0,"[-11.733433509789466, -11.733433509789462]",-11.733433509789464,-11.733433509789462,images/picture_2.png,1,"[11.733433509789464, 11.733433509789462]",11.733433509789464,11.733433509789462,images/picture_3.png,2,"[11.733433509789462, -11.733433509789466]",11.733433509789462,-11.733433509789464,0,1,1,0.7105805086530421,1.710580508653042,1.289419491346958,3.0,1,1.460580508653042,0,4.0,3.0,1,2,1,0,1,0,0,1,1,0,,,,,,,172.177038375,172.177038375,173.177410917,173.644211084,173.877316584,173.877316584,173.877316584,175.177771625,175.177771625,175.177771625,175.177771625,176.197153542,200007,002,2023-04-11_08h57.24.225,DMS_et_12-36,2022.2.4,None,
15,UNPRED,12,0.7105805086530421,2,images/picture_3.png,images/picture_1.png,0,"[-11.733433509789462, 11.733433509789464]",-11.733433509789462,11.733433509789464,images/picture_2.png,1,"[11.733433509789464, 11.733433509789462]",11.733433509789464,11.733433509789462,images/picture_3.png,2,"[11.733433509789462, -11.733433509789466]",11.733433509789462,-11.733433509789464,0,1,1,0.7105805086530421,1.710580508653042,1.289419491346958,3.0,1,1.460580508653042,0,4.0,3.0,1,2,1,0,1,0,0,2,2,6,,,,,,,176.197153542,176.197153542,177.210903792,177.663622,177.877551334,177.877551334,177.877551334,179.177779625,179.177779625,179.177779625,179.177779625,180.177113375,200007,002,2023-04-11_08h57.24.225,DMS_et_12-36,2022.2.4,None,
17,UNPRED,12,0.7105805086530421,0,images/picture_1.png,images/picture_1.png,0,"[11.733433509789464, 11.733433509789462]",11.733433509789464,11.733433509789462,images/picture_2.png,1,"[-11.733433509789466, -11.733433509789462]",-11.733433509789464,-11.733433509789462,images/picture_3.png,2,"[-11.733433509789462, 11.733433509789464]",-11.733433509789462,11.733433509789464,0,1,1,0.7105805086530421,1.710580508653042,1.289419491346958,3.0,1,1.460580508653042,0,4.0,3.0,1,2,1,0,1,0,0,3,3,8,,,,,,,180.177113375,180.177113375,181.177668,181.644211167,181.877651042,181.877651042,181.877651042,183.177702917,183.177702917,183.177702917,183.177702917,184.196548584,200007,002,2023-04-11_08h57.24.225,DMS_et_12-36,2022.2.4,None,
11,UNPRED,12,0.7105805086530421,2,images/picture_3.png,images/picture_1.png,0,"[11.733433509789464, 11.733433509789462]",11.733433509789464,11.733433509789462,images/picture_2.png,1,"[11.733433509789462, -11.733433509789466]",11.733433509789462,-11.733433509789464,images/picture_3.png,2,"[-11.733433509789466, -11.733433509789462]",-11.733433509789464,-11.733433509789462,0,1,1,0.7105805086530421,1.710580508653042,1.289419491346958,3.0,1,1.460580508653042,0,4.0,3.0,1,2,1,0,1,0,0,4,4,2,,,,,,,184.196548584,184.196548584,185.210880209,185.663607292,185.877576834,185.877576834,185.877576834,187.17769354200001,187.17769354200001,187.17769354200001,187.17769354200001,188.19667412500002,200007,002,2023-04-11_08h57.24.225,DMS_et_12-36,2022.2.4,None,
12,UNPRED,12,0.7105805086530421,2,images/picture_3.png,images/picture_1.png,0,"[-11.733433509789466, -11.733433509789462]",-11.733433509789464,-11.733433509789462,images/picture_2.png,1,"[11.733433509789462, -11.733433509789466]",11.733433509789462,-11.733433509789464,images/picture_3.png,2,"[-11.733433509789462, 11.733433509789464]",-11.733433509789462,11.733433509789464,0,1,1,0.7105805086530421,1.710580508653042,1.289419491346958,3.0,1,1.460580508653042,0,4.0,3.0,1,2,1,0,1,0,0,5,5,3,,,,,,,188.19667412500002,188.19667412500002,189.210880459,189.663462625,189.877650834,189.877650834,189.877650834,191.177723792,191.177723792,191.177723792,191.177723792,192.17711375000002,200007,002,2023-04-11_08h57.24.225,DMS_et_12-36,2022.2.4,None,
13,UNPRED,12,0.7105805086530421,0,images/picture_1.png,images/picture_1.png,0,"[11.733433509789464, 11.733433509789462]",11.733433509789464,11.733433509789462,images/picture_2.png,1,"[-11.733433509789466, -11.733433509789462]",-11.733433509789464,-11.733433509789462,images/picture_3.png,2,"[11.733433509789462, -11.733433509789466]",11.733433509789462,-11.733433509789464,0,1,1,0.7105805086530421,1.710580508653042,1.289419491346958,3.0,1,1.460580508653042,0,4.0,3.0,1,2,1,0,1,0,0,6,6,4,,,,,,,192.17711375000002,192.17711375000002,193.177774209,193.644174875,193.877442042,193.877442042,193.877442042,195.177707917,195.177707917,195.177707917,195.177707917,196.177698667,200007,002,2023-04-11_08h57.24.225,DMS_et_12-36,2022.2.4,None,
10,UNPRED,12,0.7105805086530421,1,images/picture_2.png,images/picture_1.png,0,"[-11.733433509789466, -11.733433509789462]",-11.733433509789464,-11.733433509789462,images/picture_2.png,1,"[-11.733433509789462, 11.733433509789464]",-11.733433509789462,11.733433509789464,images/picture_3.png,2,"[11.733433509789462, -11.733433509789466]",11.733433509789462,-11.733433509789464,0,1,1,0.7105805086530421,1.710580508653042,1.289419491346958,3.0,1,1.460580508653042,0,4.0,3.0,1,2,1,0,1,0,0,7,7,1,,,,,,,196.177698667,196.177698667,197.17788233400003,197.644470875,197.877843,197.877843,197.877843,199.1777145,199.1777145,199.1777145,199.1777145,200.19673004199998,200007,002,2023-04-11_08h57.24.225,DMS_et_12-36,2022.2.4,None,
14,UNPRED,12,0.7105805086530421,2,images/picture_3.png,images/picture_1.png,0,"[11.733433509789464, 11.733433509789462]",11.733433509789464,11.733433509789462,images/picture_2.png,1,"[-11.733433509789462, 11.733433509789464]",-11.733433509789462,11.733433509789464,images/picture_3.png,2,"[-11.733433509789466, -11.733433509789462]",-11.733433509789464,-11.733433509789462,0,1,1,0.7105805086530421,1.710580508653042,1.289419491346958,3.0,1,1.460580508653042,0,4.0,3.0,1,2,1,0,1,0,0,8,8,5,,,,,,,200.19673004199998,200.19673004199998,201.210921167,201.663483667,201.877623,201.877623,201.877623,203.17767225000003,203.17767225000003,203.17767225000003,203.17767225000003,204.19673012500002,200007,002,2023-04-11_08h57.24.225,DMS_et_12-36,2022.2.4,None,
,,,,,,,,,,,,,,,,,,,,,,,,,,,,,,,,,,,1,0,1,0,,,,,,,,,204.19673012500002,216.230515,,,,,,,,,,,,,200007,002,2023-04-11_08h57.24.225,DMS_et_12-36,2022.2.4,None,
19,PRED,12,0.7105805086530421,0,images/picture_1.png,images/picture_1.png,0,"[-11.733433509789466, -11.733433509789462]",-11.733433509789464,-11.733433509789462,images/picture_2.png,1,"[11.733433509789462, -11.733433509789466]",11.733433509789462,-11.733433509789464,images/picture_3.png,2,"[-11.733433509789462, 11.733433509789464]",-11.733433509789462,11.733433509789464,0,1,1,0.7105805086530421,1.710580508653042,1.289419491346958,3.0,1,1.460580508653042,0,4.0,3.0,1,2,2,0,2,0,0,0,0,1,,,,,,,216.230515,216.230515,217.244233542,217.69671020900003,217.94420716700003,217.94420716700003,217.94420716700003,219.23093270900003,219.2442015,219.2442015,219.2442015,220.24406691700003,200007,002,2023-04-11_08h57.24.225,DMS_et_12-36,2022.2.4,None,
23,PRED,12,0.7105805086530421,0,images/picture_1.png,images/picture_1.png,0,"[-11.733433509789462, 11.733433509789464]",-11.733433509789462,11.733433509789464,images/picture_2.png,1,"[11.733433509789464, 11.733433509789462]",11.733433509789464,11.733433509789462,images/picture_3.png,2,"[11.733433509789462, -11.733433509789466]",11.733433509789462,-11.733433509789464,0,1,1,0.7105805086530421,1.710580508653042,1.289419491346958,3.0,1,1.460580508653042,0,4.0,3.0,1,2,2,0,2,0,0,1,1,5,,,,,,,220.24406691700003,220.24406691700003,221.244283792,221.71095475,221.944249209,221.944249209,221.944249209,223.244290625,223.244290625,223.244290625,223.244290625,224.244006584,200007,002,2023-04-11_08h57.24.225,DMS_et_12-36,2022.2.4,None,
24,PRED,12,0.7105805086530421,0,images/picture_1.png,images/picture_1.png,0,"[-11.733433509789462, 11.733433509789464]",-11.733433509789462,11.733433509789464,images/picture_2.png,1,"[11.733433509789462, -11.733433509789466]",11.733433509789462,-11.733433509789464,images/picture_3.png,2,"[-11.733433509789466, -11.733433509789462]",-11.733433509789464,-11.733433509789462,0,1,1,0.7105805086530421,1.710580508653042,1.289419491346958,3.0,1,1.460580508653042,0,4.0,3.0,1,2,2,0,2,0,0,2,2,6,,,,,,,224.244006584,224.244006584,225.244098959,225.710997375,225.94423708399998,225.94423708399998,225.94423708399998,227.24433541700003,227.24433541700003,227.24433541700003,227.24433541700003,228.24374924999998,200007,002,2023-04-11_08h57.24.225,DMS_et_12-36,2022.2.4,None,
26,PRED,12,0.7105805086530421,0,images/picture_1.png,images/picture_1.png,0,"[-11.733433509789462, 11.733433509789464]",-11.733433509789462,11.733433509789464,images/picture_2.png,1,"[11.733433509789464, 11.733433509789462]",11.733433509789464,11.733433509789462,images/picture_3.png,2,"[-11.733433509789466, -11.733433509789462]",-11.733433509789464,-11.733433509789462,0,1,1,0.7105805086530421,1.710580508653042,1.289419491346958,3.0,1,1.460580508653042,0,4.0,3.0,1,2,2,0,2,0,0,3,3,8,,,,,,,228.24374924999998,228.24374924999998,229.24428754200002,229.71094795899998,229.944312167,229.944312167,229.944312167,231.24437304199998,231.24437304199998,231.24437304199998,231.24437304199998,232.24367270899998,200007,002,2023-04-11_08h57.24.225,DMS_et_12-36,2022.2.4,None,
20,PRED,12,0.7105805086530421,0,images/picture_1.png,images/picture_1.png,0,"[11.733433509789462, -11.733433509789466]",11.733433509789462,-11.733433509789464,images/picture_2.png,1,"[-11.733433509789462, 11.733433509789464]",-11.733433509789462,11.733433509789464,images/picture_3.png,2,"[-11.733433509789466, -11.733433509789462]",-11.733433509789464,-11.733433509789462,0,1,1,0.7105805086530421,1.710580508653042,1.289419491346958,3.0,1,1.460580508653042,0,4.0,3.0,1,2,2,0,2,0,0,4,4,2,,,,,,,232.24367270899998,232.24367270899998,233.24438591700002,233.710873959,233.944401542,233.944401542,233.944401542,235.24389916700002,235.24389916700002,235.24389916700002,235.24389916700002,236.24390591699998,200007,002,2023-04-11_08h57.24.225,DMS_et_12-36,2022.2.4,None,
21,PRED,12,0.7105805086530421,0,images/picture_1.png,images/picture_1.png,0,"[11.733433509789462, -11.733433509789466]",11.733433509789462,-11.733433509789464,images/picture_2.png,1,"[-11.733433509789466, -11.733433509789462]",-11.733433509789464,-11.733433509789462,images/picture_3.png,2,"[-11.733433509789462, 11.733433509789464]",-11.733433509789462,11.733433509789464,0,1,1,0.7105805086530421,1.710580508653042,1.289419491346958,3.0,1,1.460580508653042,0,4.0,3.0,1,2,2,0,2,0,0,5,5,3,,,,,,,236.24390591699998,236.24390591699998,237.244472875,237.710975042,237.94425312500002,237.94425312500002,237.94425312500002,239.24467612499998,239.24467612499998,239.24467612499998,239.24467612499998,240.243665042,200007,002,2023-04-11_08h57.24.225,DMS_et_12-36,2022.2.4,None,
18,PRED,12,0.7105805086530421,0,images/picture_1.png,images/picture_1.png,0,"[-11.733433509789466, -11.733433509789462]",-11.733433509789464,-11.733433509789462,images/picture_2.png,1,"[11.733433509789464, 11.733433509789462]",11.733433509789464,11.733433509789462,images/picture_3.png,2,"[11.733433509789462, -11.733433509789466]",11.733433509789462,-11.733433509789464,0,1,1,0.7105805086530421,1.710580508653042,1.289419491346958,3.0,1,1.460580508653042,0,4.0,3.0,1,2,2,0,2,0,0,6,6,0,,,,,,,240.243665042,240.243665042,241.24453791700003,241.71094570900001,241.944286292,241.944286292,241.944286292,243.244366917,243.244366917,243.244366917,243.244366917,244.243884709,200007,002,2023-04-11_08h57.24.225,DMS_et_12-36,2022.2.4,None,
25,PRED,12,0.7105805086530421,0,images/picture_1.png,images/picture_1.png,0,"[11.733433509789464, 11.733433509789462]",11.733433509789464,11.733433509789462,images/picture_2.png,1,"[11.733433509789462, -11.733433509789466]",11.733433509789462,-11.733433509789464,images/picture_3.png,2,"[-11.733433509789466, -11.733433509789462]",-11.733433509789464,-11.733433509789462,0,1,1,0.7105805086530421,1.710580508653042,1.289419491346958,3.0,1,1.460580508653042,0,4.0,3.0,1,2,2,0,2,0,0,7,7,7,,,,,,,244.243884709,244.243884709,245.243981709,245.71081695900003,245.944307792,245.944307792,245.944307792,247.244299584,247.244299584,247.244299584,247.244299584,248.243847709,200007,002,2023-04-11_08h57.24.225,DMS_et_12-36,2022.2.4,None,
22,PRED,12,0.7105805086530421,0,images/picture_1.png,images/picture_1.png,0,"[11.733433509789462, -11.733433509789466]",11.733433509789462,-11.733433509789464,images/picture_2.png,1,"[11.733433509789464, 11.733433509789462]",11.733433509789464,11.733433509789462,images/picture_3.png,2,"[-11.733433509789466, -11.733433509789462]",-11.733433509789464,-11.733433509789462,0,1,1,0.7105805086530421,1.710580508653042,1.289419491346958,3.0,1,1.460580508653042,0,4.0,3.0,1,2,2,0,2,0,0,8,8,4,,,,,,,248.243847709,248.243847709,249.244419834,249.710897959,249.944142459,249.944142459,249.944142459,251.24416820899998,251.24416820899998,251.24416820899998,251.24416820899998,252.285082125,200007,002,2023-04-11_08h57.24.225,DMS_et_12-36,2022.2.4,None,
,,,,,,,,,,,,,,,,,,,,,,,,,,,,,,,,,,,2,0,2,0,,,,,,,,,252.285082125,264.322240875,,,,,,,,,,,,,200007,002,2023-04-11_08h57.24.225,DMS_et_12-36,2022.2.4,None,
34,UNPRED,12,0.7105805086530421,2,images/picture_3.png,images/picture_1.png,0,"[-11.733433509789466, -11.733433509789462]",-11.733433509789464,-11.733433509789462,images/picture_2.png,1,"[-11.733433509789462, 11.733433509789464]",-11.733433509789462,11.733433509789464,images/picture_3.png,2,"[11.733433509789464, 11.733433509789462]",11.733433509789464,11.733433509789462,0,1,1,0.7105805086530421,1.710580508653042,1.289419491346958,3.0,1,1.460580508653042,0,4.0,3.0,1,2,3,0,3,0,0,0,0,7,,,,,,,264.322240875,264.322240875,265.33019120899996,265.796307125,266.010512459,266.010512459,266.010512459,267.31079879199996,267.31079879199996,267.31079879199996,267.31079879199996,268.31179870899996,200007,002,2023-04-11_08h57.24.225,DMS_et_12-36,2022.2.4,None,
32,UNPRED,12,0.7105805086530421,1,images/picture_2.png,images/picture_1.png,0,"[11.733433509789464, 11.733433509789462]",11.733433509789464,11.733433509789462,images/picture_2.png,1,"[-11.733433509789462, 11.733433509789464]",-11.733433509789462,11.733433509789464,images/picture_3.png,2,"[-11.733433509789466, -11.733433509789462]",-11.733433509789464,-11.733433509789462,0,1,1,0.7105805086530421,1.710580508653042,1.289419491346958,3.0,1,1.460580508653042,0,4.0,3.0,1,2,3,0,3,0,0,1,1,5,,,,,,,268.31179870899996,268.31179870899996,269.31110879199997,269.777530959,270.010770709,270.010770709,270.010770709,271.310795167,271.310795167,271.310795167,271.310795167,272.310301042,200007,002,2023-04-11_08h57.24.225,DMS_et_12-36,2022.2.4,None,
30,UNPRED,12,0.7105805086530421,1,images/picture_2.png,images/picture_1.png,0,"[11.733433509789462, -11.733433509789466]",11.733433509789462,-11.733433509789464,images/picture_2.png,1,"[-11.733433509789462, 11.733433509789464]",-11.733433509789462,11.733433509789464,images/picture_3.png,2,"[-11.733433509789466, -11.733433509789462]",-11.733433509789464,-11.733433509789462,0,1,1,0.7105805086530421,1.710580508653042,1.289419491346958,3.0,1,1.460580508653042,0,4.0,3.0,1,2,3,0,3,0,0,2,2,3,,,,,,,272.310301042,272.310301042,273.31111925,273.777616542,274.010857709,274.010857709,274.010857709,275.31077212499997,275.31077212499997,275.31077212499997,275.31077212499997,276.311598,200007,002,2023-04-11_08h57.24.225,DMS_et_12-36,2022.2.4,None,
29,UNPRED,12,0.7105805086530421,1,images/picture_2.png,images/picture_1.png,0,"[-11.733433509789466, -11.733433509789462]",-11.733433509789464,-11.733433509789462,images/picture_2.png,1,"[11.733433509789462, -11.733433509789466]",11.733433509789462,-11.733433509789464,images/picture_3.png,2,"[-11.733433509789462, 11.733433509789464]",-11.733433509789462,11.733433509789464,0,1,1,0.7105805086530421,1.710580508653042,1.289419491346958,3.0,1,1.460580508653042,0,4.0,3.0,1,2,3,0,3,0,0,3,3,2,,,,,,,276.311598,276.311598,277.310812709,277.77755725,278.010875292,278.010875292,278.010875292,279.31095562499996,279.31095562499996,279.31095562499996,279.31095562499996,280.31027745899996,200007,002,2023-04-11_08h57.24.225,DMS_et_12-36,2022.2.4,None,
27,UNPRED,12,0.7105805086530421,0,images/picture_1.png,images/picture_1.png,0,"[11.733433509789464, 11.733433509789462]",11.733433509789464,11.733433509789462,images/picture_2.png,1,"[-11.733433509789462, 11.733433509789464]",-11.733433509789462,11.733433509789464,images/picture_3.png,2,"[11.733433509789462, -11.733433509789466]",11.733433509789462,-11.733433509789464,0,1,1,0.7105805086530421,1.710580508653042,1.289419491346958,3.0,1,1.460580508653042,0,4.0,3.0,1,2,3,0,3,0,0,4,4,0,,,,,,,280.31027745899996,280.31027745899996,281.31082937499997,281.77754008399995,282.01080325,282.01080325,282.01080325,283.31083708399996,283.31083708399996,283.31083708399996,283.31083708399996,284.33009812499995,200007,002,2023-04-11_08h57.24.225,DMS_et_12-36,2022.2.4,None,
35,UNPRED,12,0.7105805086530421,2,images/picture_3.png,images/picture_1.png,0,"[11.733433509789462, -11.733433509789466]",11.733433509789462,-11.733433509789464,images/picture_2.png,1,"[11.733433509789464, 11.733433509789462]",11.733433509789464,11.733433509789462,images/picture_3.png,2,"[-11.733433509789462, 11.733433509789464]",-11.733433509789462,11.733433509789464,0,1,1,0.7105805086530421,1.710580508653042,1.289419491346958,3.0,1,1.460580508653042,0,4.0,3.0,1,2,3,0,3,0,0,5,5,8,,,,,,,284.33009812499995,284.33009812499995,285.344283917,285.796969334,286.010774542,286.010774542,286.010774542,287.31094587499996,287.31094587499996,287.31094587499996,287.31094587499996,288.310892584,200007,002,2023-04-11_08h57.24.225,DMS_et_12-36,2022.2.4,None,
31,UNPRED,12,0.7105805086530421,1,images/picture_2.png,images/picture_1.png,0,"[11.733433509789462, -11.733433509789466]",11.733433509789462,-11.733433509789464,images/picture_2.png,1,"[11.733433509789464, 11.733433509789462]",11.733433509789464,11.733433509789462,images/picture_3.png,2,"[-11.733433509789466, -11.733433509789462]",-11.733433509789464,-11.733433509789462,0,1,1,0.7105805086530421,1.710580508653042,1.289419491346958,3.0,1,1.460580508653042,0,4.0,3.0,1,2,3,0,3,0,0,6,6,4,,,,,,,288.310892584,288.310892584,289.310770042,289.777486125,290.010829667,290.010829667,290.010829667,291.310442375,291.310442375,291.310442375,291.310442375,292.310448167,200007,002,2023-04-11_08h57.24.225,DMS_et_12-36,2022.2.4,None,
28,UNPRED,12,0.7105805086530421,0,images/picture_1.png,images/picture_1.png,0,"[-11.733433509789462, 11.733433509789464]",-11.733433509789462,11.733433509789464,images/picture_2.png,1,"[11.733433509789464, 11.733433509789462]",11.733433509789464,11.733433509789462,images/picture_3.png,2,"[11.733433509789462, -11.733433509789466]",11.733433509789462,-11.733433509789464,0,1,1,0.7105805086530421,1.710580508653042,1.289419491346958,3.0,1,1.460580508653042,0,4.0,3.0,1,2,3,0,3,0,0,7,7,1,,,,,,,292.310448167,292.310448167,293.310416542,293.777235792,294.010447334,294.010447334,294.010447334,295.310516667,295.310516667,295.310516667,295.310516667,296.31081324999997,200007,002,2023-04-11_08h57.24.225,DMS_et_12-36,2022.2.4,None,
33,UNPRED,12,0.7105805086530421,1,images/picture_2.png,images/picture_1.png,0,"[-11.733433509789462, 11.733433509789464]",-11.733433509789462,11.733433509789464,images/picture_2.png,1,"[11.733433509789462, -11.733433509789466]",11.733433509789462,-11.733433509789464,images/picture_3.png,2,"[-11.733433509789466, -11.733433509789462]",-11.733433509789464,-11.733433509789462,0,1,1,0.7105805086530421,1.710580508653042,1.289419491346958,3.0,1,1.460580508653042,0,4.0,3.0,1,2,3,0,3,0,0,8,8,6,,,,,,,296.31081324999997,296.31081324999997,297.31125283399996,297.777606667,298.01084504199997,298.01084504199997,298.01084504199997,299.31077825,299.31077825,299.31077825,299.31077825,300.362668375,200007,002,2023-04-11_08h57.24.225,DMS_et_12-36,2022.2.4,None,
,,,,,,,,,,,,,,,,,,,,,,,,,,,,,,,,,,,3,0,3,0,,,,,,,,,300.362668375,312.396402292,,,,,,,,,,,,,200007,002,2023-04-11_08h57.24.225,DMS_et_12-36,2022.2.4,None,
38,PRED,12,0.7105805086530421,1,images/picture_2.png,images/picture_1.png,0,"[-11.733433509789466, -11.733433509789462]",-11.733433509789464,-11.733433509789462,images/picture_2.png,1,"[11.733433509789462, -11.733433509789466]",11.733433509789462,-11.733433509789464,images/picture_3.png,2,"[11.733433509789464, 11.733433509789462]",11.733433509789464,11.733433509789462,0,1,1,0.7105805086530421,1.710580508653042,1.289419491346958,3.0,1,1.460580508653042,0,4.0,3.0,1,2,4,0,4,0,0,0,0,2,,,,,,,312.396402292,312.396402292,313.4110325,313.863247,314.110804875,314.110804875,314.110804875,315.396476167,315.41077608399996,315.41077608399996,315.41077608399996,316.41074783399995,200007,002,2023-04-11_08h57.24.225,DMS_et_12-36,2022.2.4,None,
43,PRED,12,0.7105805086530421,1,images/picture_2.png,images/picture_1.png,0,"[-11.733433509789466, -11.733433509789462]",-11.733433509789464,-11.733433509789462,images/picture_2.png,1,"[-11.733433509789462, 11.733433509789464]",-11.733433509789462,11.733433509789464,images/picture_3.png,2,"[11.733433509789462, -11.733433509789466]",11.733433509789462,-11.733433509789464,0,1,1,0.7105805086530421,1.710580508653042,1.289419491346958,3.0,1,1.460580508653042,0,4.0,3.0,1,2,4,0,4,0,0,1,1,7,,,,,,,316.41074783399995,316.41074783399995,317.41066054199996,317.87731837499996,318.110816167,318.110816167,318.110816167,319.410818167,319.410818167,319.410818167,319.410818167,320.411636709,200007,002,2023-04-11_08h57.24.225,DMS_et_12-36,2022.2.4,None,
37,PRED,12,0.7105805086530421,1,images/picture_2.png,images/picture_1.png,0,"[-11.733433509789466, -11.733433509789462]",-11.733433509789464,-11.733433509789462,images/picture_2.png,1,"[-11.733433509789462, 11.733433509789464]",-11.733433509789462,11.733433509789464,images/picture_3.png,2,"[11.733433509789464, 11.733433509789462]",11.733433509789464,11.733433509789462,0,1,1,0.7105805086530421,1.710580508653042,1.289419491346958,3.0,1,1.460580508653042,0,4.0,3.0,1,2,4,0,4,0,0,2,2,1,,,,,,,320.411636709,320.411636709,321.41080883399997,321.87749075,322.110888042,322.110888042,322.110888042,323.41085629199995,323.41085629199995,323.41085629199995,323.41085629199995,324.41026058399996,200007,002,2023-04-11_08h57.24.225,DMS_et_12-36,2022.2.4,None,
42,PRED,12,0.7105805086530421,1,images/picture_2.png,images/picture_1.png,0,"[11.733433509789462, -11.733433509789466]",11.733433509789462,-11.733433509789464,images/picture_2.png,1,"[-11.733433509789462, 11.733433509789464]",-11.733433509789462,11.733433509789464,images/picture_3.png,2,"[-11.733433509789466, -11.733433509789462]",-11.733433509789464,-11.733433509789462,0,1,1,0.7105805086530421,1.710580508653042,1.289419491346958,3.0,1,1.460580508653042,0,4.0,3.0,1,2,4,0,4,0,0,3,3,6,,,,,,,324.41026058399996,324.41026058399996,325.410819667,325.87754558399996,326.11081425,326.11081425,326.11081425,327.410576209,327.410576209,327.410576209,327.410576209,328.409910084,200007,002,2023-04-11_08h57.24.225,DMS_et_12-36,2022.2.4,None,
44,PRED,12,0.7105805086530421,1,images/picture_2.png,images/picture_1.png,0,"[11.733433509789462, -11.733433509789466]",11.733433509789462,-11.733433509789464,images/picture_2.png,1,"[-11.733433509789466, -11.733433509789462]",-11.733433509789464,-11.733433509789462,images/picture_3.png,2,"[11.733433509789464, 11.733433509789462]",11.733433509789464,11.733433509789462,0,1,1,0.7105805086530421,1.710580508653042,1.289419491346958,3.0,1,1.460580508653042,0,4.0,3.0,1,2,4,0,4,0,0,4,4,8,,,,,,,328.409910084,328.409910084,329.41078145899996,329.877506834,330.110791125,330.110791125,330.110791125,331.41085283399997,331.41085283399997,331.41085283399997,331.41085283399997,332.4301255,200007,002,2023-04-11_08h57.24.225,DMS_et_12-36,2022.2.4,None,
40,PRED,12,0.7105805086530421,1,images/picture_2.png,images/picture_1.png,0,"[11.733433509789462, -11.733433509789466]",11.733433509789462,-11.733433509789464,images/picture_2.png,1,"[11.733433509789464, 11.733433509789462]",11.733433509789464,11.733433509789462,images/picture_3.png,2,"[-11.733433509789466, -11.733433509789462]",-11.733433509789464,-11.733433509789462,0,1,1,0.7105805086530421,1.710580508653042,1.289419491346958,3.0,1,1.460580508653042,0,4.0,3.0,1,2,4,0,4,0,0,5,5,4,,,,,,,332.4301255,332.4301255,333.44423070899995,333.89679175,334.11080283399997,334.11080283399997,334.11080283399997,335.410841667,335.410841667,335.410841667,335.410841667,336.410236292,200007,002,2023-04-11_08h57.24.225,DMS_et_12-36,2022.2.4,None,
39,PRED,12,0.7105805086530421,1,images/picture_2.png,images/picture_1.png,0,"[11.733433509789462, -11.733433509789466]",11.733433509789462,-11.733433509789464,images/picture_2.png,1,"[-11.733433509789466, -11.733433509789462]",-11.733433509789464,-11.733433509789462,images/picture_3.png,2,"[11.733433509789464, 11.733433509789462]",11.733433509789464,11.733433509789462,0,1,1,0.7105805086530421,1.710580508653042,1.289419491346958,3.0,1,1.460580508653042,0,4.0,3.0,1,2,4,0,4,0,0,6,6,3,,,,,,,336.410236292,336.410236292,337.410501459,337.877284209,338.11058175,338.11058175,338.11058175,339.41075108399997,339.41075108399997,339.41075108399997,339.41075108399997,340.41049549999997,200007,002,2023-04-11_08h57.24.225,DMS_et_12-36,2022.2.4,None,
36,PRED,12,0.7105805086530421,1,images/picture_2.png,images/picture_1.png,0,"[11.733433509789464, 11.733433509789462]",11.733433509789464,11.733433509789462,images/picture_2.png,1,"[-11.733433509789462, 11.733433509789464]",-11.733433509789462,11.733433509789464,images/picture_3.png,2,"[-11.733433509789466, -11.733433509789462]",-11.733433509789464,-11.733433509789462,0,1,1,0.7105805086530421,1.710580508653042,1.289419491346958,3.0,1,1.460580508653042,0,4.0,3.0,1,2,4,0,4,0,0,7,7,0,,,,,,,340.41049549999997,340.41049549999997,341.410840459,341.877534042,342.110848875,342.110848875,342.110848875,343.410936125,343.410936125,343.410936125,343.410936125,344.429539542,200007,002,2023-04-11_08h57.24.225,DMS_et_12-36,2022.2.4,None,
41,PRED,12,0.7105805086530421,1,images/picture_2.png,images/picture_1.png,0,"[11.733433509789462, -11.733433509789466]",11.733433509789462,-11.733433509789464,images/picture_2.png,1,"[11.733433509789464, 11.733433509789462]",11.733433509789464,11.733433509789462,images/picture_3.png,2,"[-11.733433509789462, 11.733433509789464]",-11.733433509789462,11.733433509789464,0,1,1,0.7105805086530421,1.710580508653042,1.289419491346958,3.0,1,1.460580508653042,0,4.0,3.0,1,2,4,0,4,0,0,8,8,5,,,,,,,344.429539542,344.429539542,345.44409299999995,345.89687212499996,346.110769,346.110769,346.110769,347.41106504199996,347.41106504199996,347.41106504199996,347.41106504199996,348.45314991699996,200007,002,2023-04-11_08h57.24.225,DMS_et_12-36,2022.2.4,None,
,,,,,,,,,,,,,,,,,,,,,,,,,,,,,,,,,,,4,0,4,0,,,,,,,,,348.45314991699996,360.486416125,,,,,,,,,,,,,200007,002,2023-04-11_08h57.24.225,DMS_et_12-36,2022.2.4,None,
53,UNPRED,12,0.7105805086530421,2,images/picture_3.png,images/picture_1.png,0,"[-11.733433509789466, -11.733433509789462]",-11.733433509789464,-11.733433509789462,images/picture_2.png,1,"[11.733433509789462, -11.733433509789466]",11.733433509789462,-11.733433509789464,images/picture_3.png,2,"[-11.733433509789462, 11.733433509789464]",-11.733433509789462,11.733433509789464,0,1,1,0.7105805086530421,1.710580508653042,1.289419491346958,3.0,1,1.460580508653042,0,4.0,3.0,1,2,5,0,5,0,0,0,0,8,,,,,,,360.486416125,360.486416125,361.49696141699997,361.944259209,362.177449875,362.177449875,362.177449875,363.47750049999996,363.47750049999996,363.47750049999996,363.47750049999996,364.47836695899997,200007,002,2023-04-11_08h57.24.225,DMS_et_12-36,2022.2.4,None,
48,UNPRED,12,0.7105805086530421,1,images/picture_2.png,images/picture_1.png,0,"[11.733433509789464, 11.733433509789462]",11.733433509789464,11.733433509789462,images/picture_2.png,1,"[11.733433509789462, -11.733433509789466]",11.733433509789462,-11.733433509789464,images/picture_3.png,2,"[-11.733433509789466, -11.733433509789462]",-11.733433509789464,-11.733433509789462,0,1,1,0.7105805086530421,1.710580508653042,1.289419491346958,3.0,1,1.460580508653042,0,4.0,3.0,1,2,5,0,5,0,0,1,1,3,,,,,,,364.47836695899997,364.47836695899997,365.477524584,365.944356709,366.177694042,366.177694042,366.177694042,367.47747383399997,367.47747383399997,367.47747383399997,367.47747383399997,368.477149125,200007,002,2023-04-11_08h57.24.225,DMS_et_12-36,2022.2.4,None,
52,UNPRED,12,0.7105805086530421,1,images/picture_2.png,images/picture_1.png,0,"[11.733433509789462, -11.733433509789466]",11.733433509789462,-11.733433509789464,images/picture_2.png,1,"[11.733433509789464, 11.733433509789462]",11.733433509789464,11.733433509789462,images/picture_3.png,2,"[-11.733433509789466, -11.733433509789462]",-11.733433509789464,-11.733433509789462,0,1,1,0.7105805086530421,1.710580508653042,1.289419491346958,3.0,1,1.460580508653042,0,4.0,3.0,1,2,5,0,5,0,0,2,2,7,,,,,,,368.477149125,368.477149125,369.477539084,369.94406887499997,370.177510334,370.177510334,370.177510334,371.47755808399995,371.47755808399995,371.47755808399995,371.47755808399995,372.47696858399996,200007,002,2023-04-11_08h57.24.225,DMS_et_12-36,2022.2.4,None,
49,UNPRED,12,0.7105805086530421,1,images/picture_2.png,images/picture_1.png,0,"[-11.733433509789466, -11.733433509789462]",-11.733433509789464,-11.733433509789462,images/picture_2.png,1,"[11.733433509789464, 11.733433509789462]",11.733433509789464,11.733433509789462,images/picture_3.png,2,"[-11.733433509789462, 11.733433509789464]",-11.733433509789462,11.733433509789464,0,1,1,0.7105805086530421,1.710580508653042,1.289419491346958,3.0,1,1.460580508653042,0,4.0,3.0,1,2,5,0,5,0,0,3,3,4,,,,,,,372.47696858399996,372.47696858399996,373.47750525,373.94423054199996,374.17751362499996,374.17751362499996,374.17751362499996,375.47752737499997,375.47752737499997,375.47752737499997,375.47752737499997,376.47735862499997,200007,002,2023-04-11_08h57.24.225,DMS_et_12-36,2022.2.4,None,
46,UNPRED,12,0.7105805086530421,0,images/picture_1.png,images/picture_1.png,0,"[11.733433509789462, -11.733433509789466]",11.733433509789462,-11.733433509789464,images/picture_2.png,1,"[11.733433509789464, 11.733433509789462]",11.733433509789464,11.733433509789462,images/picture_3.png,2,"[-11.733433509789466, -11.733433509789462]",-11.733433509789464,-11.733433509789462,0,1,1,0.7105805086530421,1.710580508653042,1.289419491346958,3.0,1,1.460580508653042,0,4.0,3.0,1,2,5,0,5,0,0,4,4,1,,,,,,,376.47735862499997,376.47735862499997,377.47760845899995,377.944221542,378.17754920899995,378.17754920899995,378.17754920899995,379.477341959,379.477341959,379.477341959,379.477341959,380.476897459,200007,002,2023-04-11_08h57.24.225,DMS_et_12-36,2022.2.4,None,
50,UNPRED,12,0.7105805086530421,1,images/picture_2.png,images/picture_1.png,0,"[11.733433509789462, -11.733433509789466]",11.733433509789462,-11.733433509789464,images/picture_2.png,1,"[-11.733433509789462, 11.733433509789464]",-11.733433509789462,11.733433509789464,images/picture_3.png,2,"[-11.733433509789466, -11.733433509789462]",-11.733433509789464,-11.733433509789462,0,1,1,0.7105805086530421,1.710580508653042,1.289419491346958,3.0,1,1.460580508653042,0,4.0,3.0,1,2,5,0,5,0,0,5,5,5,,,,,,,380.476897459,380.476897459,381.477568959,381.94405054199996,382.177519625,382.177519625,382.177519625,383.477510792,383.477510792,383.477510792,383.477510792,384.47668525,200007,002,2023-04-11_08h57.24.225,DMS_et_12-36,2022.2.4,None,
47,UNPRED,12,0.7105805086530421,0,images/picture_1.png,images/picture_1.png,0,"[11.733433509789462, -11.733433509789466]",11.733433509789462,-11.733433509789464,images/picture_2.png,1,"[-11.733433509789462, 11.733433509789464]",-11.733433509789462,11.733433509789464,images/picture_3.png,2,"[11.733433509789464, 11.733433509789462]",11.733433509789464,11.733433509789462,0,1,1,0.7105805086530421,1.710580508653042,1.289419491346958,3.0,1,1.460580508653042,0,4.0,3.0,1,2,5,0,5,0,0,6,6,2,,,,,,,384.47668525,384.47668525,385.477506292,385.944223792,386.17765870899996,386.17765870899996,386.17765870899996,387.47753624999996,387.47753624999996,387.47753624999996,387.47753624999996,388.495937917,200007,002,2023-04-11_08h57.24.225,DMS_et_12-36,2022.2.4,None,
51,UNPRED,12,0.7105805086530421,2,images/picture_3.png,images/picture_1.png,0,"[-11.733433509789466, -11.733433509789462]",-11.733433509789464,-11.733433509789462,images/picture_2.png,1,"[11.733433509789462, -11.733433509789466]",11.733433509789462,-11.733433509789464,images/picture_3.png,2,"[-11.733433509789462, 11.733433509789464]",-11.733433509789462,11.733433509789464,0,1,1,0.7105805086530421,1.710580508653042,1.289419491346958,3.0,1,1.460580508653042,0,4.0,3.0,1,2,5,0,5,0,0,7,7,6,,,,,,,388.495937917,388.495937917,389.51081279199997,389.963323625,390.177527292,390.177527292,390.177527292,391.47749825,391.47749825,391.47749825,391.47749825,392.49625199999997,200007,002,2023-04-11_08h57.24.225,DMS_et_12-36,2022.2.4,None,
45,UNPRED,12,0.7105805086530421,2,images/picture_3.png,images/picture_1.png,0,"[11.733433509789462, -11.733433509789466]",11.733433509789462,-11.733433509789464,images/picture_2.png,1,"[11.733433509789464, 11.733433509789462]",11.733433509789464,11.733433509789462,images/picture_3.png,2,"[-11.733433509789466, -11.733433509789462]",-11.733433509789464,-11.733433509789462,0,1,1,0.7105805086530421,1.710580508653042,1.289419491346958,3.0,1,1.460580508653042,0,4.0,3.0,1,2,5,0,5,0,0,8,8,0,,,,,,,392.49625199999997,392.49625199999997,393.51077145899995,393.96345841699997,394.17747499999996,394.17747499999996,394.17747499999996,395.477535667,395.477535667,395.477535667,395.477535667,396.594155625,200007,002,2023-04-11_08h57.24.225,DMS_et_12-36,2022.2.4,None,
,,,,,,,,,,,,,,,,,,,,,,,,,,,,,,,,,,,5,0,5,0,,,,,,,,,396.594155625,408.61504649999995,,,,,,,,,,,,,200007,002,2023-04-11_08h57.24.225,DMS_et_12-36,2022.2.4,None,
58,PRED,12,0.7105805086530421,1,images/picture_2.png,images/picture_1.png,0,"[-11.733433509789462, 11.733433509789464]",-11.733433509789462,11.733433509789464,images/picture_2.png,1,"[-11.733433509789466, -11.733433509789462]",-11.733433509789464,-11.733433509789462,images/picture_3.png,2,"[11.733433509789462, -11.733433509789466]",11.733433509789462,-11.733433509789464,0,1,1,0.7105805086530421,1.710580508653042,1.289419491346958,3.0,1,1.460580508653042,0,4.0,3.0,1,2,6,0,6,0,0,0,0,4,,,,,,,408.61504649999995,408.61504649999995,409.62948995899995,410.077266125,410.31066483399997,410.31066483399997,410.31066483399997,411.610982042,411.610982042,411.610982042,411.610982042,412.610706834,200007,002,2023-04-11_08h57.24.225,DMS_et_12-36,2022.2.4,None,
55,PRED,12,0.7105805086530421,1,images/picture_2.png,images/picture_1.png,0,"[11.733433509789464, 11.733433509789462]",11.733433509789464,11.733433509789462,images/picture_2.png,1,"[-11.733433509789462, 11.733433509789464]",-11.733433509789462,11.733433509789464,images/picture_3.png,2,"[-11.733433509789466, -11.733433509789462]",-11.733433509789464,-11.733433509789462,0,1,1,0.7105805086530421,1.710580508653042,1.289419491346958,3.0,1,1.460580508653042,0,4.0,3.0,1,2,6,0,6,0,0,1,1,1,,,,,,,412.610706834,412.610706834,413.61078383399996,414.07751537499996,414.31082012499996,414.31082012499996,414.31082012499996,415.61073983399996,415.61073983399996,415.61073983399996,415.61073983399996,416.61037625,200007,002,2023-04-11_08h57.24.225,DMS_et_12-36,2022.2.4,None,
57,PRED,12,0.7105805086530421,1,images/picture_2.png,images/picture_1.png,0,"[-11.733433509789462, 11.733433509789464]",-11.733433509789462,11.733433509789464,images/picture_2.png,1,"[11.733433509789462, -11.733433509789466]",11.733433509789462,-11.733433509789464,images/picture_3.png,2,"[-11.733433509789466, -11.733433509789462]",-11.733433509789464,-11.733433509789462,0,1,1,0.7105805086530421,1.710580508653042,1.289419491346958,3.0,1,1.460580508653042,0,4.0,3.0,1,2,6,0,6,0,0,2,2,3,,,,,,,416.61037625,416.61037625,417.610833584,418.07753399999996,418.31078758399997,418.31078758399997,418.31078758399997,419.61061354199995,419.61061354199995,419.61061354199995,419.61061354199995,420.61040166699996,200007,002,2023-04-11_08h57.24.225,DMS_et_12-36,2022.2.4,None,
54,PRED,12,0.7105805086530421,1,images/picture_2.png,images/picture_1.png,0,"[11.733433509789462, -11.733433509789466]",11.733433509789462,-11.733433509789464,images/picture_2.png,1,"[-11.733433509789462, 11.733433509789464]",-11.733433509789462,11.733433509789464,images/picture_3.png,2,"[-11.733433509789466, -11.733433509789462]",-11.733433509789464,-11.733433509789462,0,1,1,0.7105805086530421,1.710580508653042,1.289419491346958,3.0,1,1.460580508653042,0,4.0,3.0,1,2,6,0,6,0,0,3,3,0,,,,,,,420.61040166699996,420.61040166699996,421.610754375,422.077531917,422.310757459,422.310757459,422.310757459,423.61087316699997,423.61087316699997,423.61087316699997,423.61087316699997,424.610217209,200007,002,2023-04-11_08h57.24.225,DMS_et_12-36,2022.2.4,None,
59,PRED,12,0.7105805086530421,1,images/picture_2.png,images/picture_1.png,0,"[11.733433509789464, 11.733433509789462]",11.733433509789464,11.733433509789462,images/picture_2.png,1,"[11.733433509789462, -11.733433509789466]",11.733433509789462,-11.733433509789464,images/picture_3.png,2,"[-11.733433509789462, 11.733433509789464]",-11.733433509789462,11.733433509789464,0,1,1,0.7105805086530421,1.710580508653042,1.289419491346958,3.0,1,1.460580508653042,0,4.0,3.0,1,2,6,0,6,0,0,4,4,5,,,,,,,424.610217209,424.610217209,425.610825,426.07750970899997,426.31085487499996,426.31085487499996,426.31085487499996,427.610825084,427.610825084,427.610825084,427.610825084,428.610196709,200007,002,2023-04-11_08h57.24.225,DMS_et_12-36,2022.2.4,None,
60,PRED,12,0.7105805086530421,1,images/picture_2.png,images/picture_1.png,0,"[-11.733433509789462, 11.733433509789464]",-11.733433509789462,11.733433509789464,images/picture_2.png,1,"[11.733433509789464, 11.733433509789462]",11.733433509789464,11.733433509789462,images/picture_3.png,2,"[-11.733433509789466, -11.733433509789462]",-11.733433509789464,-11.733433509789462,0,1,1,0.7105805086530421,1.710580508653042,1.289419491346958,3.0,1,1.460580508653042,0,4.0,3.0,1,2,6,0,6,0,0,5,5,6,,,,,,,428.610196709,428.610196709,429.6107305,430.077292334,430.31063974999995,430.31063974999995,430.31063974999995,431.610982542,431.610982542,431.610982542,431.610982542,432.60981475,200007,002,2023-04-11_08h57.24.225,DMS_et_12-36,2022.2.4,None,
61,PRED,12,0.7105805086530421,1,images/picture_2.png,images/picture_1.png,0,"[-11.733433509789466, -11.733433509789462]",-11.733433509789464,-11.733433509789462,images/picture_2.png,1,"[-11.733433509789462, 11.733433509789464]",-11.733433509789462,11.733433509789464,images/picture_3.png,2,"[11.733433509789464, 11.733433509789462]",11.733433509789464,11.733433509789462,0,1,1,0.7105805086530421,1.710580508653042,1.289419491346958,3.0,1,1.460580508653042,0,4.0,3.0,1,2,6,0,6,0,0,6,6,7,,,,,,,432.60981475,432.60981475,433.610809584,434.07750191699995,434.310774209,434.310774209,434.310774209,435.610769667,435.610769667,435.610769667,435.610769667,436.610320959,200007,002,2023-04-11_08h57.24.225,DMS_et_12-36,2022.2.4,None,
56,PRED,12,0.7105805086530421,1,images/picture_2.png,images/picture_1.png,0,"[11.733433509789464, 11.733433509789462]",11.733433509789464,11.733433509789462,images/picture_2.png,1,"[-11.733433509789462, 11.733433509789464]",-11.733433509789462,11.733433509789464,images/picture_3.png,2,"[-11.733433509789466, -11.733433509789462]",-11.733433509789464,-11.733433509789462,0,1,1,0.7105805086530421,1.710580508653042,1.289419491346958,3.0,1,1.460580508653042,0,4.0,3.0,1,2,6,0,6,0,0,7,7,2,,,,,,,436.610320959,436.610320959,437.610819334,438.07748425,438.310821584,438.310821584,438.310821584,439.610836292,439.610836292,439.610836292,439.610836292,440.610555167,200007,002,2023-04-11_08h57.24.225,DMS_et_12-36,2022.2.4,None,
62,PRED,12,0.7105805086530421,1,images/picture_2.png,images/picture_1.png,0,"[-11.733433509789462, 11.733433509789464]",-11.733433509789462,11.733433509789464,images/picture_2.png,1,"[-11.733433509789466, -11.733433509789462]",-11.733433509789464,-11.733433509789462,images/picture_3.png,2,"[11.733433509789462, -11.733433509789466]",11.733433509789462,-11.733433509789464,0,1,1,0.7105805086530421,1.710580508653042,1.289419491346958,3.0,1,1.460580508653042,0,4.0,3.0,1,2,6,0,6,0,0,8,8,8,,,,,,,440.610555167,440.610555167,441.61079075,442.077491667,442.31078049999996,442.31078049999996,442.31078049999996,443.61080983399995,443.61080983399995,443.61080983399995,443.61080983399995,444.68765604199996,200007,002,2023-04-11_08h57.24.225,DMS_et_12-36,2022.2.4,None,
,,,,,,,,,,,,,,,,,,,,,,,,,,,,,,,,,,,6,0,6,0,,,,,,,,,444.68765604199996,456.723124917,,,,,,,,,,,,,200007,002,2023-04-11_08h57.24.225,DMS_et_12-36,2022.2.4,None,
70,UNPRED,12,0.7105805086530421,2,images/picture_3.png,images/picture_1.png,0,"[-11.733433509789462, 11.733433509789464]",-11.733433509789462,11.733433509789464,images/picture_2.png,1,"[11.733433509789464, 11.733433509789462]",11.733433509789464,11.733433509789462,images/picture_3.png,2,"[11.733433509789462, -11.733433509789466]",11.733433509789462,-11.733433509789464,0,1,1,0.7105805086530421,1.710580508653042,1.289419491346958,3.0,1,1.460580508653042,0,4.0,3.0,1,2,7,0,7,0,0,0,0,7,,,,,,,456.723124917,456.723124917,457.7305580419999,458.196792334,458.430085334,458.430085334,458.430085334,459.71075612499993,459.7303735,459.7303735,459.7303735,460.7102906669999,200007,002,2023-04-11_08h57.24.225,DMS_et_12-36,2022.2.4,None,
69,UNPRED,12,0.7105805086530421,0,images/picture_1.png,images/picture_1.png,0,"[11.733433509789464, 11.733433509789462]",11.733433509789464,11.733433509789462,images/picture_2.png,1,"[-11.733433509789462, 11.733433509789464]",-11.733433509789462,11.733433509789464,images/picture_3.png,2,"[11.733433509789462, -11.733433509789466]",11.733433509789462,-11.733433509789464,0,1,1,0.7105805086530421,1.710580508653042,1.289419491346958,3.0,1,1.460580508653042,0,4.0,3.0,1,2,7,0,7,0,0,1,1,6,,,,,,,460.7102906669999,460.7102906669999,461.710887917,462.17750004199996,462.41081174999994,462.41081174999994,462.41081174999994,463.71082425000003,463.71082425000003,463.71082425000003,463.71082425000003,464.71024004199995,200007,002,2023-04-11_08h57.24.225,DMS_et_12-36,2022.2.4,None,
67,UNPRED,12,0.7105805086530421,0,images/picture_1.png,images/picture_1.png,0,"[11.733433509789464, 11.733433509789462]",11.733433509789464,11.733433509789462,images/picture_2.png,1,"[-11.733433509789466, -11.733433509789462]",-11.733433509789464,-11.733433509789462,images/picture_3.png,2,"[-11.733433509789462, 11.733433509789464]",-11.733433509789462,11.733433509789464,0,1,1,0.7105805086530421,1.710580508653042,1.289419491346958,3.0,1,1.460580508653042,0,4.0,3.0,1,2,7,0,7,0,0,2,2,4,,,,,,,464.71024004199995,464.71024004199995,465.71078941699994,466.1776983749999,466.410955084,466.410955084,466.410955084,467.710796625,467.710796625,467.710796625,467.710796625,468.72980879200003,200007,002,2023-04-11_08h57.24.225,DMS_et_12-36,2022.2.4,None,
64,UNPRED,12,0.7105805086530421,2,images/picture_3.png,images/picture_1.png,0,"[11.733433509789464, 11.733433509789462]",11.733433509789464,11.733433509789462,images/picture_2.png,1,"[-11.733433509789462, 11.733433509789464]",-11.733433509789462,11.733433509789464,images/picture_3.png,2,"[11.733433509789462, -11.733433509789466]",11.733433509789462,-11.733433509789464,0,1,1,0.7105805086530421,1.710580508653042,1.289419491346958,3.0,1,1.460580508653042,0,4.0,3.0,1,2,7,0,7,0,0,3,3,1,,,,,,,468.72980879200003,468.72980879200003,469.744256334,470.19724125,470.410840834,470.410840834,470.410840834,471.71051608399995,471.71051608399995,471.71051608399995,471.71051608399995,472.72953358399997,200007,002,2023-04-11_08h57.24.225,DMS_et_12-36,2022.2.4,None,
66,UNPRED,12,0.7105805086530421,2,images/picture_3.png,images/picture_1.png,0,"[-11.733433509789466, -11.733433509789462]",-11.733433509789464,-11.733433509789462,images/picture_2.png,1,"[11.733433509789464, 11.733433509789462]",11.733433509789464,11.733433509789462,images/picture_3.png,2,"[-11.733433509789462, 11.733433509789464]",-11.733433509789462,11.733433509789464,0,1,1,0.7105805086530421,1.710580508653042,1.289419491346958,3.0,1,1.460580508653042,0,4.0,3.0,1,2,7,0,7,0,0,4,4,3,,,,,,,472.72953358399997,472.72953358399997,473.74403291699997,474.1969297499999,474.41081204200003,474.41081204200003,474.41081204200003,475.71078879199996,475.71078879199996,475.71078879199996,475.71078879199996,476.71078137499995,200007,002,2023-04-11_08h57.24.225,DMS_et_12-36,2022.2.4,None,
71,UNPRED,12,0.7105805086530421,0,images/picture_1.png,images/picture_1.png,0,"[-11.733433509789466, -11.733433509789462]",-11.733433509789464,-11.733433509789462,images/picture_2.png,1,"[11.733433509789462, -11.733433509789466]",11.733433509789462,-11.733433509789464,images/picture_3.png,2,"[11.733433509789464, 11.733433509789462]",11.733433509789464,11.733433509789462,0,1,1,0.7105805086530421,1.710580508653042,1.289419491346958,3.0,1,1.460580508653042,0,4.0,3.0,1,2,7,0,7,0,0,5,5,8,,,,,,,476.71078137499995,476.71078137499995,477.710882625,478.17754070899997,478.410734375,478.410734375,478.410734375,479.71081458399993,479.71081458399993,479.71081458399993,479.71081458399993,480.729716292,200007,002,2023-04-11_08h57.24.225,DMS_et_12-36,2022.2.4,None,
65,UNPRED,12,0.7105805086530421,2,images/picture_3.png,images/picture_1.png,0,"[-11.733433509789466, -11.733433509789462]",-11.733433509789464,-11.733433509789462,images/picture_2.png,1,"[11.733433509789462, -11.733433509789466]",11.733433509789462,-11.733433509789464,images/picture_3.png,2,"[11.733433509789464, 11.733433509789462]",11.733433509789464,11.733433509789462,0,1,1,0.7105805086530421,1.710580508653042,1.289419491346958,3.0,1,1.460580508653042,0,4.0,3.0,1,2,7,0,7,0,0,6,6,2,,,,,,,480.729716292,480.729716292,481.74391354200003,482.19719641699993,482.41081045899995,482.41081045899995,482.41081045899995,483.710784125,483.710784125,483.710784125,483.710784125,484.71033904199993,200007,002,2023-04-11_08h57.24.225,DMS_et_12-36,2022.2.4,None,
68,UNPRED,12,0.7105805086530421,0,images/picture_1.png,images/picture_1.png,0,"[-11.733433509789466, -11.733433509789462]",-11.733433509789464,-11.733433509789462,images/picture_2.png,1,"[11.733433509789464, 11.733433509789462]",11.733433509789464,11.733433509789462,images/picture_3.png,2,"[11.733433509789462, -11.733433509789466]",11.733433509789462,-11.733433509789464,0,1,1,0.7105805086530421,1.710580508653042,1.289419491346958,3.0,1,1.460580508653042,0,4.0,3.0,1,2,7,0,7,0,0,7,7,5,,,,,,,484.71033904199993,484.71033904199993,485.710805667,486.17774341699993,486.410665584,486.410665584,486.410665584,487.710814375,487.710814375,487.710814375,487.710814375,488.709550375,200007,002,2023-04-11_08h57.24.225,DMS_et_12-36,2022.2.4,None,
63,UNPRED,12,0.7105805086530421,1,images/picture_2.png,images/picture_1.png,0,"[-11.733433509789462, 11.733433509789464]",-11.733433509789462,11.733433509789464,images/picture_2.png,1,"[-11.733433509789466, -11.733433509789462]",-11.733433509789464,-11.733433509789462,images/picture_3.png,2,"[11.733433509789464, 11.733433509789462]",11.733433509789464,11.733433509789462,0,1,1,0.7105805086530421,1.710580508653042,1.289419491346958,3.0,1,1.460580508653042,0,4.0,3.0,1,2,7,0,7,0,0,8,8,0,,,,,,,488.709550375,488.709550375,489.710788625,490.17757275,490.41084762500003,490.41084762500003,490.41084762500003,491.71058120899994,491.71058120899994,491.71058120899994,491.71058120899994,492.79986645899993,200007,002,2023-04-11_08h57.24.225,DMS_et_12-36,2022.2.4,None,
,,,,,,,,,,,,,,,,,,,,,,,,,,,,,,,,,,,7,0,7,0,,,,,,,,,492.79986645899993,504.833999667,,,,,,,,,,,,,200007,002,2023-04-11_08h57.24.225,DMS_et_12-36,2022.2.4,None,
79,PRED,12,0.7105805086530421,1,images/picture_2.png,images/picture_1.png,0,"[11.733433509789462, -11.733433509789466]",11.733433509789462,-11.733433509789464,images/picture_2.png,1,"[-11.733433509789462, 11.733433509789464]",-11.733433509789462,11.733433509789464,images/picture_3.png,2,"[-11.733433509789466, -11.733433509789462]",-11.733433509789464,-11.733433509789462,0,1,1,0.7105805086530421,1.710580508653042,1.289419491346958,3.0,1,1.460580508653042,0,4.0,3.0,1,2,8,0,8,0,0,0,0,7,,,,,,,504.833999667,504.833999667,505.84433137499997,506.29731129199996,506.54410079199994,506.54410079199994,506.54410079199994,507.830007417,507.844236167,507.844236167,507.844236167,508.843688792,200007,002,2023-04-11_08h57.24.225,DMS_et_12-36,2022.2.4,None,
72,PRED,12,0.7105805086530421,1,images/picture_2.png,images/picture_1.png,0,"[-11.733433509789462, 11.733433509789464]",-11.733433509789462,11.733433509789464,images/picture_2.png,1,"[11.733433509789464, 11.733433509789462]",11.733433509789464,11.733433509789462,images/picture_3.png,2,"[11.733433509789462, -11.733433509789466]",11.733433509789462,-11.733433509789464,0,1,1,0.7105805086530421,1.710580508653042,1.289419491346958,3.0,1,1.460580508653042,0,4.0,3.0,1,2,8,0,8,0,0,1,1,0,,,,,,,508.843688792,508.843688792,509.844207875,510.310800959,510.54426912499997,510.54426912499997,510.54426912499997,511.84393574999996,511.84393574999996,511.84393574999996,511.84393574999996,512.844019459,200007,002,2023-04-11_08h57.24.225,DMS_et_12-36,2022.2.4,None,
76,PRED,12,0.7105805086530421,1,images/picture_2.png,images/picture_1.png,0,"[-11.733433509789466, -11.733433509789462]",-11.733433509789464,-11.733433509789462,images/picture_2.png,1,"[11.733433509789462, -11.733433509789466]",11.733433509789462,-11.733433509789464,images/picture_3.png,2,"[11.733433509789464, 11.733433509789462]",11.733433509789464,11.733433509789462,0,1,1,0.7105805086530421,1.710580508653042,1.289419491346958,3.0,1,1.460580508653042,0,4.0,3.0,1,2,8,0,8,0,0,2,2,4,,,,,,,512.844019459,512.844019459,513.844229875,514.3107725,514.544012167,514.544012167,514.544012167,515.844086667,515.844086667,515.844086667,515.844086667,516.843967667,200007,002,2023-04-11_08h57.24.225,DMS_et_12-36,2022.2.4,None,
75,PRED,12,0.7105805086530421,1,images/picture_2.png,images/picture_1.png,0,"[11.733433509789462, -11.733433509789466]",11.733433509789462,-11.733433509789464,images/picture_2.png,1,"[-11.733433509789466, -11.733433509789462]",-11.733433509789464,-11.733433509789462,images/picture_3.png,2,"[-11.733433509789462, 11.733433509789464]",-11.733433509789462,11.733433509789464,0,1,1,0.7105805086530421,1.710580508653042,1.289419491346958,3.0,1,1.460580508653042,0,4.0,3.0,1,2,8,0,8,0,0,3,3,3,,,,,,,516.843967667,516.843967667,517.8445044590001,518.3110947920001,518.5445125,518.5445125,518.5445125,519.8445242500001,519.8445242500001,519.8445242500001,519.8445242500001,520.8439070420001,200007,002,2023-04-11_08h57.24.225,DMS_et_12-36,2022.2.4,None,
78,PRED,12,0.7105805086530421,1,images/picture_2.png,images/picture_1.png,0,"[-11.733433509789462, 11.733433509789464]",-11.733433509789462,11.733433509789464,images/picture_2.png,1,"[11.733433509789464, 11.733433509789462]",11.733433509789464,11.733433509789462,images/picture_3.png,2,"[11.733433509789462, -11.733433509789466]",11.733433509789462,-11.733433509789464,0,1,1,0.7105805086530421,1.710580508653042,1.289419491346958,3.0,1,1.460580508653042,0,4.0,3.0,1,2,8,0,8,0,0,4,4,6,,,,,,,520.8439070420001,520.8439070420001,521.8443882500001,522.311159709,522.544301709,522.544301709,522.544301709,523.844314,523.844314,523.844314,523.844314,524.843991792,200007,002,2023-04-11_08h57.24.225,DMS_et_12-36,2022.2.4,None,
74,PRED,12,0.7105805086530421,1,images/picture_2.png,images/picture_1.png,0,"[11.733433509789462, -11.733433509789466]",11.733433509789462,-11.733433509789464,images/picture_2.png,1,"[-11.733433509789462, 11.733433509789464]",-11.733433509789462,11.733433509789464,images/picture_3.png,2,"[-11.733433509789466, -11.733433509789462]",-11.733433509789464,-11.733433509789462,0,1,1,0.7105805086530421,1.710580508653042,1.289419491346958,3.0,1,1.460580508653042,0,4.0,3.0,1,2,8,0,8,0,0,5,5,2,,,,,,,524.843991792,524.843991792,525.844464334,526.3111337500001,526.544404417,526.544404417,526.544404417,527.844615584,527.844615584,527.844615584,527.844615584,528.844733709,200007,002,2023-04-11_08h57.24.225,DMS_et_12-36,2022.2.4,None,
77,PRED,12,0.7105805086530421,1,images/picture_2.png,images/picture_1.png,0,"[11.733433509789462, -11.733433509789466]",11.733433509789462,-11.733433509789464,images/picture_2.png,1,"[11.733433509789464, 11.733433509789462]",11.733433509789464,11.733433509789462,images/picture_3.png,2,"[-11.733433509789466, -11.733433509789462]",-11.733433509789464,-11.733433509789462,0,1,1,0.7105805086530421,1.710580508653042,1.289419491346958,3.0,1,1.460580508653042,0,4.0,3.0,1,2,8,0,8,0,0,6,6,5,,,,,,,528.844733709,528.844733709,529.844491625,530.3111921670001,530.544608292,530.544608292,530.544608292,531.8443252090001,531.8443252090001,531.8443252090001,531.8443252090001,532.844207834,200007,002,2023-04-11_08h57.24.225,DMS_et_12-36,2022.2.4,None,
73,PRED,12,0.7105805086530421,1,images/picture_2.png,images/picture_1.png,0,"[11.733433509789464, 11.733433509789462]",11.733433509789464,11.733433509789462,images/picture_2.png,1,"[-11.733433509789466, -11.733433509789462]",-11.733433509789464,-11.733433509789462,images/picture_3.png,2,"[-11.733433509789462, 11.733433509789464]",-11.733433509789462,11.733433509789464,0,1,1,0.7105805086530421,1.710580508653042,1.289419491346958,3.0,1,1.460580508653042,0,4.0,3.0,1,2,8,0,8,0,0,7,7,1,,,,,,,532.844207834,532.844207834,533.844558709,534.311104167,534.544588834,534.544588834,534.544588834,535.8444013750001,535.8444013750001,535.8444013750001,535.8444013750001,536.8440847090001,200007,002,2023-04-11_08h57.24.225,DMS_et_12-36,2022.2.4,None,
80,PRED,12,0.7105805086530421,1,images/picture_2.png,images/picture_1.png,0,"[11.733433509789464, 11.733433509789462]",11.733433509789464,11.733433509789462,images/picture_2.png,1,"[-11.733433509789462, 11.733433509789464]",-11.733433509789462,11.733433509789464,images/picture_3.png,2,"[-11.733433509789466, -11.733433509789462]",-11.733433509789464,-11.733433509789462,0,1,1,0.7105805086530421,1.710580508653042,1.289419491346958,3.0,1,1.460580508653042,0,4.0,3.0,1,2,8,0,8,0,0,8,8,8,,,,,,,536.8440847090001,536.8440847090001,537.84530525,538.311133917,538.5445975,538.5445975,538.5445975,539.84450575,539.84450575,539.84450575,539.84450575,540.942498292,200007,002,2023-04-11_08h57.24.225,DMS_et_12-36,2022.2.4,None,
,,,,,,,,,,,,,,,,,,,,,,,,,,,,,,,,,,,8,0,8,0,,,,,,,,,540.942498292,552.9630537500001,,,,,,,,,,,,,200007,002,2023-04-11_08h57.24.225,DMS_et_12-36,2022.2.4,None,
89,UNPRED,12,0.7105805086530421,1,images/picture_2.png,images/picture_1.png,0,"[11.733433509789464, 11.733433509789462]",11.733433509789464,11.733433509789462,images/picture_2.png,1,"[-11.733433509789462, 11.733433509789464]",-11.733433509789462,11.733433509789464,images/picture_3.png,2,"[11.733433509789462, -11.733433509789466]",11.733433509789462,-11.733433509789464,0,1,1,0.7105805086530421,1.710580508653042,1.289419491346958,3.0,1,1.460580508653042,0,4.0,3.0,1,2,9,0,9,0,0,0,0,8,,,,,,,552.9630537500001,552.9630537500001,553.977835584,554.430485709,554.6637050420001,554.6637050420001,554.6637050420001,555.9444476670001,555.96399675,555.96399675,555.96399675,556.963042459,200007,002,2023-04-11_08h57.24.225,DMS_et_12-36,2022.2.4,None,
85,UNPRED,12,0.7105805086530421,2,images/picture_3.png,images/picture_1.png,0,"[11.733433509789462, -11.733433509789466]",11.733433509789462,-11.733433509789464,images/picture_2.png,1,"[-11.733433509789466, -11.733433509789462]",-11.733433509789464,-11.733433509789462,images/picture_3.png,2,"[11.733433509789464, 11.733433509789462]",11.733433509789464,11.733433509789462,0,1,1,0.7105805086530421,1.710580508653042,1.289419491346958,3.0,1,1.460580508653042,0,4.0,3.0,1,2,9,0,9,0,0,1,1,4,,,,,,,556.963042459,556.963042459,557.978060042,558.43063125,558.6445073340001,558.6445073340001,558.6445073340001,559.944474125,559.944474125,559.944474125,559.944474125,560.9457255,200007,002,2023-04-11_08h57.24.225,DMS_et_12-36,2022.2.4,None,
83,UNPRED,12,0.7105805086530421,1,images/picture_2.png,images/picture_1.png,0,"[-11.733433509789466, -11.733433509789462]",-11.733433509789464,-11.733433509789462,images/picture_2.png,1,"[11.733433509789462, -11.733433509789466]",11.733433509789462,-11.733433509789464,images/picture_3.png,2,"[11.733433509789464, 11.733433509789462]",11.733433509789464,11.733433509789462,0,1,1,0.7105805086530421,1.710580508653042,1.289419491346958,3.0,1,1.460580508653042,0,4.0,3.0,1,2,9,0,9,0,0,2,2,2,,,,,,,560.9457255,560.9457255,561.9444980000001,562.411210667,562.644524209,562.644524209,562.644524209,563.9443378340001,563.9443378340001,563.9443378340001,563.9443378340001,564.943612709,200007,002,2023-04-11_08h57.24.225,DMS_et_12-36,2022.2.4,None,
88,UNPRED,12,0.7105805086530421,1,images/picture_2.png,images/picture_1.png,0,"[-11.733433509789466, -11.733433509789462]",-11.733433509789464,-11.733433509789462,images/picture_2.png,1,"[11.733433509789462, -11.733433509789466]",11.733433509789462,-11.733433509789464,images/picture_3.png,2,"[11.733433509789464, 11.733433509789462]",11.733433509789464,11.733433509789462,0,1,1,0.7105805086530421,1.710580508653042,1.289419491346958,3.0,1,1.460580508653042,0,4.0,3.0,1,2,9,0,9,0,0,3,3,7,,,,,,,564.943612709,564.943612709,565.9445084170001,566.4112385000001,566.6445025840001,566.6445025840001,566.6445025840001,567.944518709,567.944518709,567.944518709,567.944518709,568.9434865420001,200007,002,2023-04-11_08h57.24.225,DMS_et_12-36,2022.2.4,None,
81,UNPRED,12,0.7105805086530421,0,images/picture_1.png,images/picture_1.png,0,"[11.733433509789464, 11.733433509789462]",11.733433509789464,11.733433509789462,images/picture_2.png,1,"[-11.733433509789466, -11.733433509789462]",-11.733433509789464,-11.733433509789462,images/picture_3.png,2,"[11.733433509789462, -11.733433509789466]",11.733433509789462,-11.733433509789464,0,1,1,0.7105805086530421,1.710580508653042,1.289419491346958,3.0,1,1.460580508653042,0,4.0,3.0,1,2,9,0,9,0,0,4,4,0,,,,,,,568.9434865420001,568.9434865420001,569.944483,570.411031792,570.644463084,570.644463084,570.644463084,571.944544542,571.944544542,571.944544542,571.944544542,572.9440477090001,200007,002,2023-04-11_08h57.24.225,DMS_et_12-36,2022.2.4,None,
84,UNPRED,12,0.7105805086530421,0,images/picture_1.png,images/picture_1.png,0,"[11.733433509789464, 11.733433509789462]",11.733433509789464,11.733433509789462,images/picture_2.png,1,"[-11.733433509789462, 11.733433509789464]",-11.733433509789462,11.733433509789464,images/picture_3.png,2,"[-11.733433509789466, -11.733433509789462]",-11.733433509789464,-11.733433509789462,0,1,1,0.7105805086530421,1.710580508653042,1.289419491346958,3.0,1,1.460580508653042,0,4.0,3.0,1,2,9,0,9,0,0,5,5,3,,,,,,,572.9440477090001,572.9440477090001,573.94429425,574.411233709,574.6445015420001,574.6445015420001,574.6445015420001,575.944502125,575.944502125,575.944502125,575.944502125,576.963058667,200007,002,2023-04-11_08h57.24.225,DMS_et_12-36,2022.2.4,None,
86,UNPRED,12,0.7105805086530421,2,images/picture_3.png,images/picture_1.png,0,"[-11.733433509789466, -11.733433509789462]",-11.733433509789464,-11.733433509789462,images/picture_2.png,1,"[11.733433509789464, 11.733433509789462]",11.733433509789464,11.733433509789462,images/picture_3.png,2,"[11.733433509789462, -11.733433509789466]",11.733433509789462,-11.733433509789464,0,1,1,0.7105805086530421,1.710580508653042,1.289419491346958,3.0,1,1.460580508653042,0,4.0,3.0,1,2,9,0,9,0,0,6,6,5,,,,,,,576.963058667,576.963058667,577.977955917,578.4298028750001,578.644483625,578.644483625,578.644483625,579.9445034590001,579.9445034590001,579.9445034590001,579.9445034590001,580.9439292090001,200007,002,2023-04-11_08h57.24.225,DMS_et_12-36,2022.2.4,None,
87,UNPRED,12,0.7105805086530421,0,images/picture_1.png,images/picture_1.png,0,"[11.733433509789464, 11.733433509789462]",11.733433509789464,11.733433509789462,images/picture_2.png,1,"[11.733433509789462, -11.733433509789466]",11.733433509789462,-11.733433509789464,images/picture_3.png,2,"[-11.733433509789466, -11.733433509789462]",-11.733433509789464,-11.733433509789462,0,1,1,0.7105805086530421,1.710580508653042,1.289419491346958,3.0,1,1.460580508653042,0,4.0,3.0,1,2,9,0,9,0,0,7,7,6,,,,,,,580.9439292090001,580.9439292090001,581.944482834,582.4112552500001,582.644566875,582.644566875,582.644566875,583.944319584,583.944319584,583.944319584,583.944319584,584.9440427090001,200007,002,2023-04-11_08h57.24.225,DMS_et_12-36,2022.2.4,None,
82,UNPRED,12,0.7105805086530421,1,images/picture_2.png,images/picture_1.png,0,"[11.733433509789462, -11.733433509789466]",11.733433509789462,-11.733433509789464,images/picture_2.png,1,"[11.733433509789464, 11.733433509789462]",11.733433509789464,11.733433509789462,images/picture_3.png,2,"[-11.733433509789462, 11.733433509789464]",-11.733433509789462,11.733433509789464,0,1,1,0.7105805086530421,1.710580508653042,1.289419491346958,3.0,1,1.460580508653042,0,4.0,3.0,1,2,9,0,9,0,0,8,8,1,,,,,,,584.9440427090001,584.9440427090001,585.944699084,586.411028334,586.6441392500001,586.6441392500001,586.6441392500001,587.944503209,587.944503209,587.944503209,587.944503209,589.04950175,200007,002,2023-04-11_08h57.24.225,DMS_et_12-36,2022.2.4,None,
,,,,,,,,,,,,,,,,,,,,,,,,,,,,,,,,,,,9,0,9,0,,,,,,,,,589.04950175,601.085424792,,,,,,,,,,,,,200007,002,2023-04-11_08h57.24.225,DMS_et_12-36,2022.2.4,None,
93,PRED,12,0.7105805086530421,0,images/picture_1.png,images/picture_1.png,0,"[-11.733433509789462, 11.733433509789464]",-11.733433509789462,11.733433509789464,images/picture_2.png,1,"[11.733433509789462, -11.733433509789466]",11.733433509789462,-11.733433509789464,images/picture_3.png,2,"[11.733433509789464, 11.733433509789462]",11.733433509789464,11.733433509789462,0,1,1,0.7105805086530421,1.710580508653042,1.289419491346958,3.0,1,1.460580508653042,0,4.0,3.0,1,2,10,0,10,0,0,0,0,3,,,,,,,601.085424792,601.085424792,602.097053959,602.544515292,602.797145375,602.797145375,602.797145375,604.077792875,604.096520875,604.096520875,604.096520875,605.077344959,200007,002,2023-04-11_08h57.24.225,DMS_et_12-36,2022.2.4,None,
92,PRED,12,0.7105805086530421,0,images/picture_1.png,images/picture_1.png,0,"[11.733433509789464, 11.733433509789462]",11.733433509789464,11.733433509789462,images/picture_2.png,1,"[-11.733433509789462, 11.733433509789464]",-11.733433509789462,11.733433509789464,images/picture_3.png,2,"[11.733433509789462, -11.733433509789466]",11.733433509789462,-11.733433509789464,0,1,1,0.7105805086530421,1.710580508653042,1.289419491346958,3.0,1,1.460580508653042,0,4.0,3.0,1,2,10,0,10,0,0,1,1,2,,,,,,,605.077344959,605.077344959,606.077803042,606.544554542,606.777831042,606.777831042,606.777831042,608.077933625,608.077933625,608.077933625,608.077933625,609.077285417,200007,002,2023-04-11_08h57.24.225,DMS_et_12-36,2022.2.4,None,
91,PRED,12,0.7105805086530421,0,images/picture_1.png,images/picture_1.png,0,"[-11.733433509789462, 11.733433509789464]",-11.733433509789462,11.733433509789464,images/picture_2.png,1,"[11.733433509789464, 11.733433509789462]",11.733433509789464,11.733433509789462,images/picture_3.png,2,"[11.733433509789462, -11.733433509789466]",11.733433509789462,-11.733433509789464,0,1,1,0.7105805086530421,1.710580508653042,1.289419491346958,3.0,1,1.460580508653042,0,4.0,3.0,1,2,10,0,10,0,0,2,2,1,,,,,,,609.077285417,609.077285417,610.0778072090001,610.5446035,610.777836709,610.777836709,610.777836709,612.077796292,612.077796292,612.077796292,612.077796292,613.077349875,200007,002,2023-04-11_08h57.24.225,DMS_et_12-36,2022.2.4,None,
98,PRED,12,0.7105805086530421,0,images/picture_1.png,images/picture_1.png,0,"[11.733433509789464, 11.733433509789462]",11.733433509789464,11.733433509789462,images/picture_2.png,1,"[-11.733433509789466, -11.733433509789462]",-11.733433509789464,-11.733433509789462,images/picture_3.png,2,"[-11.733433509789462, 11.733433509789464]",-11.733433509789462,11.733433509789464,0,1,1,0.7105805086530421,1.710580508653042,1.289419491346958,3.0,1,1.460580508653042,0,4.0,3.0,1,2,10,0,10,0,0,3,3,8,,,,,,,613.077349875,613.077349875,614.0776144590001,614.544396625,614.7778074170001,614.7778074170001,614.7778074170001,616.077777542,616.077777542,616.077777542,616.077777542,617.077333292,200007,002,2023-04-11_08h57.24.225,DMS_et_12-36,2022.2.4,None,
95,PRED,12,0.7105805086530421,0,images/picture_1.png,images/picture_1.png,0,"[11.733433509789462, -11.733433509789466]",11.733433509789462,-11.733433509789464,images/picture_2.png,1,"[11.733433509789464, 11.733433509789462]",11.733433509789464,11.733433509789462,images/picture_3.png,2,"[-11.733433509789466, -11.733433509789462]",-11.733433509789464,-11.733433509789462,0,1,1,0.7105805086530421,1.710580508653042,1.289419491346958,3.0,1,1.460580508653042,0,4.0,3.0,1,2,10,0,10,0,0,4,4,5,,,,,,,617.077333292,617.077333292,618.077979084,618.544617459,618.777787,618.777787,618.777787,620.0778169170001,620.0778169170001,620.0778169170001,620.0778169170001,621.077313834,200007,002,2023-04-11_08h57.24.225,DMS_et_12-36,2022.2.4,None,
97,PRED,12,0.7105805086530421,0,images/picture_1.png,images/picture_1.png,0,"[-11.733433509789462, 11.733433509789464]",-11.733433509789462,11.733433509789464,images/picture_2.png,1,"[-11.733433509789466, -11.733433509789462]",-11.733433509789464,-11.733433509789462,images/picture_3.png,2,"[11.733433509789464, 11.733433509789462]",11.733433509789464,11.733433509789462,0,1,1,0.7105805086530421,1.710580508653042,1.289419491346958,3.0,1,1.460580508653042,0,4.0,3.0,1,2,10,0,10,0,0,5,5,7,,,,,,,621.077313834,621.077313834,622.0779791670001,622.544499792,622.777785417,622.777785417,622.777785417,624.0778253750001,624.0778253750001,624.0778253750001,624.0778253750001,625.0775241250001,200007,002,2023-04-11_08h57.24.225,DMS_et_12-36,2022.2.4,None,
90,PRED,12,0.7105805086530421,0,images/picture_1.png,images/picture_1.png,0,"[11.733433509789464, 11.733433509789462]",11.733433509789464,11.733433509789462,images/picture_2.png,1,"[-11.733433509789466, -11.733433509789462]",-11.733433509789464,-11.733433509789462,images/picture_3.png,2,"[-11.733433509789462, 11.733433509789464]",-11.733433509789462,11.733433509789464,0,1,1,0.7105805086530421,1.710580508653042,1.289419491346958,3.0,1,1.460580508653042,0,4.0,3.0,1,2,10,0,10,0,0,6,6,0,,,,,,,625.0775241250001,625.0775241250001,626.0780298750001,626.54449475,626.777982792,626.777982792,626.777982792,628.077810042,628.077810042,628.077810042,628.077810042,629.077327834,200007,002,2023-04-11_08h57.24.225,DMS_et_12-36,2022.2.4,None,
94,PRED,12,0.7105805086530421,0,images/picture_1.png,images/picture_1.png,0,"[-11.733433509789462, 11.733433509789464]",-11.733433509789462,11.733433509789464,images/picture_2.png,1,"[-11.733433509789466, -11.733433509789462]",-11.733433509789464,-11.733433509789462,images/picture_3.png,2,"[11.733433509789464, 11.733433509789462]",11.733433509789464,11.733433509789462,0,1,1,0.7105805086530421,1.710580508653042,1.289419491346958,3.0,1,1.460580508653042,0,4.0,3.0,1,2,10,0,10,0,0,7,7,4,,,,,,,629.077327834,629.077327834,630.0780150420001,630.544594834,630.777796209,630.777796209,630.777796209,632.077962959,632.077962959,632.077962959,632.077962959,633.077386292,200007,002,2023-04-11_08h57.24.225,DMS_et_12-36,2022.2.4,None,
96,PRED,12,0.7105805086530421,0,images/picture_1.png,images/picture_1.png,0,"[-11.733433509789462, 11.733433509789464]",-11.733433509789462,11.733433509789464,images/picture_2.png,1,"[11.733433509789462, -11.733433509789466]",11.733433509789462,-11.733433509789464,images/picture_3.png,2,"[-11.733433509789466, -11.733433509789462]",-11.733433509789464,-11.733433509789462,0,1,1,0.7105805086530421,1.710580508653042,1.289419491346958,3.0,1,1.460580508653042,0,4.0,3.0,1,2,10,0,10,0,0,8,8,6,,,,,,,633.077386292,633.077386292,634.07793,634.5442007920001,634.7776847920001,634.7776847920001,634.7776847920001,636.0780006670001,636.0780006670001,636.0780006670001,636.0780006670001,637.189381,200007,002,2023-04-11_08h57.24.225,DMS_et_12-36,2022.2.4,None,
,,,,,,,,,,,,,,,,,,,,,,,,,,,,,,,,,,,10,0,10,0,,,,,,,,,637.189381,649.217710084,,,,,,,,,,,,,200007,002,2023-04-11_08h57.24.225,DMS_et_12-36,2022.2.4,None,
106,UNPRED,12,0.7105805086530421,0,images/picture_1.png,images/picture_1.png,0,"[-11.733433509789466, -11.733433509789462]",-11.733433509789464,-11.733433509789462,images/picture_2.png,1,"[11.733433509789464, 11.733433509789462]",11.733433509789464,11.733433509789462,images/picture_3.png,2,"[-11.733433509789462, 11.733433509789464]",-11.733433509789462,11.733433509789464,0,1,1,0.7105805086530421,1.710580508653042,1.289419491346958,3.0,1,1.460580508653042,0,4.0,3.0,1,2,11,0,11,0,0,0,0,7,,,,,,,649.217710084,649.217710084,650.2302926250001,650.678027542,650.930699417,650.930699417,650.930699417,652.21128375,652.2300235,652.2300235,652.2300235,653.211006667,200007,002,2023-04-11_08h57.24.225,DMS_et_12-36,2022.2.4,None,
100,UNPRED,12,0.7105805086530421,1,images/picture_2.png,images/picture_1.png,0,"[11.733433509789462, -11.733433509789466]",11.733433509789462,-11.733433509789464,images/picture_2.png,1,"[11.733433509789464, 11.733433509789462]",11.733433509789464,11.733433509789462,images/picture_3.png,2,"[-11.733433509789466, -11.733433509789462]",-11.733433509789464,-11.733433509789462,0,1,1,0.7105805086530421,1.710580508653042,1.289419491346958,3.0,1,1.460580508653042,0,4.0,3.0,1,2,11,0,11,0,0,1,1,1,,,,,,,653.211006667,653.211006667,654.2113262920001,654.677829209,654.910957667,654.910957667,654.910957667,656.211353667,656.211353667,656.211353667,656.211353667,657.22995025,200007,002,2023-04-11_08h57.24.225,DMS_et_12-36,2022.2.4,None,
107,UNPRED,12,0.7105805086530421,2,images/picture_3.png,images/picture_1.png,0,"[-11.733433509789466, -11.733433509789462]",-11.733433509789464,-11.733433509789462,images/picture_2.png,1,"[-11.733433509789462, 11.733433509789464]",-11.733433509789462,11.733433509789464,images/picture_3.png,2,"[11.733433509789462, -11.733433509789466]",11.733433509789462,-11.733433509789464,0,1,1,0.7105805086530421,1.710580508653042,1.289419491346958,3.0,1,1.460580508653042,0,4.0,3.0,1,2,11,0,11,0,0,2,2,8,,,,,,,657.22995025,657.22995025,658.244659917,658.6970665,658.9113543750001,658.9113543750001,658.9113543750001,660.2107415840001,660.2107415840001,660.2107415840001,660.2107415840001,661.230668,200007,002,2023-04-11_08h57.24.225,DMS_et_12-36,2022.2.4,None,
101,UNPRED,12,0.7105805086530421,1,images/picture_2.png,images/picture_1.png,0,"[-11.733433509789462, 11.733433509789464]",-11.733433509789462,11.733433509789464,images/picture_2.png,1,"[11.733433509789464, 11.733433509789462]",11.733433509789464,11.733433509789462,images/picture_3.png,2,"[-11.733433509789466, -11.733433509789462]",-11.733433509789464,-11.733433509789462,0,1,1,0.7105805086530421,1.710580508653042,1.289419491346958,3.0,1,1.460580508653042,0,4.0,3.0,1,2,11,0,11,0,0,3,3,2,,,,,,,661.230668,661.230668,662.244631417,662.6973350840001,662.911346167,662.911346167,662.911346167,664.211349,664.211349,664.211349,664.211349,665.21109175,200007,002,2023-04-11_08h57.24.225,DMS_et_12-36,2022.2.4,None,
99,UNPRED,12,0.7105805086530421,0,images/picture_1.png,images/picture_1.png,0,"[11.733433509789462, -11.733433509789466]",11.733433509789462,-11.733433509789464,images/picture_2.png,1,"[-11.733433509789466, -11.733433509789462]",-11.733433509789464,-11.733433509789462,images/picture_3.png,2,"[-11.733433509789462, 11.733433509789464]",-11.733433509789462,11.733433509789464,0,1,1,0.7105805086530421,1.710580508653042,1.289419491346958,3.0,1,1.460580508653042,0,4.0,3.0,1,2,11,0,11,0,0,4,4,0,,,,,,,665.21109175,665.21109175,666.211093042,666.678106167,666.9112723750001,666.9112723750001,666.9112723750001,668.211337417,668.211337417,668.211337417,668.211337417,669.230106459,200007,002,2023-04-11_08h57.24.225,DMS_et_12-36,2022.2.4,None,
102,UNPRED,12,0.7105805086530421,2,images/picture_3.png,images/picture_1.png,0,"[11.733433509789462, -11.733433509789466]",11.733433509789462,-11.733433509789464,images/picture_2.png,1,"[11.733433509789464, 11.733433509789462]",11.733433509789464,11.733433509789462,images/picture_3.png,2,"[-11.733433509789466, -11.733433509789462]",-11.733433509789464,-11.733433509789462,0,1,1,0.7105805086530421,1.710580508653042,1.289419491346958,3.0,1,1.460580508653042,0,4.0,3.0,1,2,11,0,11,0,0,5,5,3,,,,,,,669.230106459,669.230106459,670.244712625,670.697440084,670.911362917,670.911362917,670.911362917,672.21139525,672.21139525,672.21139525,672.21139525,673.230645459,200007,002,2023-04-11_08h57.24.225,DMS_et_12-36,2022.2.4,None,
103,UNPRED,12,0.7105805086530421,2,images/picture_3.png,images/picture_1.png,0,"[-11.733433509789466, -11.733433509789462]",-11.733433509789464,-11.733433509789462,images/picture_2.png,1,"[-11.733433509789462, 11.733433509789464]",-11.733433509789462,11.733433509789464,images/picture_3.png,2,"[11.733433509789464, 11.733433509789462]",11.733433509789464,11.733433509789462,0,1,1,0.7105805086530421,1.710580508653042,1.289419491346958,3.0,1,1.460580508653042,0,4.0,3.0,1,2,11,0,11,0,0,6,6,4,,,,,,,673.230645459,673.230645459,674.244696834,674.697040292,674.9113247920001,674.9113247920001,674.9113247920001,676.2111395000001,676.2111395000001,676.2111395000001,676.2111395000001,677.210964125,200007,002,2023-04-11_08h57.24.225,DMS_et_12-36,2022.2.4,None,
105,UNPRED,12,0.7105805086530421,0,images/picture_1.png,images/picture_1.png,0,"[-11.733433509789462, 11.733433509789464]",-11.733433509789462,11.733433509789464,images/picture_2.png,1,"[-11.733433509789466, -11.733433509789462]",-11.733433509789464,-11.733433509789462,images/picture_3.png,2,"[11.733433509789464, 11.733433509789462]",11.733433509789464,11.733433509789462,0,1,1,0.7105805086530421,1.710580508653042,1.289419491346958,3.0,1,1.460580508653042,0,4.0,3.0,1,2,11,0,11,0,0,7,7,6,,,,,,,677.210964125,677.210964125,678.211395542,678.67814825,678.911357917,678.911357917,678.911357917,680.211368792,680.211368792,680.211368792,680.211368792,681.210806584,200007,002,2023-04-11_08h57.24.225,DMS_et_12-36,2022.2.4,None,
104,UNPRED,12,0.7105805086530421,0,images/picture_1.png,images/picture_1.png,0,"[11.733433509789464, 11.733433509789462]",11.733433509789464,11.733433509789462,images/picture_2.png,1,"[-11.733433509789466, -11.733433509789462]",-11.733433509789464,-11.733433509789462,images/picture_3.png,2,"[-11.733433509789462, 11.733433509789464]",-11.733433509789462,11.733433509789464,0,1,1,0.7105805086530421,1.710580508653042,1.289419491346958,3.0,1,1.460580508653042,0,4.0,3.0,1,2,11,0,11,0,0,8,8,5,,,,,,,681.210806584,681.210806584,682.211309042,682.678013125,682.911288375,682.911288375,682.911288375,684.211253834,684.211253834,684.211253834,684.211253834,685.3971615840001,200007,002,2023-04-11_08h57.24.225,DMS_et_12-36,2022.2.4,None,
,,,,,,,,,,,,,,,,,,,,,,,,,,,,,,,,,,,11,0,11,0,,,,,,,,,685.3971615840001,697.5477980000001,,,,,,,,,,,,,200007,002,2023-04-11_08h57.24.225,DMS_et_12-36,2022.2.4,None,
,,,,,,,,,,,,,,,,,,,,,,,,,,,,,,,,,,,,,,,,,,,,,,,697.5477980000001,710.0693109590001,,,,,,,,,,,,,,,,,,,
