trial_count,blockType,blockNum,delay_time,stimImage_i,stimImage,responseImage1,responseImage1_i,responseImage1_pos,responseImage1_X,responseImage1_Y,responseImage2,responseImage2_i,responseImage2_pos,responseImage2_X,responseImage2_Y,responseImage3,responseImage3_i,responseImage3_pos,responseImage3_X,responseImage3_Y,cue_onset,cue_dur,delay_onset,delay_dur,resp_onset,resp_dur,rest_onset,rest_dur,circle_dur,circle_onset,total_dur,cross_onset,cross_dur,delay_resp_period,blocks.thisRepN,blocks.thisTrialN,blocks.thisN,blocks.thisIndex,trials.thisRepN,trials.thisTrialN,trials.thisN,trials.thisIndex,key_resp.started,text.started,key_resp.keys,key_resp.rt,text_2.started,text_2.stopped,etRecord.started,sample.started,Delay.started,sample.stopped,Response_1.started,Response_2.started,Response_3.started,Delay.stopped,Response_1.stopped,Response_2.stopped,Response_3.stopped,polygon.started,polygon.stopped,etRecord.stopped,participant,session,date,expName,psychopyVersion,frameRate,
,,,,,,,,,,,,,,,,,,,,,,,,,,,,,,,,,,,,,,,,,,,2191.2830466249725,2191.2830466249725,t,66.11099812504835,,,,,,,,,,,,,,,,,200003,001,2023-03-22_12h36.15.163,DMS_et_12-36,2022.2.4,None,
5,PRED,12,0.8385007886340543,0,images/picture_1.png,images/picture_1.png,0,"[-11.733433509789466, -11.733433509789462]",-11.733433509789464,-11.733433509789462,images/picture_2.png,1,"[11.733433509789464, 11.733433509789462]",11.733433509789464,11.733433509789462,images/picture_3.png,2,"[-11.733433509789462, 11.733433509789464]",-11.733433509789462,11.733433509789464,0,1,1,0.8385007886340543,1.8385007886340543,1.1614992113659457,3.0,1,1.5885007886340543,0,4.0,3.0,1,2,0,0,0,0,0,0,0,5,,,,,2257.413013249985,2269.9726594999665,0.005089584039524198,2269.9726594999665,2269.9726594999665,2270.9750694159884,2271.2899793329416,2271.2899793329416,2271.2899793329416,2271.576791499974,2272.456534915953,2272.456534915953,2272.456534915953,2272.456534915953,2273.4570974999806,4.509469334036112,200003,001,2023-03-22_12h36.15.163,DMS_et_12-36,2022.2.4,None,
4,PRED,12,0.8385007886340543,0,images/picture_1.png,images/picture_1.png,0,"[-11.733433509789466, -11.733433509789462]",-11.733433509789464,-11.733433509789462,images/picture_2.png,1,"[-11.733433509789462, 11.733433509789464]",-11.733433509789462,11.733433509789464,images/picture_3.png,2,"[11.733433509789462, -11.733433509789466]",11.733433509789462,-11.733433509789464,0,1,1,0.8385007886340543,1.8385007886340543,1.1614992113659457,3.0,1,1.5885007886340543,0,4.0,3.0,1,2,0,0,0,0,0,1,1,4,,,,,,,0.005450790980830789,2275.0610083750216,2275.0610083750216,2276.076179124997,2276.3898603329435,2276.3898603329435,2276.3898603329435,2276.6566121249925,2277.556841582991,2277.556841582991,2277.556841582991,2277.5428464580327,2278.5568652909715,4.519657332915813,200003,001,2023-03-22_12h36.15.163,DMS_et_12-36,2022.2.4,None,
2,PRED,12,0.8385007886340543,0,images/picture_1.png,images/picture_1.png,0,"[-11.733433509789466, -11.733433509789462]",-11.733433509789464,-11.733433509789462,images/picture_2.png,1,"[-11.733433509789462, 11.733433509789464]",-11.733433509789462,11.733433509789464,images/picture_3.png,2,"[11.733433509789462, -11.733433509789466]",11.733433509789462,-11.733433509789464,0,1,1,0.8385007886340543,1.8385007886340543,1.1614992113659457,3.0,1,1.5885007886340543,0,4.0,3.0,1,2,0,0,0,0,0,2,2,2,,,,,,,0.005280875018797815,2280.0872232499532,2280.0872232499532,2281.090150541044,2281.4087882499443,2281.4087882499443,2281.4087882499443,2281.6901690829545,2282.5761788330274,2282.5761788330274,2282.5761788330274,2282.5761788330274,2283.5899377909955,4.511803834000602,200003,001,2023-03-22_12h36.15.163,DMS_et_12-36,2022.2.4,None,
7,PRED,12,0.8385007886340543,0,images/picture_1.png,images/picture_1.png,0,"[11.733433509789462, -11.733433509789466]",11.733433509789462,-11.733433509789464,images/picture_2.png,1,"[-11.733433509789466, -11.733433509789462]",-11.733433509789464,-11.733433509789462,images/picture_3.png,2,"[11.733433509789464, 11.733433509789462]",11.733433509789464,11.733433509789462,0,1,1,0.8385007886340543,1.8385007886340543,1.1614992113659457,3.0,1,1.5885007886340543,0,4.0,3.0,1,2,0,0,0,0,0,3,3,7,,,,,,,0.003905166988261044,2285.109649708029,2285.109649708029,2286.1234332909808,2286.4233883329434,2286.4233883329434,2286.4233883329434,2286.7096017500153,2287.590175874997,2287.590175874997,2287.590175874997,2287.590175874997,2288.590185457957,4.521793249994516,200003,001,2023-03-22_12h36.15.163,DMS_et_12-36,2022.2.4,None,
6,PRED,12,0.8385007886340543,0,images/picture_1.png,images/picture_1.png,0,"[-11.733433509789462, 11.733433509789464]",-11.733433509789462,11.733433509789464,images/picture_2.png,1,"[11.733433509789464, 11.733433509789462]",11.733433509789464,11.733433509789462,images/picture_3.png,2,"[11.733433509789462, -11.733433509789466]",11.733433509789462,-11.733433509789464,0,1,1,0.8385007886340543,1.8385007886340543,1.1614992113659457,3.0,1,1.5885007886340543,0,4.0,3.0,1,2,0,0,0,0,0,4,4,6,,,,,,,0.004441792028956115,2290.135224124999,2290.135224124999,2291.142784666037,2291.456822874956,2291.456822874956,2291.456822874956,2291.7234340410214,2292.623454040964,2292.623454040964,2292.623454040964,2292.623454040964,2293.6231664579827,4.505171000026166,200003,001,2023-03-22_12h36.15.163,DMS_et_12-36,2022.2.4,None,
0,PRED,12,0.8385007886340543,0,images/picture_1.png,images/picture_1.png,0,"[11.733433509789462, -11.733433509789466]",11.733433509789462,-11.733433509789464,images/picture_2.png,1,"[-11.733433509789462, 11.733433509789464]",-11.733433509789462,11.733433509789464,images/picture_3.png,2,"[11.733433509789464, 11.733433509789462]",11.733433509789464,11.733433509789462,0,1,1,0.8385007886340543,1.8385007886340543,1.1614992113659457,3.0,1,1.5885007886340543,0,4.0,3.0,1,2,0,0,0,0,0,5,5,0,,,,,,,0.0049757909728214145,2295.155822874978,2295.155822874978,2296.156917541055,2296.475790541037,2296.475790541037,2296.475790541037,2296.7568355830153,2297.6432604580186,2297.6432604580186,2297.6432604580186,2297.6432604580186,2298.65694812499,4.510632749996148,200003,001,2023-03-22_12h36.15.163,DMS_et_12-36,2022.2.4,None,
8,PRED,12,0.8385007886340543,0,images/picture_1.png,images/picture_1.png,0,"[11.733433509789464, 11.733433509789462]",11.733433509789464,11.733433509789462,images/picture_2.png,1,"[-11.733433509789462, 11.733433509789464]",-11.733433509789462,11.733433509789464,images/picture_3.png,2,"[-11.733433509789466, -11.733433509789462]",-11.733433509789464,-11.733433509789462,0,1,1,0.8385007886340543,1.8385007886340543,1.1614992113659457,3.0,1,1.5885007886340543,0,4.0,3.0,1,2,0,0,0,0,0,6,6,8,,,,,,,0.003578250063583255,2300.1766521249665,2300.1766521249665,2301.1901594999945,2301.5098104999634,2301.5098104999634,2301.5098104999634,2301.776524457964,2302.675915166037,2302.675915166037,2302.675915166037,2302.6564256659476,2303.6566132080043,4.520425457973033,200003,001,2023-03-22_12h36.15.163,DMS_et_12-36,2022.2.4,None,
1,PRED,12,0.8385007886340543,0,images/picture_1.png,images/picture_1.png,0,"[11.733433509789464, 11.733433509789462]",11.733433509789464,11.733433509789462,images/picture_2.png,1,"[11.733433509789462, -11.733433509789466]",11.733433509789462,-11.733433509789464,images/picture_3.png,2,"[-11.733433509789466, -11.733433509789462]",-11.733433509789464,-11.733433509789462,0,1,1,0.8385007886340543,1.8385007886340543,1.1614992113659457,3.0,1,1.5885007886340543,0,4.0,3.0,1,2,0,0,0,0,0,7,7,1,,,,,,,0.005395541083998978,2305.2027705829823,2305.2027705829823,2306.20998258295,2306.523650999996,2306.523650999996,2306.523650999996,2306.7901324999984,2307.6901600830024,2307.6901600830024,2307.6901600830024,2307.6901600830024,2308.6901480410015,4.505787375033833,200003,001,2023-03-22_12h36.15.163,DMS_et_12-36,2022.2.4,None,
3,PRED,12,0.8385007886340543,0,images/picture_1.png,images/picture_1.png,0,"[-11.733433509789462, 11.733433509789464]",-11.733433509789462,11.733433509789464,images/picture_2.png,1,"[11.733433509789464, 11.733433509789462]",11.733433509789464,11.733433509789462,images/picture_3.png,2,"[11.733433509789462, -11.733433509789466]",11.733433509789462,-11.733433509789464,0,1,1,0.8385007886340543,1.8385007886340543,1.1614992113659457,3.0,1,1.5885007886340543,0,4.0,3.0,1,2,0,0,0,0,0,8,8,3,,,,,,,0.0049489999655634165,2310.2207867079414,2310.2207867079414,2311.2236680829665,2311.5433921250515,2311.5433921250515,2311.5433921250515,2311.8236538330093,2312.709687458002,2312.709687458002,2312.709687458002,2312.709687458002,2313.7232305409852,4.5106386670377105,200003,001,2023-03-22_12h36.15.163,DMS_et_12-36,2022.2.4,None,
,,,,,,,,,,,,,,,,,,,,,,,,,,,,,,,,,,,0,0,0,0,,,,,,,,,2314.761785040959,2327.3024654580513,,,,,,,,,,,,,,,200003,001,2023-03-22_12h36.15.163,DMS_et_12-36,2022.2.4,None,
9,UNPRED,12,0.8385007886340543,1,images/picture_2.png,images/picture_1.png,0,"[-11.733433509789466, -11.733433509789462]",-11.733433509789464,-11.733433509789462,images/picture_2.png,1,"[-11.733433509789462, 11.733433509789464]",-11.733433509789462,11.733433509789464,images/picture_3.png,2,"[11.733433509789462, -11.733433509789466]",11.733433509789462,-11.733433509789464,0,1,1,0.8385007886340543,1.8385007886340543,1.1614992113659457,3.0,1,1.5885007886340543,0,4.0,3.0,1,2,1,0,1,0,0,0,0,0,,,,,,,0.005110582918860018,2327.3024654580513,2327.3024654580513,2328.309737707954,2328.623624166008,2328.623624166008,2328.623624166008,2328.890375875053,2329.7903357909527,2329.7903357909527,2329.7903357909527,2329.7903357909527,2330.790131499991,4.507467041956261,200003,001,2023-03-22_12h36.15.163,DMS_et_12-36,2022.2.4,None,
15,UNPRED,12,0.8385007886340543,1,images/picture_2.png,images/picture_1.png,0,"[11.733433509789462, -11.733433509789466]",11.733433509789462,-11.733433509789464,images/picture_2.png,1,"[-11.733433509789466, -11.733433509789462]",-11.733433509789464,-11.733433509789462,images/picture_3.png,2,"[-11.733433509789462, 11.733433509789464]",-11.733433509789462,11.733433509789464,0,1,1,0.8385007886340543,1.8385007886340543,1.1614992113659457,3.0,1,1.5885007886340543,0,4.0,3.0,1,2,1,0,1,0,0,1,1,6,,,,,,,0.006520959082990885,2332.3183273329632,2332.3183273329632,2333.3236123330425,2333.6435337079456,2333.6435337079456,2333.6435337079456,2333.90924554097,2334.808792249998,2334.808792249998,2334.808792249998,2334.808792249998,2335.8236189159798,4.511154417064972,200003,001,2023-03-22_12h36.15.163,DMS_et_12-36,2022.2.4,None,
14,UNPRED,12,0.8385007886340543,2,images/picture_3.png,images/picture_1.png,0,"[11.733433509789464, 11.733433509789462]",11.733433509789464,11.733433509789462,images/picture_2.png,1,"[-11.733433509789462, 11.733433509789464]",-11.733433509789462,11.733433509789464,images/picture_3.png,2,"[11.733433509789462, -11.733433509789466]",11.733433509789462,-11.733433509789464,0,1,1,0.8385007886340543,1.8385007886340543,1.1614992113659457,3.0,1,1.5885007886340543,0,4.0,3.0,1,2,1,0,1,0,0,2,2,5,,,,,,,0.02833312505390495,2337.364528874983,2337.364528874983,2338.376383958035,2338.65688533301,2338.65688533301,2338.65688533301,2338.957056208048,2339.823792916024,2339.823792916024,2339.823792916024,2339.823792916024,2340.8238493750105,4.53931525000371,200003,001,2023-03-22_12h36.15.163,DMS_et_12-36,2022.2.4,None,
10,UNPRED,12,0.8385007886340543,1,images/picture_2.png,images/picture_1.png,0,"[11.733433509789462, -11.733433509789466]",11.733433509789462,-11.733433509789464,images/picture_2.png,1,"[11.733433509789464, 11.733433509789462]",11.733433509789464,11.733433509789462,images/picture_3.png,2,"[-11.733433509789462, 11.733433509789464]",-11.733433509789462,11.733433509789464,0,1,1,0.8385007886340543,1.8385007886340543,1.1614992113659457,3.0,1,1.5885007886340543,0,4.0,3.0,1,2,1,0,1,0,0,3,3,1,,,,,,,0.007555249962024391,2342.3937958750175,2342.3937958750175,2343.3903621659847,2343.710205957992,2343.710205957992,2343.710205957992,2343.990368040977,2344.8759604999796,2344.8759604999796,2344.8759604999796,2344.8759604999796,2345.8904153750045,4.508783208904788,200003,001,2023-03-22_12h36.15.163,DMS_et_12-36,2022.2.4,None,
13,UNPRED,12,0.8385007886340543,2,images/picture_3.png,images/picture_1.png,0,"[-11.733433509789462, 11.733433509789464]",-11.733433509789462,11.733433509789464,images/picture_2.png,1,"[11.733433509789464, 11.733433509789462]",11.733433509789464,11.733433509789462,images/picture_3.png,2,"[-11.733433509789466, -11.733433509789462]",-11.733433509789464,-11.733433509789462,0,1,1,0.8385007886340543,1.8385007886340543,1.1614992113659457,3.0,1,1.5885007886340543,0,4.0,3.0,1,2,1,0,1,0,0,4,4,4,,,,,,,0.02570900006685406,2347.4292383330176,2347.4292383330176,2348.442909833044,2348.7234781660372,2348.7234781660372,2348.7234781660372,2349.023607915966,2349.890446666046,2349.890446666046,2349.890446666046,2349.890446666046,2350.8904617909575,4.538569250027649,200003,001,2023-03-22_12h36.15.163,DMS_et_12-36,2022.2.4,None,
16,UNPRED,12,0.8385007886340543,2,images/picture_3.png,images/picture_1.png,0,"[-11.733433509789466, -11.733433509789462]",-11.733433509789464,-11.733433509789462,images/picture_2.png,1,"[11.733433509789464, 11.733433509789462]",11.733433509789464,11.733433509789462,images/picture_3.png,2,"[-11.733433509789462, 11.733433509789464]",-11.733433509789462,11.733433509789464,0,1,1,0.8385007886340543,1.8385007886340543,1.1614992113659457,3.0,1,1.5885007886340543,0,4.0,3.0,1,2,1,0,1,0,0,5,5,7,,,,,,,0.022016125032678246,2352.478312541032,2352.478312541032,2353.49043354101,2353.775905541028,2353.775905541028,2353.775905541028,2354.076612832956,2354.942645333009,2354.942645333009,2354.942645333009,2354.942645333009,2355.9571344580036,4.540937000070699,200003,001,2023-03-22_12h36.15.163,DMS_et_12-36,2022.2.4,None,
17,UNPRED,12,0.8385007886340543,0,images/picture_1.png,images/picture_1.png,0,"[-11.733433509789462, 11.733433509789464]",-11.733433509789462,11.733433509789464,images/picture_2.png,1,"[11.733433509789464, 11.733433509789462]",11.733433509789464,11.733433509789462,images/picture_3.png,2,"[11.733433509789462, -11.733433509789466]",11.733433509789462,-11.733433509789464,0,1,1,0.8385007886340543,1.8385007886340543,1.1614992113659457,3.0,1,1.5885007886340543,0,4.0,3.0,1,2,1,0,1,0,0,6,6,8,,,,,,,0.008767375024035573,2357.5123542499496,2357.5123542499496,2358.523677665973,2358.823643957963,2358.823643957963,2358.823643957963,2359.109753708006,2359.990467290976,2359.990467290976,2359.990467290976,2359.990467290976,2360.990368166007,4.525379833066836,200003,001,2023-03-22_12h36.15.163,DMS_et_12-36,2022.2.4,None,
12,UNPRED,12,0.8385007886340543,2,images/picture_3.png,images/picture_1.png,0,"[-11.733433509789466, -11.733433509789462]",-11.733433509789464,-11.733433509789462,images/picture_2.png,1,"[11.733433509789462, -11.733433509789466]",11.733433509789462,-11.733433509789464,images/picture_3.png,2,"[-11.733433509789462, 11.733433509789464]",-11.733433509789462,11.733433509789464,0,1,1,0.8385007886340543,1.8385007886340543,1.1614992113659457,3.0,1,1.5885007886340543,0,4.0,3.0,1,2,1,0,1,0,0,7,7,3,,,,,,,0.02393170807044953,2362.5626661659917,2362.5626661659917,2363.576569207944,2363.8571044160053,2363.8571044160053,2363.8571044160053,2364.1571220409824,2365.023442290956,2365.023442290956,2365.023442290956,2365.023442290956,2366.0237807909725,4.5398966249777,200003,001,2023-03-22_12h36.15.163,DMS_et_12-36,2022.2.4,None,
11,UNPRED,12,0.8385007886340543,2,images/picture_3.png,images/picture_1.png,0,"[11.733433509789462, -11.733433509789466]",11.733433509789462,-11.733433509789464,images/picture_2.png,1,"[11.733433509789464, 11.733433509789462]",11.733433509789464,11.733433509789462,images/picture_3.png,2,"[-11.733433509789462, 11.733433509789464]",-11.733433509789462,11.733433509789464,0,1,1,0.8385007886340543,1.8385007886340543,1.1614992113659457,3.0,1,1.5885007886340543,0,4.0,3.0,1,2,1,0,1,0,0,8,8,2,,,,,,,0.007654291926883161,2367.59240199998,2367.59240199998,2368.5903979579452,2368.909789624973,2368.909789624973,2368.909789624973,2369.190406125039,2370.0770720000146,2370.0770720000146,2370.0770720000146,2370.0770720000146,2371.090384833049,4.509432208957151,200003,001,2023-03-22_12h36.15.163,DMS_et_12-36,2022.2.4,None,
,,,,,,,,,,,,,,,,,,,,,,,,,,,,,,,,,,,1,0,1,0,,,,,,,,,2372.1431853750255,2384.685930458014,,,,,,,,,,,,,,,200003,001,2023-03-22_12h36.15.163,DMS_et_12-36,2022.2.4,None,
22,PRED,12,0.8385007886340543,0,images/picture_1.png,images/picture_1.png,0,"[-11.733433509789466, -11.733433509789462]",-11.733433509789464,-11.733433509789462,images/picture_2.png,1,"[11.733433509789462, -11.733433509789466]",11.733433509789462,-11.733433509789464,images/picture_3.png,2,"[11.733433509789464, 11.733433509789462]",11.733433509789464,11.733433509789462,0,1,1,0.8385007886340543,1.8385007886340543,1.1614992113659457,3.0,1,1.5885007886340543,0,4.0,3.0,1,2,2,0,2,0,0,0,0,4,,,,,,,0.004712332971394062,2384.685930458014,2384.685930458014,2385.6901448329445,2386.0091079999693,2386.0091079999693,2386.0091079999693,2386.275693082949,2387.1763738329755,2387.1763738329755,2387.1763738329755,2387.1763738329755,2388.1907906660344,4.509407083038241,200003,001,2023-03-22_12h36.15.163,DMS_et_12-36,2022.2.4,None,
19,PRED,12,0.8385007886340543,0,images/picture_1.png,images/picture_1.png,0,"[11.733433509789464, 11.733433509789462]",11.733433509789464,11.733433509789462,images/picture_2.png,1,"[-11.733433509789462, 11.733433509789464]",-11.733433509789462,11.733433509789464,images/picture_3.png,2,"[-11.733433509789466, -11.733433509789462]",-11.733433509789464,-11.733433509789462,0,1,1,0.8385007886340543,1.8385007886340543,1.1614992113659457,3.0,1,1.5885007886340543,0,4.0,3.0,1,2,2,0,2,0,0,1,1,1,,,,,,,0.00408870808314532,2389.701715165982,2389.701715165982,2390.709267957951,2391.023584041046,2391.023584041046,2391.023584041046,2391.2906038749497,2392.1904511250323,2392.1904511250323,2392.1904511250323,2392.1904511250323,2393.190573083004,4.509063458070159,200003,001,2023-03-22_12h36.15.163,DMS_et_12-36,2022.2.4,None,
26,PRED,12,0.8385007886340543,0,images/picture_1.png,images/picture_1.png,0,"[-11.733433509789466, -11.733433509789462]",-11.733433509789464,-11.733433509789462,images/picture_2.png,1,"[-11.733433509789462, 11.733433509789464]",-11.733433509789462,11.733433509789464,images/picture_3.png,2,"[11.733433509789462, -11.733433509789466]",11.733433509789462,-11.733433509789464,0,1,1,0.8385007886340543,1.8385007886340543,1.1614992113659457,3.0,1,1.5885007886340543,0,4.0,3.0,1,2,2,0,2,0,0,2,2,8,,,,,,,0.0036375420168042183,2394.7256963750115,2394.7256963750115,2395.7235085000284,2396.0568922909442,2396.0568922909442,2396.0568922909442,2396.3237476659706,2397.2238668750506,2397.2238668750506,2397.2238668750506,2397.2099843330216,2398.223889500019,4.504579124972224,200003,001,2023-03-22_12h36.15.163,DMS_et_12-36,2022.2.4,None,
20,PRED,12,0.8385007886340543,0,images/picture_1.png,images/picture_1.png,0,"[-11.733433509789466, -11.733433509789462]",-11.733433509789464,-11.733433509789462,images/picture_2.png,1,"[-11.733433509789462, 11.733433509789464]",-11.733433509789462,11.733433509789464,images/picture_3.png,2,"[11.733433509789462, -11.733433509789466]",11.733433509789462,-11.733433509789464,0,1,1,0.8385007886340543,1.8385007886340543,1.1614992113659457,3.0,1,1.5885007886340543,0,4.0,3.0,1,2,2,0,2,0,0,3,3,2,,,,,,,0.003752542077563703,2399.731717540999,2399.731717540999,2400.7432693749433,2401.0571843750076,2401.0571843750076,2401.0571843750076,2401.3241832909407,2402.223911624984,2402.223911624984,2402.223911624984,2402.223911624984,2403.2238474159967,4.508464792044833,200003,001,2023-03-22_12h36.15.163,DMS_et_12-36,2022.2.4,None,
21,PRED,12,0.8385007886340543,0,images/picture_1.png,images/picture_1.png,0,"[-11.733433509789462, 11.733433509789464]",-11.733433509789462,11.733433509789464,images/picture_2.png,1,"[-11.733433509789466, -11.733433509789462]",-11.733433509789464,-11.733433509789462,images/picture_3.png,2,"[11.733433509789464, 11.733433509789462]",11.733433509789464,11.733433509789462,0,1,1,0.8385007886340543,1.8385007886340543,1.1614992113659457,3.0,1,1.5885007886340543,0,4.0,3.0,1,2,2,0,2,0,0,4,4,3,,,,,,,0.005319167044945061,2404.75629499997,2404.75629499997,2405.7570777080255,2406.0763149580453,2406.0763149580453,2406.0763149580453,2406.3569574999856,2407.2433642080287,2407.2433642080287,2407.2433642080287,2407.2433642080287,2408.257146832999,4.511515708058141,200003,001,2023-03-22_12h36.15.163,DMS_et_12-36,2022.2.4,None,
25,PRED,12,0.8385007886340543,0,images/picture_1.png,images/picture_1.png,0,"[-11.733433509789466, -11.733433509789462]",-11.733433509789464,-11.733433509789462,images/picture_2.png,1,"[11.733433509789464, 11.733433509789462]",11.733433509789464,11.733433509789462,images/picture_3.png,2,"[11.733433509789462, -11.733433509789466]",11.733433509789462,-11.733433509789464,0,1,1,0.8385007886340543,1.8385007886340543,1.1614992113659457,3.0,1,1.5885007886340543,0,4.0,3.0,1,2,2,0,2,0,0,5,5,7,,,,,,,0.003666041069664061,2409.776557291043,2409.776557291043,2410.790606791037,2411.1101003750227,2411.1101003750227,2411.1101003750227,2411.3768614999717,2412.2765405409737,2412.2765405409737,2412.2765405409737,2412.257146290969,2413.2573779160157,4.520883333054371,200003,001,2023-03-22_12h36.15.163,DMS_et_12-36,2022.2.4,None,
24,PRED,12,0.8385007886340543,0,images/picture_1.png,images/picture_1.png,0,"[11.733433509789464, 11.733433509789462]",11.733433509789464,11.733433509789462,images/picture_2.png,1,"[-11.733433509789466, -11.733433509789462]",-11.733433509789464,-11.733433509789462,images/picture_3.png,2,"[11.733433509789462, -11.733433509789466]",11.733433509789462,-11.733433509789464,0,1,1,0.8385007886340543,1.8385007886340543,1.1614992113659457,3.0,1,1.5885007886340543,0,4.0,3.0,1,2,2,0,2,0,0,6,6,6,,,,,,,0.005581208039075136,2414.8008720000507,2414.8008720000507,2415.809534457978,2416.1238067080267,2416.1238067080267,2416.1238067080267,2416.3902901660185,2417.2904694159515,2417.2904694159515,2417.2904694159515,2417.2904694159515,2418.290639832965,4.508197957999073,200003,001,2023-03-22_12h36.15.163,DMS_et_12-36,2022.2.4,None,
18,PRED,12,0.8385007886340543,0,images/picture_1.png,images/picture_1.png,0,"[11.733433509789462, -11.733433509789466]",11.733433509789462,-11.733433509789464,images/picture_2.png,1,"[-11.733433509789466, -11.733433509789462]",-11.733433509789464,-11.733433509789462,images/picture_3.png,2,"[-11.733433509789462, 11.733433509789464]",-11.733433509789462,11.733433509789464,0,1,1,0.8385007886340543,1.8385007886340543,1.1614992113659457,3.0,1,1.5885007886340543,0,4.0,3.0,1,2,2,0,2,0,0,7,7,0,,,,,,,0.0049533339915797114,2419.818763957941,2419.818763957941,2420.8239850830287,2421.1436984579777,2421.1436984579777,2421.1436984579777,2421.41050550004,2422.310527583002,2422.310527583002,2422.310527583002,2422.310527583002,2423.3240472079488,4.512537792092189,200003,001,2023-03-22_12h36.15.163,DMS_et_12-36,2022.2.4,None,
23,PRED,12,0.8385007886340543,0,images/picture_1.png,images/picture_1.png,0,"[11.733433509789464, 11.733433509789462]",11.733433509789464,11.733433509789462,images/picture_2.png,1,"[-11.733433509789462, 11.733433509789464]",-11.733433509789462,11.733433509789464,images/picture_3.png,2,"[11.733433509789462, -11.733433509789466]",11.733433509789462,-11.733433509789464,0,1,1,0.8385007886340543,1.8385007886340543,1.1614992113659457,3.0,1,1.5885007886340543,0,4.0,3.0,1,2,2,0,2,0,0,8,8,5,,,,,,,0.0037149579729884863,2424.8454729580553,2424.8454729580553,2425.857322374941,2426.176801415975,2426.176801415975,2426.176801415975,2426.443088458036,2427.342718250002,2427.342718250002,2427.342718250002,2427.3238714160398,2428.3239129160065,4.519371957983822,200003,001,2023-03-22_12h36.15.163,DMS_et_12-36,2022.2.4,None,
,,,,,,,,,,,,,,,,,,,,,,,,,,,,,,,,,,,2,0,2,0,,,,,,,,,2429.4212417500094,2441.9697139159543,,,,,,,,,,,,,,,200003,001,2023-03-22_12h36.15.163,DMS_et_12-36,2022.2.4,None,
29,UNPRED,12,0.8385007886340543,2,images/picture_3.png,images/picture_1.png,0,"[11.733433509789462, -11.733433509789466]",11.733433509789462,-11.733433509789464,images/picture_2.png,1,"[-11.733433509789466, -11.733433509789462]",-11.733433509789464,-11.733433509789462,images/picture_3.png,2,"[11.733433509789464, 11.733433509789462]",11.733433509789464,11.733433509789462,0,1,1,0.8385007886340543,1.8385007886340543,1.1614992113659457,3.0,1,1.5885007886340543,0,4.0,3.0,1,2,3,0,3,0,0,0,0,2,,,,,,,0.015765041927807033,2441.9697139159543,2441.9697139159543,2442.976730250055,2443.276599582983,2443.276599582983,2443.276599582983,2443.55737879104,2444.44371795794,2444.44371795794,2444.44371795794,2444.44371795794,2445.4574696250493,4.522019166965038,200003,001,2023-03-22_12h36.15.163,DMS_et_12-36,2022.2.4,None,
35,UNPRED,12,0.8385007886340543,1,images/picture_2.png,images/picture_1.png,0,"[11.733433509789462, -11.733433509789466]",11.733433509789462,-11.733433509789464,images/picture_2.png,1,"[11.733433509789464, 11.733433509789462]",11.733433509789464,11.733433509789462,images/picture_3.png,2,"[-11.733433509789462, 11.733433509789464]",-11.733433509789462,11.733433509789464,0,1,1,0.8385007886340543,1.8385007886340543,1.1614992113659457,3.0,1,1.5885007886340543,0,4.0,3.0,1,2,3,0,3,0,0,1,1,8,,,,,,,0.009509790921583772,2446.993857500027,2446.993857500027,2447.990814000019,2448.3102609160123,2448.3102609160123,2448.3102609160123,2448.590693874983,2449.476506832987,2449.476506832987,2449.476506832987,2449.476506832987,2450.4909347910434,4.507966999895871,200003,001,2023-03-22_12h36.15.163,DMS_et_12-36,2022.2.4,None,
31,UNPRED,12,0.8385007886340543,0,images/picture_1.png,images/picture_1.png,0,"[11.733433509789462, -11.733433509789466]",11.733433509789462,-11.733433509789464,images/picture_2.png,1,"[-11.733433509789462, 11.733433509789464]",-11.733433509789462,11.733433509789464,images/picture_3.png,2,"[11.733433509789464, 11.733433509789462]",11.733433509789464,11.733433509789462,0,1,1,0.8385007886340543,1.8385007886340543,1.1614992113659457,3.0,1,1.5885007886340543,0,4.0,3.0,1,2,3,0,3,0,0,2,2,4,,,,,,,0.006725874962285161,2452.0031227909494,2452.0031227909494,2453.010611666017,2453.324262500042,2453.324262500042,2453.324262500042,2453.590818207944,2454.4906434579752,2454.4906434579752,2454.4906434579752,2454.4906434579752,2455.4906620000256,4.507626208011061,200003,001,2023-03-22_12h36.15.163,DMS_et_12-36,2022.2.4,None,
32,UNPRED,12,0.8385007886340543,1,images/picture_2.png,images/picture_1.png,0,"[-11.733433509789466, -11.733433509789462]",-11.733433509789464,-11.733433509789462,images/picture_2.png,1,"[11.733433509789462, -11.733433509789466]",11.733433509789462,-11.733433509789464,images/picture_3.png,2,"[11.733433509789464, 11.733433509789462]",11.733433509789464,11.733433509789462,0,1,1,0.8385007886340543,1.8385007886340543,1.1614992113659457,3.0,1,1.5885007886340543,0,4.0,3.0,1,2,3,0,3,0,0,3,3,5,,,,,,,0.007201000000350177,2457.024235208053,2457.024235208053,2458.0236992080463,2458.3431456249673,2458.3431456249673,2458.3431456249673,2458.6240617909934,2459.510474291048,2459.510474291048,2459.510474291048,2459.510474291048,2460.5241432499606,4.512151250033639,200003,001,2023-03-22_12h36.15.163,DMS_et_12-36,2022.2.4,None,
33,UNPRED,12,0.8385007886340543,1,images/picture_2.png,images/picture_1.png,0,"[11.733433509789464, 11.733433509789462]",11.733433509789464,11.733433509789462,images/picture_2.png,1,"[-11.733433509789462, 11.733433509789464]",-11.733433509789462,11.733433509789464,images/picture_3.png,2,"[-11.733433509789466, -11.733433509789462]",-11.733433509789464,-11.733433509789462,0,1,1,0.8385007886340543,1.8385007886340543,1.1614992113659457,3.0,1,1.5885007886340543,0,4.0,3.0,1,2,3,0,3,0,0,4,4,6,,,,,,,0.005169666954316199,2462.042489583022,2462.042489583022,2463.0570349160116,2463.357401416055,2463.357401416055,2463.357401416055,2463.643549749977,2464.5241715409793,2464.5241715409793,2464.5241715409793,2464.5241715409793,2465.5241379160434,4.522915208013728,200003,001,2023-03-22_12h36.15.163,DMS_et_12-36,2022.2.4,None,
27,UNPRED,12,0.8385007886340543,0,images/picture_1.png,images/picture_1.png,0,"[-11.733433509789462, 11.733433509789464]",-11.733433509789462,11.733433509789464,images/picture_2.png,1,"[11.733433509789462, -11.733433509789466]",11.733433509789462,-11.733433509789464,images/picture_3.png,2,"[-11.733433509789466, -11.733433509789462]",-11.733433509789464,-11.733433509789462,0,1,1,0.8385007886340543,1.8385007886340543,1.1614992113659457,3.0,1,1.5885007886340543,0,4.0,3.0,1,2,3,0,3,0,0,5,5,0,,,,,,,0.006930042058229446,2467.0702304999577,2467.0702304999577,2468.0761484579416,2468.3904140410013,2468.3904140410013,2468.3904140410013,2468.657520708046,2469.5575805830304,2469.5575805830304,2469.5575805830304,2469.5575805830304,2470.5575546249747,4.506972957984544,200003,001,2023-03-22_12h36.15.163,DMS_et_12-36,2022.2.4,None,
28,UNPRED,12,0.8385007886340543,1,images/picture_2.png,images/picture_1.png,0,"[11.733433509789464, 11.733433509789462]",11.733433509789464,11.733433509789462,images/picture_2.png,1,"[-11.733433509789466, -11.733433509789462]",-11.733433509789464,-11.733433509789462,images/picture_3.png,2,"[11.733433509789462, -11.733433509789466]",11.733433509789462,-11.733433509789464,0,1,1,0.8385007886340543,1.8385007886340543,1.1614992113659457,3.0,1,1.5885007886340543,0,4.0,3.0,1,2,3,0,3,0,0,6,6,1,,,,,,,0.007404917036183178,2472.091399790952,2472.091399790952,2473.090908583021,2473.4104415000184,2473.4104415000184,2473.4104415000184,2473.6909085409716,2474.5769495409913,2474.5769495409913,2474.5769495409913,2474.5769495409913,2475.5908461660147,4.51093479199335,200003,001,2023-03-22_12h36.15.163,DMS_et_12-36,2022.2.4,None,
34,UNPRED,12,0.8385007886340543,1,images/picture_2.png,images/picture_1.png,0,"[11.733433509789464, 11.733433509789462]",11.733433509789464,11.733433509789462,images/picture_2.png,1,"[11.733433509789462, -11.733433509789466]",11.733433509789462,-11.733433509789464,images/picture_3.png,2,"[-11.733433509789462, 11.733433509789464]",-11.733433509789462,11.733433509789464,0,1,1,0.8385007886340543,1.8385007886340543,1.1614992113659457,3.0,1,1.5885007886340543,0,4.0,3.0,1,2,3,0,3,0,0,7,7,7,,,,,,,0.005292333080433309,2477.1166364999954,2477.1166364999954,2478.1238332909998,2478.4429850409506,2478.4429850409506,2478.4429850409506,2478.710160415969,2479.6109340830008,2479.6109340830008,2479.6109340830008,2479.5908344580093,2480.5909138750285,4.520112541038543,200003,001,2023-03-22_12h36.15.163,DMS_et_12-36,2022.2.4,None,
30,UNPRED,12,0.8385007886340543,2,images/picture_3.png,images/picture_1.png,0,"[11.733433509789462, -11.733433509789466]",11.733433509789462,-11.733433509789464,images/picture_2.png,1,"[-11.733433509789466, -11.733433509789462]",-11.733433509789464,-11.733433509789462,images/picture_3.png,2,"[11.733433509789464, 11.733433509789462]",11.733433509789464,11.733433509789462,0,1,1,0.8385007886340543,1.8385007886340543,1.1614992113659457,3.0,1,1.5885007886340543,0,4.0,3.0,1,2,3,0,3,0,0,8,8,3,,,,,,,0.02445475000422448,2482.1643483330263,2482.1643483330263,2483.176810957957,2483.457574791042,2483.457574791042,2483.457574791042,2483.7574580829823,2484.6241290000034,2484.6241290000034,2484.6241290000034,2484.6241290000034,2485.624328374979,4.5392374999355525,200003,001,2023-03-22_12h36.15.163,DMS_et_12-36,2022.2.4,None,
,,,,,,,,,,,,,,,,,,,,,,,,,,,,,,,,,,,3,0,3,0,,,,,,,,,2486.7464732079534,2499.273260500049,,,,,,,,,,,,,,,200003,001,2023-03-22_12h36.15.163,DMS_et_12-36,2022.2.4,None,
40,PRED,12,0.8385007886340543,0,images/picture_1.png,images/picture_1.png,0,"[11.733433509789464, 11.733433509789462]",11.733433509789464,11.733433509789462,images/picture_2.png,1,"[11.733433509789462, -11.733433509789466]",11.733433509789462,-11.733433509789464,images/picture_3.png,2,"[-11.733433509789462, 11.733433509789464]",-11.733433509789462,11.733433509789464,0,1,1,0.8385007886340543,1.8385007886340543,1.1614992113659457,3.0,1,1.5885007886340543,0,4.0,3.0,1,2,4,0,4,0,0,0,0,4,,,,,,,0.003075124928727746,2499.273260500049,2499.273260500049,2500.2769669999834,2500.590895458008,2500.590895458008,2500.590895458008,2500.877190249972,2501.7577027910156,2501.7577027910156,2501.7577027910156,2501.7577027910156,2502.7576280829962,4.503821833990514,200003,001,2023-03-22_12h36.15.163,DMS_et_12-36,2022.2.4,None,
39,PRED,12,0.8385007886340543,0,images/picture_1.png,images/picture_1.png,0,"[-11.733433509789462, 11.733433509789464]",-11.733433509789462,11.733433509789464,images/picture_2.png,1,"[11.733433509789462, -11.733433509789466]",11.733433509789462,-11.733433509789464,images/picture_3.png,2,"[11.733433509789464, 11.733433509789462]",11.733433509789464,11.733433509789462,0,1,1,0.8385007886340543,1.8385007886340543,1.1614992113659457,3.0,1,1.5885007886340543,0,4.0,3.0,1,2,4,0,4,0,0,1,1,3,,,,,,,0.0036230830010026693,2504.291584374965,2504.291584374965,2505.290933875018,2505.610492374981,2505.610492374981,2505.610492374981,2505.890955207986,2506.777475791052,2506.777475791052,2506.777475791052,2506.777475791052,2507.791093208012,4.5072890830924734,200003,001,2023-03-22_12h36.15.163,DMS_et_12-36,2022.2.4,None,
44,PRED,12,0.8385007886340543,0,images/picture_1.png,images/picture_1.png,0,"[11.733433509789464, 11.733433509789462]",11.733433509789464,11.733433509789462,images/picture_2.png,1,"[-11.733433509789462, 11.733433509789464]",-11.733433509789462,11.733433509789464,images/picture_3.png,2,"[11.733433509789462, -11.733433509789466]",11.733433509789462,-11.733433509789464,0,1,1,0.8385007886340543,1.8385007886340543,1.1614992113659457,3.0,1,1.5885007886340543,0,4.0,3.0,1,2,4,0,4,0,0,2,2,8,,,,,,,0.0040590420830994844,2509.297527250019,2509.297527250019,2510.3102307909867,2510.6241727500455,2510.6241727500455,2510.6241727500455,2510.8909433749504,2511.79087995796,2511.79087995796,2511.79087995796,2511.79087995796,2512.7908797910204,4.507306500105187,200003,001,2023-03-22_12h36.15.163,DMS_et_12-36,2022.2.4,None,
37,PRED,12,0.8385007886340543,0,images/picture_1.png,images/picture_1.png,0,"[-11.733433509789466, -11.733433509789462]",-11.733433509789464,-11.733433509789462,images/picture_2.png,1,"[-11.733433509789462, 11.733433509789464]",-11.733433509789462,11.733433509789464,images/picture_3.png,2,"[11.733433509789464, 11.733433509789462]",11.733433509789464,11.733433509789462,0,1,1,0.8385007886340543,1.8385007886340543,1.1614992113659457,3.0,1,1.5885007886340543,0,4.0,3.0,1,2,4,0,4,0,0,3,3,1,,,,,,,0.005324542056769133,2514.3226900410373,2514.3226900410373,2515.3243949579773,2515.644085958018,2515.644085958018,2515.644085958018,2515.9243696250487,2516.8104988749838,2516.8104988749838,2516.8104988749838,2516.8104988749838,2517.8243297910085,4.512189417029731,200003,001,2023-03-22_12h36.15.163,DMS_et_12-36,2022.2.4,None,
38,PRED,12,0.8385007886340543,0,images/picture_1.png,images/picture_1.png,0,"[11.733433509789464, 11.733433509789462]",11.733433509789464,11.733433509789462,images/picture_2.png,1,"[11.733433509789462, -11.733433509789466]",11.733433509789462,-11.733433509789464,images/picture_3.png,2,"[-11.733433509789466, -11.733433509789462]",-11.733433509789464,-11.733433509789462,0,1,1,0.8385007886340543,1.8385007886340543,1.1614992113659457,3.0,1,1.5885007886340543,0,4.0,3.0,1,2,4,0,4,0,0,4,4,2,,,,,,,0.0017691249959170818,2519.334655915969,2519.334655915969,2520.3442050409503,2520.657662790967,2520.657662790967,2520.657662790967,2520.9243454999523,2521.8244489160134,2521.8244489160134,2521.8244489160134,2521.8244489160134,2522.824359375052,4.504177541937679,200003,001,2023-03-22_12h36.15.163,DMS_et_12-36,2022.2.4,None,
36,PRED,12,0.8385007886340543,0,images/picture_1.png,images/picture_1.png,0,"[-11.733433509789462, 11.733433509789464]",-11.733433509789462,11.733433509789464,images/picture_2.png,1,"[11.733433509789462, -11.733433509789466]",11.733433509789462,-11.733433509789464,images/picture_3.png,2,"[11.733433509789464, 11.733433509789462]",11.733433509789464,11.733433509789462,0,1,1,0.8385007886340543,1.8385007886340543,1.1614992113659457,3.0,1,1.5885007886340543,0,4.0,3.0,1,2,4,0,4,0,0,5,5,0,,,,,,,0.005124624934978783,2524.3496048749657,2524.3496048749657,2525.3576665410073,2525.6770304579986,2525.6770304579986,2525.6770304579986,2525.9438515410293,2526.843002291047,2526.843002291047,2526.843002291047,2526.843002291047,2527.8576376660494,4.512011250015348,200003,001,2023-03-22_12h36.15.163,DMS_et_12-36,2022.2.4,None,
41,PRED,12,0.8385007886340543,0,images/picture_1.png,images/picture_1.png,0,"[11.733433509789464, 11.733433509789462]",11.733433509789464,11.733433509789462,images/picture_2.png,1,"[11.733433509789462, -11.733433509789466]",11.733433509789462,-11.733433509789464,images/picture_3.png,2,"[-11.733433509789466, -11.733433509789462]",-11.733433509789464,-11.733433509789462,0,1,1,0.8385007886340543,1.8385007886340543,1.1614992113659457,3.0,1,1.5885007886340543,0,4.0,3.0,1,2,4,0,4,0,0,6,6,5,,,,,,,0.003996332990936935,2529.369372915942,2529.369372915942,2530.45519079105,2530.69104879105,2530.69104879105,2530.69104879105,2530.9576106249588,2531.85777045798,2531.85777045798,2531.85777045798,2531.85777045798,2532.8579293329967,4.508104166947305,200003,001,2023-03-22_12h36.15.163,DMS_et_12-36,2022.2.4,None,
42,PRED,12,0.8385007886340543,0,images/picture_1.png,images/picture_1.png,0,"[-11.733433509789462, 11.733433509789464]",-11.733433509789462,11.733433509789464,images/picture_2.png,1,"[-11.733433509789466, -11.733433509789462]",-11.733433509789464,-11.733433509789462,images/picture_3.png,2,"[11.733433509789464, 11.733433509789462]",11.733433509789464,11.733433509789462,0,1,1,0.8385007886340543,1.8385007886340543,1.1614992113659457,3.0,1,1.5885007886340543,0,4.0,3.0,1,2,4,0,4,0,0,7,7,6,,,,,,,0.003464790992438793,2534.391388540971,2534.391388540971,2535.3911438749637,2535.7243348329794,2535.7243348329794,2535.7243348329794,2535.991053791018,2536.8910922909854,2536.8910922909854,2536.8910922909854,2536.8774555829586,2537.8911726659862,4.5066017910139635,200003,001,2023-03-22_12h36.15.163,DMS_et_12-36,2022.2.4,None,
43,PRED,12,0.8385007886340543,0,images/picture_1.png,images/picture_1.png,0,"[-11.733433509789462, 11.733433509789464]",-11.733433509789462,11.733433509789464,images/picture_2.png,1,"[-11.733433509789466, -11.733433509789462]",-11.733433509789464,-11.733433509789462,images/picture_3.png,2,"[11.733433509789464, 11.733433509789462]",11.733433509789464,11.733433509789462,0,1,1,0.8385007886340543,1.8385007886340543,1.1614992113659457,3.0,1,1.5885007886340543,0,4.0,3.0,1,2,4,0,4,0,0,8,8,7,,,,,,,0.004210749990306795,2539.404148875037,2539.404148875037,2540.410465416033,2540.7245279999916,2540.7245279999916,2540.7245279999916,2540.990951332962,2541.891111625009,2541.891111625009,2541.891111625009,2541.891111625009,2542.891090332996,4.506162249948829,200003,001,2023-03-22_12h36.15.163,DMS_et_12-36,2022.2.4,None,
,,,,,,,,,,,,,,,,,,,,,,,,,,,,,,,,,,,4,0,4,0,,,,,,,,,2543.9878326660255,2556.5173764580395,,,,,,,,,,,,,,,200003,001,2023-03-22_12h36.15.163,DMS_et_12-36,2022.2.4,None,
49,UNPRED,12,0.8385007886340543,1,images/picture_2.png,images/picture_1.png,0,"[11.733433509789462, -11.733433509789466]",11.733433509789462,-11.733433509789464,images/picture_2.png,1,"[-11.733433509789466, -11.733433509789462]",-11.733433509789464,-11.733433509789462,images/picture_3.png,2,"[-11.733433509789462, 11.733433509789464]",-11.733433509789462,11.733433509789464,0,1,1,0.8385007886340543,1.8385007886340543,1.1614992113659457,3.0,1,1.5885007886340543,0,4.0,3.0,1,2,5,0,5,0,0,0,0,4,,,,,,,0.004765416961163282,2556.5173764580395,2556.5173764580395,2557.524545790977,2557.8439947080333,2557.8439947080333,2557.8439947080333,2558.111022457946,2559.00989633298,2559.00989633298,2559.00989633298,2559.00989633298,2560.0242393329972,4.510324666975066,200003,001,2023-03-22_12h36.15.163,DMS_et_12-36,2022.2.4,None,
53,UNPRED,12,0.8385007886340543,1,images/picture_2.png,images/picture_1.png,0,"[11.733433509789464, 11.733433509789462]",11.733433509789464,11.733433509789462,images/picture_2.png,1,"[11.733433509789462, -11.733433509789466]",11.733433509789462,-11.733433509789464,images/picture_3.png,2,"[-11.733433509789466, -11.733433509789462]",-11.733433509789464,-11.733433509789462,0,1,1,0.8385007886340543,1.8385007886340543,1.1614992113659457,3.0,1,1.5885007886340543,0,4.0,3.0,1,2,5,0,5,0,0,1,1,8,,,,,,,0.00606404198333621,2561.538814416039,2561.538814416039,2562.543863125029,2562.8579131660517,2562.8579131660517,2562.8579131660517,2563.124646082986,2564.0246207079617,2564.0246207079617,2564.0246207079617,2564.0246207079617,2565.024485541042,4.505637457943521,200003,001,2023-03-22_12h36.15.163,DMS_et_12-36,2022.2.4,None,
51,UNPRED,12,0.8385007886340543,0,images/picture_1.png,images/picture_1.png,0,"[11.733433509789462, -11.733433509789466]",11.733433509789462,-11.733433509789464,images/picture_2.png,1,"[11.733433509789464, 11.733433509789462]",11.733433509789464,11.733433509789462,images/picture_3.png,2,"[-11.733433509789466, -11.733433509789462]",-11.733433509789464,-11.733433509789462,0,1,1,0.8385007886340543,1.8385007886340543,1.1614992113659457,3.0,1,1.5885007886340543,0,4.0,3.0,1,2,5,0,5,0,0,2,2,6,,,,,,,0.007450999924913049,2566.5576957500307,2566.5576957500307,2567.5579528750386,2567.877571790945,2567.877571790945,2567.877571790945,2568.157866624999,2569.044141790946,2569.044141790946,2569.044141790946,2569.044141790946,2570.0576067500515,4.511342124897055,200003,001,2023-03-22_12h36.15.163,DMS_et_12-36,2022.2.4,None,
50,UNPRED,12,0.8385007886340543,2,images/picture_3.png,images/picture_1.png,0,"[11.733433509789462, -11.733433509789466]",11.733433509789462,-11.733433509789464,images/picture_2.png,1,"[-11.733433509789466, -11.733433509789462]",-11.733433509789464,-11.733433509789462,images/picture_3.png,2,"[-11.733433509789462, 11.733433509789464]",-11.733433509789462,11.733433509789464,0,1,1,0.8385007886340543,1.8385007886340543,1.1614992113659457,3.0,1,1.5885007886340543,0,4.0,3.0,1,2,5,0,5,0,0,3,3,5,,,,,,,0.02085562504362315,2571.592133375001,2571.592133375001,2572.5912679160247,2572.8908981250133,2572.8908981250133,2572.8908981250133,2573.190929666045,2574.0577060000505,2574.0577060000505,2574.0577060000505,2574.0577060000505,2575.057571375044,4.522854833048768,200003,001,2023-03-22_12h36.15.163,DMS_et_12-36,2022.2.4,None,
52,UNPRED,12,0.8385007886340543,1,images/picture_2.png,images/picture_1.png,0,"[-11.733433509789466, -11.733433509789462]",-11.733433509789464,-11.733433509789462,images/picture_2.png,1,"[-11.733433509789462, 11.733433509789464]",-11.733433509789462,11.733433509789464,images/picture_3.png,2,"[11.733433509789462, -11.733433509789466]",11.733433509789462,-11.733433509789464,0,1,1,0.8385007886340543,1.8385007886340543,1.1614992113659457,3.0,1,1.5885007886340543,0,4.0,3.0,1,2,5,0,5,0,0,4,4,7,,,,,,,0.00922300003003329,2576.608655915945,2576.608655915945,2577.624548041029,2577.9243716249475,2577.9243716249475,2577.9243716249475,2578.21032199997,2579.0909107079497,2579.0909107079497,2579.0909107079497,2579.0909107079497,2580.09070641594,4.52391520794481,200003,001,2023-03-22_12h36.15.163,DMS_et_12-36,2022.2.4,None,
46,UNPRED,12,0.8385007886340543,1,images/picture_2.png,images/picture_1.png,0,"[-11.733433509789462, 11.733433509789464]",-11.733433509789462,11.733433509789464,images/picture_2.png,1,"[11.733433509789464, 11.733433509789462]",11.733433509789464,11.733433509789462,images/picture_3.png,2,"[11.733433509789462, -11.733433509789466]",11.733433509789462,-11.733433509789464,0,1,1,0.8385007886340543,1.8385007886340543,1.1614992113659457,3.0,1,1.5885007886340543,0,4.0,3.0,1,2,5,0,5,0,0,5,5,1,,,,,,,0.006464999984018505,2581.641821707948,2581.641821707948,2582.6435483329697,2582.957701624953,2582.957701624953,2582.957701624953,2583.244499790948,2584.124213416013,2584.124213416013,2584.124213416013,2584.124213416013,2585.1240177500295,4.507534084026702,200003,001,2023-03-22_12h36.15.163,DMS_et_12-36,2022.2.4,None,
47,UNPRED,12,0.8385007886340543,2,images/picture_3.png,images/picture_1.png,0,"[-11.733433509789462, 11.733433509789464]",-11.733433509789462,11.733433509789464,images/picture_2.png,1,"[-11.733433509789466, -11.733433509789462]",-11.733433509789464,-11.733433509789462,images/picture_3.png,2,"[11.733433509789464, 11.733433509789462]",11.733433509789464,11.733433509789462,0,1,1,0.8385007886340543,1.8385007886340543,1.1614992113659457,3.0,1,1.5885007886340543,0,4.0,3.0,1,2,5,0,5,0,0,6,6,2,,,,,,,0.02047854196280241,2586.67516091594,2586.67516091594,2587.6770354160108,2587.97735683294,2587.97735683294,2587.97735683294,2588.277398874983,2589.142890874995,2589.142890874995,2589.142890874995,2589.142890874995,2590.1573558750097,4.539900625008158,200003,001,2023-03-22_12h36.15.163,DMS_et_12-36,2022.2.4,None,
45,UNPRED,12,0.8385007886340543,1,images/picture_2.png,images/picture_1.png,0,"[-11.733433509789462, 11.733433509789464]",-11.733433509789462,11.733433509789464,images/picture_2.png,1,"[-11.733433509789466, -11.733433509789462]",-11.733433509789464,-11.733433509789462,images/picture_3.png,2,"[11.733433509789462, -11.733433509789466]",11.733433509789462,-11.733433509789464,0,1,1,0.8385007886340543,1.8385007886340543,1.1614992113659457,3.0,1,1.5885007886340543,0,4.0,3.0,1,2,5,0,5,0,0,7,7,0,,,,,,,0.0054833750473335385,2591.701879124972,2591.701879124972,2592.711194708012,2593.0243308750214,2593.0243308750214,2593.0243308750214,2593.29095866601,2594.190938457963,2594.190938457963,2594.190938457963,2594.190938457963,2595.1911607499933,4.5082155000418425,200003,001,2023-03-22_12h36.15.163,DMS_et_12-36,2022.2.4,None,
48,UNPRED,12,0.8385007886340543,1,images/picture_2.png,images/picture_1.png,0,"[-11.733433509789466, -11.733433509789462]",-11.733433509789464,-11.733433509789462,images/picture_2.png,1,"[-11.733433509789462, 11.733433509789464]",-11.733433509789462,11.733433509789464,images/picture_3.png,2,"[11.733433509789464, 11.733433509789462]",11.733433509789464,11.733433509789462,0,1,1,0.8385007886340543,1.8385007886340543,1.1614992113659457,3.0,1,1.5885007886340543,0,4.0,3.0,1,2,5,0,5,0,0,8,8,3,,,,,,,0.006048207986168563,2596.721064541023,2596.721064541023,2597.72440729104,2598.0441696660127,2598.0441696660127,2598.0441696660127,2598.324413083028,2599.21036024997,2599.21036024997,2599.21036024997,2599.21036024997,2600.2244710830273,4.513236333034001,200003,001,2023-03-22_12h36.15.163,DMS_et_12-36,2022.2.4,None,
,,,,,,,,,,,,,,,,,,,,,,,,,,,,,,,,,,,5,0,5,0,,,,,,,,,2601.2874251250178,2613.8180221660296,,,,,,,,,,,,,,,200003,001,2023-03-22_12h36.15.163,DMS_et_12-36,2022.2.4,None,
59,PRED,12,0.8385007886340543,1,images/picture_2.png,images/picture_1.png,0,"[11.733433509789462, -11.733433509789466]",11.733433509789462,-11.733433509789464,images/picture_2.png,1,"[-11.733433509789462, 11.733433509789464]",-11.733433509789462,11.733433509789464,images/picture_3.png,2,"[-11.733433509789466, -11.733433509789462]",-11.733433509789464,-11.733433509789462,0,1,1,0.8385007886340543,1.8385007886340543,1.1614992113659457,3.0,1,1.5885007886340543,0,4.0,3.0,1,2,6,0,6,0,0,0,0,5,,,,,,,0.0038435000460594893,2613.8180221660296,2613.8180221660296,2614.824492500047,2615.1443510829704,2615.1443510829704,2615.1443510829704,2615.4105432080105,2616.310576332966,2616.310576332966,2616.310576332966,2616.310576332966,2617.3241715000477,4.510242333053611,200003,001,2023-03-22_12h36.15.163,DMS_et_12-36,2022.2.4,None,
55,PRED,12,0.8385007886340543,1,images/picture_2.png,images/picture_1.png,0,"[-11.733433509789466, -11.733433509789462]",-11.733433509789464,-11.733433509789462,images/picture_2.png,1,"[-11.733433509789462, 11.733433509789464]",-11.733433509789462,11.733433509789464,images/picture_3.png,2,"[11.733433509789462, -11.733433509789466]",11.733433509789462,-11.733433509789464,0,1,1,0.8385007886340543,1.8385007886340543,1.1614992113659457,3.0,1,1.5885007886340543,0,4.0,3.0,1,2,6,0,6,0,0,1,1,1,,,,,,,0.006492750020697713,2618.841502083,2618.841502083,2619.8438132499577,2620.157611957984,2620.157611957984,2620.157611957984,2620.443876708043,2621.324645375018,2621.324645375018,2621.324645375018,2621.324645375018,2622.3245323329465,4.506167458021082,200003,001,2023-03-22_12h36.15.163,DMS_et_12-36,2022.2.4,None,
60,PRED,12,0.8385007886340543,1,images/picture_2.png,images/picture_1.png,0,"[-11.733433509789462, 11.733433509789464]",-11.733433509789462,11.733433509789464,images/picture_2.png,1,"[11.733433509789464, 11.733433509789462]",11.733433509789464,11.733433509789462,images/picture_3.png,2,"[-11.733433509789466, -11.733433509789462]",-11.733433509789464,-11.733433509789462,0,1,1,0.8385007886340543,1.8385007886340543,1.1614992113659457,3.0,1,1.5885007886340543,0,4.0,3.0,1,2,6,0,6,0,0,2,2,6,,,,,,,0.0063020410016179085,2623.857308540959,2623.857308540959,2624.8576657909434,2625.177045166027,2625.177045166027,2625.177045166027,2625.4578447910026,2626.3440759159857,2626.3440759159857,2626.3440759159857,2626.3440759159857,2627.357654875028,4.513610249967314,200003,001,2023-03-22_12h36.15.163,DMS_et_12-36,2022.2.4,None,
61,PRED,12,0.8385007886340543,1,images/picture_2.png,images/picture_1.png,0,"[11.733433509789462, -11.733433509789466]",11.733433509789462,-11.733433509789464,images/picture_2.png,1,"[-11.733433509789466, -11.733433509789462]",-11.733433509789464,-11.733433509789462,images/picture_3.png,2,"[-11.733433509789462, 11.733433509789464]",-11.733433509789462,11.733433509789464,0,1,1,0.8385007886340543,1.8385007886340543,1.1614992113659457,3.0,1,1.5885007886340543,0,4.0,3.0,1,2,6,0,6,0,0,3,3,7,,,,,,,0.005296165938489139,2628.8833112079883,2628.8833112079883,2629.890948666027,2630.2104732079897,2630.2104732079897,2630.2104732079897,2630.477255749982,2631.376941708033,2631.376941708033,2631.376941708033,2631.3573838749435,2632.357398375054,4.520702457986772,200003,001,2023-03-22_12h36.15.163,DMS_et_12-36,2022.2.4,None,
57,PRED,12,0.8385007886340543,1,images/picture_2.png,images/picture_1.png,0,"[-11.733433509789466, -11.733433509789462]",-11.733433509789464,-11.733433509789462,images/picture_2.png,1,"[11.733433509789464, 11.733433509789462]",11.733433509789464,11.733433509789462,images/picture_3.png,2,"[-11.733433509789462, 11.733433509789464]",-11.733433509789462,11.733433509789464,0,1,1,0.8385007886340543,1.8385007886340543,1.1614992113659457,3.0,1,1.5885007886340543,0,4.0,3.0,1,2,6,0,6,0,0,4,4,3,,,,,,,0.006677208002656698,2633.912843707949,2633.912843707949,2634.925006040954,2635.2244214159437,2635.2244214159437,2635.2244214159437,2635.510580415954,2636.3910847910447,2636.3910847910447,2636.3910847910447,2636.3910847910447,2637.3909463329474,4.5234923750394955,200003,001,2023-03-22_12h36.15.163,DMS_et_12-36,2022.2.4,None,
54,PRED,12,0.8385007886340543,1,images/picture_2.png,images/picture_1.png,0,"[-11.733433509789466, -11.733433509789462]",-11.733433509789464,-11.733433509789462,images/picture_2.png,1,"[11.733433509789462, -11.733433509789466]",11.733433509789462,-11.733433509789464,images/picture_3.png,2,"[11.733433509789464, 11.733433509789462]",11.733433509789464,11.733433509789462,0,1,1,0.8385007886340543,1.8385007886340543,1.1614992113659457,3.0,1,1.5885007886340543,0,4.0,3.0,1,2,6,0,6,0,0,5,5,0,,,,,,,0.00519733305554837,2638.9441482080147,2638.9441482080147,2639.9576793749584,2640.2576112080133,2640.2576112080133,2640.2576112080133,2640.544151665992,2641.424257665989,2641.424257665989,2641.424257665989,2641.424257665989,2642.424032708048,4.521438958006911,200003,001,2023-03-22_12h36.15.163,DMS_et_12-36,2022.2.4,None,
56,PRED,12,0.8385007886340543,1,images/picture_2.png,images/picture_1.png,0,"[11.733433509789464, 11.733433509789462]",11.733433509789464,11.733433509789462,images/picture_2.png,1,"[-11.733433509789466, -11.733433509789462]",-11.733433509789464,-11.733433509789462,images/picture_3.png,2,"[-11.733433509789462, 11.733433509789464]",-11.733433509789462,11.733433509789464,0,1,1,0.8385007886340543,1.8385007886340543,1.1614992113659457,3.0,1,1.5885007886340543,0,4.0,3.0,1,2,6,0,6,0,0,6,6,2,,,,,,,0.0067783750128000975,2643.9722221250413,2643.9722221250413,2644.9771916660247,2645.2911393330432,2645.2911393330432,2645.2911393330432,2645.576647583046,2646.4579197909916,2646.4579197909916,2646.4579197909916,2646.4579197909916,2647.457721624989,4.5053260419517756,200003,001,2023-03-22_12h36.15.163,DMS_et_12-36,2022.2.4,None,
62,PRED,12,0.8385007886340543,1,images/picture_2.png,images/picture_1.png,0,"[11.733433509789464, 11.733433509789462]",11.733433509789464,11.733433509789462,images/picture_2.png,1,"[11.733433509789462, -11.733433509789466]",11.733433509789462,-11.733433509789464,images/picture_3.png,2,"[-11.733433509789462, 11.733433509789464]",-11.733433509789462,11.733433509789464,0,1,1,0.8385007886340543,1.8385007886340543,1.1614992113659457,3.0,1,1.5885007886340543,0,4.0,3.0,1,2,6,0,6,0,0,7,7,8,,,,,,,0.006606917013414204,2648.990960957948,2648.990960957948,2649.991101915948,2650.31026166596,2650.31026166596,2650.31026166596,2650.591150082997,2651.4771358330036,2651.4771358330036,2651.4771358330036,2651.4771358330036,2652.490791707998,4.512112332973629,200003,001,2023-03-22_12h36.15.163,DMS_et_12-36,2022.2.4,None,
58,PRED,12,0.8385007886340543,1,images/picture_2.png,images/picture_1.png,0,"[-11.733433509789466, -11.733433509789462]",-11.733433509789464,-11.733433509789462,images/picture_2.png,1,"[11.733433509789464, 11.733433509789462]",11.733433509789464,11.733433509789462,images/picture_3.png,2,"[-11.733433509789462, 11.733433509789464]",-11.733433509789462,11.733433509789464,0,1,1,0.8385007886340543,1.8385007886340543,1.1614992113659457,3.0,1,1.5885007886340543,0,4.0,3.0,1,2,6,0,6,0,0,8,8,4,,,,,,,0.00528200005646795,2654.0119284579996,2654.0119284579996,2655.02402016602,2655.3432766250335,2655.3432766250335,2655.3432766250335,2655.610596082988,2656.5105198329547,2656.5105198329547,2656.5105198329547,2656.4911805000156,2657.4911125829676,4.521340875071473,200003,001,2023-03-22_12h36.15.163,DMS_et_12-36,2022.2.4,None,
,,,,,,,,,,,,,,,,,,,,,,,,,,,,,,,,,,,6,0,6,0,,,,,,,,,2658.6262727079447,2671.154977582977,,,,,,,,,,,,,,,200003,001,2023-03-22_12h36.15.163,DMS_et_12-36,2022.2.4,None,
68,UNPRED,12,0.8385007886340543,1,images/picture_2.png,images/picture_1.png,0,"[11.733433509789464, 11.733433509789462]",11.733433509789464,11.733433509789462,images/picture_2.png,1,"[-11.733433509789462, 11.733433509789464]",-11.733433509789462,11.733433509789464,images/picture_3.png,2,"[11.733433509789462, -11.733433509789466]",11.733433509789462,-11.733433509789464,0,1,1,0.8385007886340543,1.8385007886340543,1.1614992113659457,3.0,1,1.5885007886340543,0,4.0,3.0,1,2,7,0,7,0,0,0,0,5,,,,,,,0.0045657920418307185,2671.154977582977,2671.154977582977,2672.1577445829753,2672.4907671660185,2672.4907671660185,2672.4907671660185,2672.757611499983,2673.6577146250056,2673.6577146250056,2673.6577146250056,2673.6437965000514,2674.6576402910287,4.505576958996244,200003,001,2023-03-22_12h36.15.163,DMS_et_12-36,2022.2.4,None,
67,UNPRED,12,0.8385007886340543,1,images/picture_2.png,images/picture_1.png,0,"[11.733433509789464, 11.733433509789462]",11.733433509789464,11.733433509789462,images/picture_2.png,1,"[-11.733433509789466, -11.733433509789462]",-11.733433509789464,-11.733433509789462,images/picture_3.png,2,"[11.733433509789462, -11.733433509789466]",11.733433509789462,-11.733433509789464,0,1,1,0.8385007886340543,1.8385007886340543,1.1614992113659457,3.0,1,1.5885007886340543,0,4.0,3.0,1,2,7,0,7,0,0,1,1,4,,,,,,,0.006412249989807606,2676.1766106249997,2676.1766106249997,2677.1910901659867,2677.4910455410136,2677.4910455410136,2677.4910455410136,2677.776377583039,2678.657909833011,2678.657909833011,2678.657909833011,2678.657909833011,2679.6576950829476,4.525819125003181,200003,001,2023-03-22_12h36.15.163,DMS_et_12-36,2022.2.4,None,
69,UNPRED,12,0.8385007886340543,1,images/picture_2.png,images/picture_1.png,0,"[-11.733433509789466, -11.733433509789462]",-11.733433509789464,-11.733433509789462,images/picture_2.png,1,"[11.733433509789464, 11.733433509789462]",11.733433509789464,11.733433509789462,images/picture_3.png,2,"[11.733433509789462, -11.733433509789466]",11.733433509789462,-11.733433509789464,0,1,1,0.8385007886340543,1.8385007886340543,1.1614992113659457,3.0,1,1.5885007886340543,0,4.0,3.0,1,2,7,0,7,0,0,2,2,6,,,,,,,0.005184874986298382,2681.2134054580238,2681.2134054580238,2682.2243344580056,2682.5433409579564,2682.5433409579564,2682.5433409579564,2682.809702874976,2683.710118958028,2683.710118958028,2683.710118958028,2683.6909642079845,2684.6911265830277,4.519604375003837,200003,001,2023-03-22_12h36.15.163,DMS_et_12-36,2022.2.4,None,
64,UNPRED,12,0.8385007886340543,2,images/picture_3.png,images/picture_1.png,0,"[11.733433509789462, -11.733433509789466]",11.733433509789462,-11.733433509789464,images/picture_2.png,1,"[-11.733433509789462, 11.733433509789464]",-11.733433509789462,11.733433509789464,images/picture_3.png,2,"[-11.733433509789466, -11.733433509789462]",-11.733433509789464,-11.733433509789462,0,1,1,0.8385007886340543,1.8385007886340543,1.1614992113659457,3.0,1,1.5885007886340543,0,4.0,3.0,1,2,7,0,7,0,0,3,3,1,,,,,,,0.025177915929816663,2686.25609291601,2686.25609291601,2687.257869165973,2687.5576306659495,2687.5576306659495,2687.5576306659495,2687.8576337499544,2688.724435750046,2688.724435750046,2688.724435750046,2688.724435750046,2689.724398207967,4.525279207970016,200003,001,2023-03-22_12h36.15.163,DMS_et_12-36,2022.2.4,None,
71,UNPRED,12,0.8385007886340543,0,images/picture_1.png,images/picture_1.png,0,"[-11.733433509789462, 11.733433509789464]",-11.733433509789462,11.733433509789464,images/picture_2.png,1,"[-11.733433509789466, -11.733433509789462]",-11.733433509789464,-11.733433509789462,images/picture_3.png,2,"[11.733433509789464, 11.733433509789462]",11.733433509789464,11.733433509789462,0,1,1,0.8385007886340543,1.8385007886340543,1.1614992113659457,3.0,1,1.5885007886340543,0,4.0,3.0,1,2,7,0,7,0,0,4,4,8,,,,,,,0.007409041980281472,2691.2762403750094,2691.2762403750094,2692.2911266250303,2692.591184040997,2692.591184040997,2692.591184040997,2692.8763701249845,2693.7574689999456,2693.7574689999456,2693.7574689999456,2693.7574689999456,2694.7576317499625,4.526117958012037,200003,001,2023-03-22_12h36.15.163,DMS_et_12-36,2022.2.4,None,
65,UNPRED,12,0.8385007886340543,0,images/picture_1.png,images/picture_1.png,0,"[11.733433509789464, 11.733433509789462]",11.733433509789464,11.733433509789462,images/picture_2.png,1,"[11.733433509789462, -11.733433509789466]",11.733433509789462,-11.733433509789464,images/picture_3.png,2,"[-11.733433509789462, 11.733433509789464]",-11.733433509789462,11.733433509789464,0,1,1,0.8385007886340543,1.8385007886340543,1.1614992113659457,3.0,1,1.5885007886340543,0,4.0,3.0,1,2,7,0,7,0,0,5,5,2,,,,,,,0.003939416958019137,2696.316815915983,2696.316815915983,2697.324441457982,2697.624415499973,2697.624415499973,2697.624415499973,2697.909800000023,2698.7911682910053,2698.7911682910053,2698.7911682910053,2698.7911682910053,2699.791148958029,4.52120183291845,200003,001,2023-03-22_12h36.15.163,DMS_et_12-36,2022.2.4,None,
70,UNPRED,12,0.8385007886340543,0,images/picture_1.png,images/picture_1.png,0,"[11.733433509789464, 11.733433509789462]",11.733433509789464,11.733433509789462,images/picture_2.png,1,"[11.733433509789462, -11.733433509789466]",11.733433509789462,-11.733433509789464,images/picture_3.png,2,"[-11.733433509789462, 11.733433509789464]",-11.733433509789462,11.733433509789464,0,1,1,0.8385007886340543,1.8385007886340543,1.1614992113659457,3.0,1,1.5885007886340543,0,4.0,3.0,1,2,7,0,7,0,0,6,6,7,,,,,,,0.004865374998189509,2701.3419139579637,2701.3419139579637,2702.3446487500332,2702.657720707939,2702.657720707939,2702.657720707939,2702.9439812910277,2703.8246208330384,2703.8246208330384,2703.8246208330384,2703.8246208330384,2704.824379166006,4.505674500018358,200003,001,2023-03-22_12h36.15.163,DMS_et_12-36,2022.2.4,None,
63,UNPRED,12,0.8385007886340543,0,images/picture_1.png,images/picture_1.png,0,"[11.733433509789464, 11.733433509789462]",11.733433509789464,11.733433509789462,images/picture_2.png,1,"[11.733433509789462, -11.733433509789466]",11.733433509789462,-11.733433509789464,images/picture_3.png,2,"[-11.733433509789466, -11.733433509789462]",-11.733433509789464,-11.733433509789462,0,1,1,0.8385007886340543,1.8385007886340543,1.1614992113659457,3.0,1,1.5885007886340543,0,4.0,3.0,1,2,7,0,7,0,0,7,7,0,,,,,,,0.004739916999824345,2706.359382916009,2706.359382916009,2707.3578880409477,2707.677381708054,2707.677381708054,2707.677381708054,2707.9578642080305,2708.844632791006,2708.844632791006,2708.844632791006,2708.844632791006,2709.857841458055,4.513111999956891,200003,001,2023-03-22_12h36.15.163,DMS_et_12-36,2022.2.4,None,
66,UNPRED,12,0.8385007886340543,0,images/picture_1.png,images/picture_1.png,0,"[-11.733433509789466, -11.733433509789462]",-11.733433509789464,-11.733433509789462,images/picture_2.png,1,"[11.733433509789462, -11.733433509789466]",11.733433509789462,-11.733433509789464,images/picture_3.png,2,"[11.733433509789464, 11.733433509789462]",11.733433509789464,11.733433509789462,0,1,1,0.8385007886340543,1.8385007886340543,1.1614992113659457,3.0,1,1.5885007886340543,0,4.0,3.0,1,2,7,0,7,0,0,8,8,3,,,,,,,0.0036478328984230757,2711.3828351659467,2711.3828351659467,2712.39108112501,2712.710569374962,2712.710569374962,2712.710569374962,2712.977334000054,2713.8764638749417,2713.8764638749417,2713.8764638749417,2713.8574802499497,2714.85774675,4.520893916953355,200003,001,2023-03-22_12h36.15.163,DMS_et_12-36,2022.2.4,None,
,,,,,,,,,,,,,,,,,,,,,,,,,,,,,,,,,,,7,0,7,0,,,,,,,,,2716.0040792500367,2728.539288540953,,,,,,,,,,,,,,,200003,001,2023-03-22_12h36.15.163,DMS_et_12-36,2022.2.4,None,
77,PRED,12,0.8385007886340543,0,images/picture_1.png,images/picture_1.png,0,"[-11.733433509789462, 11.733433509789464]",-11.733433509789462,11.733433509789464,images/picture_2.png,1,"[11.733433509789462, -11.733433509789466]",11.733433509789462,-11.733433509789464,images/picture_3.png,2,"[-11.733433509789466, -11.733433509789462]",-11.733433509789464,-11.733433509789462,0,1,1,0.8385007886340543,1.8385007886340543,1.1614992113659457,3.0,1,1.5885007886340543,0,4.0,3.0,1,2,8,0,8,0,0,0,0,5,,,,,,,0.003393875085748732,2728.539288540953,2728.539288540953,2729.544119999977,2729.857847291045,2729.857847291045,2729.857847291045,2730.1245308329817,2731.024584666011,2731.024584666011,2731.024584666011,2731.024584666011,2732.0244231659453,4.507318207994103,200003,001,2023-03-22_12h36.15.163,DMS_et_12-36,2022.2.4,None,
75,PRED,12,0.8385007886340543,0,images/picture_1.png,images/picture_1.png,0,"[-11.733433509789466, -11.733433509789462]",-11.733433509789464,-11.733433509789462,images/picture_2.png,1,"[11.733433509789464, 11.733433509789462]",11.733433509789464,11.733433509789462,images/picture_3.png,2,"[-11.733433509789462, 11.733433509789464]",-11.733433509789462,11.733433509789464,0,1,1,0.8385007886340543,1.8385007886340543,1.1614992113659457,3.0,1,1.5885007886340543,0,4.0,3.0,1,2,8,0,8,0,0,1,1,3,,,,,,,0.003700082888826728,2733.55796408304,2733.55796408304,2734.5576646659756,2734.890855374979,2734.890855374979,2734.890855374979,2735.157615000033,2736.057762332959,2736.057762332959,2736.057762332959,2736.0440150829963,2737.057915500016,4.506614540936425,200003,001,2023-03-22_12h36.15.163,DMS_et_12-36,2022.2.4,None,
79,PRED,12,0.8385007886340543,0,images/picture_1.png,images/picture_1.png,0,"[11.733433509789462, -11.733433509789466]",11.733433509789462,-11.733433509789464,images/picture_2.png,1,"[-11.733433509789462, 11.733433509789464]",-11.733433509789462,11.733433509789464,images/picture_3.png,2,"[-11.733433509789466, -11.733433509789462]",-11.733433509789464,-11.733433509789462,0,1,1,0.8385007886340543,1.8385007886340543,1.1614992113659457,3.0,1,1.5885007886340543,0,4.0,3.0,1,2,8,0,8,0,0,2,2,7,,,,,,,0.004756624926812947,2738.5695843329886,2738.5695843329886,2739.5779902909417,2739.891126750037,2739.891126750037,2739.891126750037,2740.1578161249636,2741.057898332947,2741.057898332947,2741.057898332947,2741.057898332947,2742.057981916005,4.507142374990508,200003,001,2023-03-22_12h36.15.163,DMS_et_12-36,2022.2.4,None,
76,PRED,12,0.8385007886340543,0,images/picture_1.png,images/picture_1.png,0,"[-11.733433509789462, 11.733433509789464]",-11.733433509789462,11.733433509789464,images/picture_2.png,1,"[-11.733433509789466, -11.733433509789462]",-11.733433509789464,-11.733433509789462,images/picture_3.png,2,"[11.733433509789464, 11.733433509789462]",11.733433509789464,11.733433509789462,0,1,1,0.8385007886340543,1.8385007886340543,1.1614992113659457,3.0,1,1.5885007886340543,0,4.0,3.0,1,2,8,0,8,0,0,3,3,4,,,,,,,0.004801166942343116,2743.588450790965,2743.588450790965,2744.590973541024,2744.9097830409883,2744.9097830409883,2744.9097830409883,2745.1909497500164,2746.077177415951,2746.077177415951,2746.077177415951,2746.077177415951,2747.091141166049,4.511324874940328,200003,001,2023-03-22_12h36.15.163,DMS_et_12-36,2022.2.4,None,
74,PRED,12,0.8385007886340543,0,images/picture_1.png,images/picture_1.png,0,"[-11.733433509789462, 11.733433509789464]",-11.733433509789462,11.733433509789464,images/picture_2.png,1,"[11.733433509789462, -11.733433509789466]",11.733433509789462,-11.733433509789464,images/picture_3.png,2,"[-11.733433509789466, -11.733433509789462]",-11.733433509789464,-11.733433509789462,0,1,1,0.8385007886340543,1.8385007886340543,1.1614992113659457,3.0,1,1.5885007886340543,0,4.0,3.0,1,2,8,0,8,0,0,4,4,2,,,,,,,0.003607999999076128,2748.610286875046,2748.610286875046,2749.624593249988,2749.924380499986,2749.924380499986,2749.924380499986,2750.210693666013,2751.090723666013,2751.090723666013,2751.090723666013,2751.090723666013,2752.091226333054,4.520924540935084,200003,001,2023-03-22_12h36.15.163,DMS_et_12-36,2022.2.4,None,
73,PRED,12,0.8385007886340543,0,images/picture_1.png,images/picture_1.png,0,"[-11.733433509789466, -11.733433509789462]",-11.733433509789464,-11.733433509789462,images/picture_2.png,1,"[11.733433509789464, 11.733433509789462]",11.733433509789464,11.733433509789462,images/picture_3.png,2,"[-11.733433509789462, 11.733433509789464]",-11.733433509789462,11.733433509789464,0,1,1,0.8385007886340543,1.8385007886340543,1.1614992113659457,3.0,1,1.5885007886340543,0,4.0,3.0,1,2,8,0,8,0,0,5,5,1,,,,,,,0.005008207983337343,2753.636942540994,2753.636942540994,2754.6430207910016,2754.957766041043,2754.957766041043,2754.957766041043,2755.2245117500424,2756.1244515000144,2756.1244515000144,2756.1244515000144,2756.1244515000144,2757.1245490410365,4.506324041984044,200003,001,2023-03-22_12h36.15.163,DMS_et_12-36,2022.2.4,None,
78,PRED,12,0.8385007886340543,0,images/picture_1.png,images/picture_1.png,0,"[-11.733433509789466, -11.733433509789462]",-11.733433509789464,-11.733433509789462,images/picture_2.png,1,"[11.733433509789464, 11.733433509789462]",11.733433509789464,11.733433509789462,images/picture_3.png,2,"[-11.733433509789462, 11.733433509789464]",-11.733433509789462,11.733433509789464,0,1,1,0.8385007886340543,1.8385007886340543,1.1614992113659457,3.0,1,1.5885007886340543,0,4.0,3.0,1,2,8,0,8,0,0,6,6,6,,,,,,,0.005095708998851478,2758.6568227499956,2758.6568227499956,2759.6579080829397,2759.9774869580287,2759.9774869580287,2759.9774869580287,2760.2579264160013,2761.144058582955,2761.144058582955,2761.144058582955,2761.144058582955,2762.1578743329737,4.512034874991514,200003,001,2023-03-22_12h36.15.163,DMS_et_12-36,2022.2.4,None,
80,PRED,12,0.8385007886340543,0,images/picture_1.png,images/picture_1.png,0,"[-11.733433509789466, -11.733433509789462]",-11.733433509789464,-11.733433509789462,images/picture_2.png,1,"[11.733433509789462, -11.733433509789466]",11.733433509789462,-11.733433509789464,images/picture_3.png,2,"[-11.733433509789462, 11.733433509789464]",-11.733433509789462,11.733433509789464,0,1,1,0.8385007886340543,1.8385007886340543,1.1614992113659457,3.0,1,1.5885007886340543,0,4.0,3.0,1,2,8,0,8,0,0,7,7,8,,,,,,,0.003695665975101292,2763.6764055000385,2763.6764055000385,2764.690914958017,2765.0098646660335,2765.0098646660335,2765.0098646660335,2765.2767539999913,2766.177467957954,2766.177467957954,2766.177467957954,2766.157869165996,2767.1576685829787,4.5216262500034645,200003,001,2023-03-22_12h36.15.163,DMS_et_12-36,2022.2.4,None,
72,PRED,12,0.8385007886340543,0,images/picture_1.png,images/picture_1.png,0,"[11.733433509789464, 11.733433509789462]",11.733433509789464,11.733433509789462,images/picture_2.png,1,"[11.733433509789462, -11.733433509789466]",11.733433509789462,-11.733433509789464,images/picture_3.png,2,"[-11.733433509789462, 11.733433509789464]",-11.733433509789462,11.733433509789464,0,1,1,0.8385007886340543,1.8385007886340543,1.1614992113659457,3.0,1,1.5885007886340543,0,4.0,3.0,1,2,8,0,8,0,0,8,8,0,,,,,,,0.0051901249680668116,2768.7053049160168,2768.7053049160168,2769.710814791033,2770.0245781249832,2770.0245781249832,2770.0245781249832,2770.2911536659813,2771.191269541043,2771.191269541043,2771.191269541043,2771.191269541043,2772.1911466659512,4.504850458004512,200003,001,2023-03-22_12h36.15.163,DMS_et_12-36,2022.2.4,None,
,,,,,,,,,,,,,,,,,,,,,,,,,,,,,,,,,,,8,0,8,0,,,,,,,,,2773.325903375051,2785.836817416013,,,,,,,,,,,,,,,200003,001,2023-03-22_12h36.15.163,DMS_et_12-36,2022.2.4,None,
89,UNPRED,12,0.8385007886340543,0,images/picture_1.png,images/picture_1.png,0,"[11.733433509789462, -11.733433509789466]",11.733433509789462,-11.733433509789464,images/picture_2.png,1,"[11.733433509789464, 11.733433509789462]",11.733433509789464,11.733433509789462,images/picture_3.png,2,"[-11.733433509789462, 11.733433509789464]",-11.733433509789462,11.733433509789464,0,1,1,0.8385007886340543,1.8385007886340543,1.1614992113659457,3.0,1,1.5885007886340543,0,4.0,3.0,1,2,9,0,9,0,0,0,0,8,,,,,,,0.0013622089754790068,2785.836817416013,2785.836817416013,2786.844039250049,2787.1578677910147,2787.1578677910147,2787.1578677910147,2787.4246777909575,2788.3245862500044,2788.3245862500044,2788.3245862500044,2788.3245862500044,2789.324606625014,4.505025124992244,200003,001,2023-03-22_12h36.15.163,DMS_et_12-36,2022.2.4,None,
84,UNPRED,12,0.8385007886340543,1,images/picture_2.png,images/picture_1.png,0,"[11.733433509789464, 11.733433509789462]",11.733433509789464,11.733433509789462,images/picture_2.png,1,"[-11.733433509789466, -11.733433509789462]",-11.733433509789464,-11.733433509789462,images/picture_3.png,2,"[11.733433509789462, -11.733433509789466]",11.733433509789462,-11.733433509789464,0,1,1,0.8385007886340543,1.8385007886340543,1.1614992113659457,3.0,1,1.5885007886340543,0,4.0,3.0,1,2,9,0,9,0,0,1,1,3,,,,,,,0.0073622920317575336,2790.8665440409677,2790.8665440409677,2791.878060915973,2792.19114516594,2792.19114516594,2792.19114516594,2792.457861416042,2793.357921208022,2793.357921208022,2793.357921208022,2793.343794291024,2794.357847832958,4.519878959050402,200003,001,2023-03-22_12h36.15.163,DMS_et_12-36,2022.2.4,None,
82,UNPRED,12,0.8385007886340543,0,images/picture_1.png,images/picture_1.png,0,"[-11.733433509789462, 11.733433509789464]",-11.733433509789462,11.733433509789464,images/picture_2.png,1,"[11.733433509789464, 11.733433509789462]",11.733433509789464,11.733433509789462,images/picture_3.png,2,"[11.733433509789462, -11.733433509789466]",11.733433509789462,-11.733433509789464,0,1,1,0.8385007886340543,1.8385007886340543,1.1614992113659457,3.0,1,1.5885007886340543,0,4.0,3.0,1,2,9,0,9,0,0,2,2,1,,,,,,,0.004641250008717179,2795.8845739159733,2795.8845739159733,2796.8912873750087,2797.2110697500175,2797.2110697500175,2797.2110697500175,2797.4770039160503,2798.377283332986,2798.377283332986,2798.377283332986,2798.377283332986,2799.391473207972,4.5127283750334755,200003,001,2023-03-22_12h36.15.163,DMS_et_12-36,2022.2.4,None,
81,UNPRED,12,0.8385007886340543,1,images/picture_2.png,images/picture_1.png,0,"[11.733433509789464, 11.733433509789462]",11.733433509789464,11.733433509789462,images/picture_2.png,1,"[11.733433509789462, -11.733433509789466]",11.733433509789462,-11.733433509789464,images/picture_3.png,2,"[-11.733433509789466, -11.733433509789462]",-11.733433509789464,-11.733433509789462,0,1,1,0.8385007886340543,1.8385007886340543,1.1614992113659457,3.0,1,1.5885007886340543,0,4.0,3.0,1,2,9,0,9,0,0,3,3,0,,,,,,,0.0063197920098900795,2800.9240419579437,2800.9240419579437,2801.924454999971,2802.2244031659793,2802.2244031659793,2802.2244031659793,2802.5247035829816,2803.391165332985,2803.391165332985,2803.391165332985,2803.391165332985,2804.3911158749834,4.522334082983434,200003,001,2023-03-22_12h36.15.163,DMS_et_12-36,2022.2.4,None,
85,UNPRED,12,0.8385007886340543,1,images/picture_2.png,images/picture_1.png,0,"[11.733433509789462, -11.733433509789466]",11.733433509789462,-11.733433509789464,images/picture_2.png,1,"[11.733433509789464, 11.733433509789462]",11.733433509789464,11.733433509789462,images/picture_3.png,2,"[-11.733433509789466, -11.733433509789462]",-11.733433509789464,-11.733433509789462,0,1,1,0.8385007886340543,1.8385007886340543,1.1614992113659457,3.0,1,1.5885007886340543,0,4.0,3.0,1,2,9,0,9,0,0,4,4,4,,,,,,,0.004981833044439554,2805.945039708051,2805.945039708051,2806.957889375044,2807.2776332909707,2807.2776332909707,2807.2776332909707,2807.544288291014,2808.444120500004,2808.444120500004,2808.444120500004,2808.424602083047,2809.42455037497,4.5197028330294415,200003,001,2023-03-22_12h36.15.163,DMS_et_12-36,2022.2.4,None,
88,UNPRED,12,0.8385007886340543,1,images/picture_2.png,images/picture_1.png,0,"[11.733433509789464, 11.733433509789462]",11.733433509789464,11.733433509789462,images/picture_2.png,1,"[-11.733433509789466, -11.733433509789462]",-11.733433509789464,-11.733433509789462,images/picture_3.png,2,"[11.733433509789462, -11.733433509789466]",11.733433509789462,-11.733433509789464,0,1,1,0.8385007886340543,1.8385007886340543,1.1614992113659457,3.0,1,1.5885007886340543,0,4.0,3.0,1,2,9,0,9,0,0,5,5,7,,,,,,,0.006601208006031811,2810.9791681249626,2810.9791681249626,2811.9912976659834,2812.2911334580276,2812.2911334580276,2812.2911334580276,2812.577492375043,2813.4579144580057,2813.4579144580057,2813.4579144580057,2813.4579144580057,2814.457451082999,4.524786332971416,200003,001,2023-03-22_12h36.15.163,DMS_et_12-36,2022.2.4,None,
83,UNPRED,12,0.8385007886340543,2,images/picture_3.png,images/picture_1.png,0,"[-11.733433509789466, -11.733433509789462]",-11.733433509789464,-11.733433509789462,images/picture_2.png,1,"[11.733433509789462, -11.733433509789466]",11.733433509789462,-11.733433509789464,images/picture_3.png,2,"[-11.733433509789462, 11.733433509789464]",-11.733433509789462,11.733433509789464,0,1,1,0.8385007886340543,1.8385007886340543,1.1614992113659457,3.0,1,1.5885007886340543,0,4.0,3.0,1,2,9,0,9,0,0,6,6,2,,,,,,,0.022950249956920743,2816.027874958003,2816.027874958003,2817.0248546659714,2817.343752708053,2817.343752708053,2817.343752708053,2817.6246794579783,2818.5114343330497,2818.5114343330497,2818.5114343330497,2818.4911930409726,2819.49131504097,4.521063750027679,200003,001,2023-03-22_12h36.15.163,DMS_et_12-36,2022.2.4,None,
87,UNPRED,12,0.8385007886340543,1,images/picture_2.png,images/picture_1.png,0,"[11.733433509789464, 11.733433509789462]",11.733433509789464,11.733433509789462,images/picture_2.png,1,"[11.733433509789462, -11.733433509789466]",11.733433509789462,-11.733433509789464,images/picture_3.png,2,"[-11.733433509789462, 11.733433509789464]",-11.733433509789462,11.733433509789464,0,1,1,0.8385007886340543,1.8385007886340543,1.1614992113659457,3.0,1,1.5885007886340543,0,4.0,3.0,1,2,9,0,9,0,0,7,7,6,,,,,,,0.008932582917623222,2821.0411043750355,2821.0411043750355,2822.0447594160214,2822.3578366660513,2822.3578366660513,2822.3578366660513,2822.6441593329655,2823.524627708015,2823.524627708015,2823.524627708015,2823.524627708015,2824.5245581249474,4.505632832995616,200003,001,2023-03-22_12h36.15.163,DMS_et_12-36,2022.2.4,None,
86,UNPRED,12,0.8385007886340543,1,images/picture_2.png,images/picture_1.png,0,"[11.733433509789464, 11.733433509789462]",11.733433509789464,11.733433509789462,images/picture_2.png,1,"[-11.733433509789466, -11.733433509789462]",-11.733433509789464,-11.733433509789462,images/picture_3.png,2,"[-11.733433509789462, 11.733433509789464]",-11.733433509789462,11.733433509789464,0,1,1,0.8385007886340543,1.8385007886340543,1.1614992113659457,3.0,1,1.5885007886340543,0,4.0,3.0,1,2,9,0,9,0,0,8,8,5,,,,,,,0.006672166986390948,2826.0562665830366,2826.0562665830366,2827.057728540967,2827.377992708003,2827.377992708003,2827.377992708003,2827.657520625042,2828.5445402499754,2828.5445402499754,2828.5445402499754,2828.5445402499754,2829.5573865410406,4.511540416977368,200003,001,2023-03-22_12h36.15.163,DMS_et_12-36,2022.2.4,None,
,,,,,,,,,,,,,,,,,,,,,,,,,,,,,,,,,,,9,0,9,0,,,,,,,,,2830.6891321250005,2843.233437791001,,,,,,,,,,,,,,,200003,001,2023-03-22_12h36.15.163,DMS_et_12-36,2022.2.4,None,
91,PRED,12,0.8385007886340543,2,images/picture_3.png,images/picture_1.png,0,"[11.733433509789464, 11.733433509789462]",11.733433509789464,11.733433509789462,images/picture_2.png,1,"[-11.733433509789466, -11.733433509789462]",-11.733433509789464,-11.733433509789462,images/picture_3.png,2,"[-11.733433509789462, 11.733433509789464]",-11.733433509789462,11.733433509789464,0,1,1,0.8385007886340543,1.8385007886340543,1.1614992113659457,3.0,1,1.5885007886340543,0,4.0,3.0,1,2,10,0,10,0,0,0,0,1,,,,,,,0.016700083040632308,2843.233437791001,2843.233437791001,2844.244882500032,2844.544677124941,2844.544677124941,2844.544677124941,2844.8246911660535,2845.710998457973,2845.710998457973,2845.710998457973,2845.710998457973,2846.724375208025,4.521813542000018,200003,001,2023-03-22_12h36.15.163,DMS_et_12-36,2022.2.4,None,
92,PRED,12,0.8385007886340543,2,images/picture_3.png,images/picture_1.png,0,"[11.733433509789464, 11.733433509789462]",11.733433509789464,11.733433509789462,images/picture_2.png,1,"[-11.733433509789462, 11.733433509789464]",-11.733433509789462,11.733433509789464,images/picture_3.png,2,"[11.733433509789462, -11.733433509789466]",11.733433509789462,-11.733433509789464,0,1,1,0.8385007886340543,1.8385007886340543,1.1614992113659457,3.0,1,1.5885007886340543,0,4.0,3.0,1,2,10,0,10,0,0,1,1,2,,,,,,,0.024099042057059705,2848.269024915993,2848.269024915993,2849.277591665974,2849.5780454160413,2849.5780454160413,2849.5780454160413,2849.8581173330313,2850.744249374955,2850.744249374955,2850.744249374955,2850.744249374955,2851.7582381250104,4.526221749954857,200003,001,2023-03-22_12h36.15.163,DMS_et_12-36,2022.2.4,None,
97,PRED,12,0.8385007886340543,2,images/picture_3.png,images/picture_1.png,0,"[-11.733433509789462, 11.733433509789464]",-11.733433509789462,11.733433509789464,images/picture_2.png,1,"[11.733433509789464, 11.733433509789462]",11.733433509789464,11.733433509789462,images/picture_3.png,2,"[11.733433509789462, -11.733433509789466]",11.733433509789462,-11.733433509789464,0,1,1,0.8385007886340543,1.8385007886340543,1.1614992113659457,3.0,1,1.5885007886340543,0,4.0,3.0,1,2,10,0,10,0,0,2,2,7,,,,,,,0.019710915978066623,2853.30486645794,2853.30486645794,2854.3111092499457,2854.6109586659586,2854.6109586659586,2854.6109586659586,2854.8914520000108,2855.777758375043,2855.777758375043,2855.777758375043,2855.777758375043,2856.7914400410373,4.524475874961354,200003,001,2023-03-22_12h36.15.163,DMS_et_12-36,2022.2.4,None,
96,PRED,12,0.8385007886340543,2,images/picture_3.png,images/picture_1.png,0,"[-11.733433509789466, -11.733433509789462]",-11.733433509789464,-11.733433509789462,images/picture_2.png,1,"[11.733433509789464, 11.733433509789462]",11.733433509789464,11.733433509789462,images/picture_3.png,2,"[-11.733433509789462, 11.733433509789464]",-11.733433509789462,11.733433509789464,0,1,1,0.8385007886340543,1.8385007886340543,1.1614992113659457,3.0,1,1.5885007886340543,0,4.0,3.0,1,2,10,0,10,0,0,3,3,6,,,,,,,0.010057333973236382,2858.321301333024,2858.321301333024,2859.324846624979,2859.644352165982,2859.644352165982,2859.644352165982,2859.9249168749666,2860.810954250046,2860.810954250046,2860.810954250046,2860.810954250046,2861.824887832976,4.514607333927415,200003,001,2023-03-22_12h36.15.163,DMS_et_12-36,2022.2.4,None,
95,PRED,12,0.8385007886340543,2,images/picture_3.png,images/picture_1.png,0,"[11.733433509789462, -11.733433509789466]",11.733433509789462,-11.733433509789464,images/picture_2.png,1,"[-11.733433509789466, -11.733433509789462]",-11.733433509789464,-11.733433509789462,images/picture_3.png,2,"[-11.733433509789462, 11.733433509789464]",-11.733433509789462,11.733433509789464,0,1,1,0.8385007886340543,1.8385007886340543,1.1614992113659457,3.0,1,1.5885007886340543,0,4.0,3.0,1,2,10,0,10,0,0,4,4,5,,,,,,,0.019942000042647123,2863.3526318749646,2863.3526318749646,2864.358393625007,2864.658136541024,2864.658136541024,2864.658136541024,2864.944422499975,2865.8248551250435,2865.8248551250435,2865.8248551250435,2865.8248551250435,2866.824933875003,4.524452958023176,200003,001,2023-03-22_12h36.15.163,DMS_et_12-36,2022.2.4,None,
94,PRED,12,0.8385007886340543,2,images/picture_3.png,images/picture_1.png,0,"[11.733433509789462, -11.733433509789466]",11.733433509789462,-11.733433509789464,images/picture_2.png,1,"[-11.733433509789466, -11.733433509789462]",-11.733433509789464,-11.733433509789462,images/picture_3.png,2,"[-11.733433509789462, 11.733433509789464]",-11.733433509789462,11.733433509789464,0,1,1,0.8385007886340543,1.8385007886340543,1.1614992113659457,3.0,1,1.5885007886340543,0,4.0,3.0,1,2,10,0,10,0,0,5,5,4,,,,,,,0.010359958047047257,2868.3768662910443,2868.3768662910443,2869.3915559999878,2869.6915946250083,2869.6915946250083,2869.6915946250083,2869.9780933329603,2870.8581944160396,2870.8581944160396,2870.8581944160396,2870.8581944160396,2871.8586760410108,4.528340041986667,200003,001,2023-03-22_12h36.15.163,DMS_et_12-36,2022.2.4,None,
98,PRED,12,0.8385007886340543,2,images/picture_3.png,images/picture_1.png,0,"[11.733433509789464, 11.733433509789462]",11.733433509789464,11.733433509789462,images/picture_2.png,1,"[11.733433509789462, -11.733433509789466]",11.733433509789462,-11.733433509789464,images/picture_3.png,2,"[-11.733433509789466, -11.733433509789462]",-11.733433509789464,-11.733433509789462,0,1,1,0.8385007886340543,1.8385007886340543,1.1614992113659457,3.0,1,1.5885007886340543,0,4.0,3.0,1,2,10,0,10,0,0,6,6,8,,,,,,,0.02089220902416855,2873.4330017500324,2873.4330017500324,2874.444303166005,2874.724876165972,2874.724876165972,2874.724876165972,2875.024875791045,2875.8916175409686,2875.8916175409686,2875.8916175409686,2875.8916175409686,2876.891730000032,4.537045000004582,200003,001,2023-03-22_12h36.15.163,DMS_et_12-36,2022.2.4,None,
90,PRED,12,0.8385007886340543,2,images/picture_3.png,images/picture_1.png,0,"[11.733433509789462, -11.733433509789466]",11.733433509789462,-11.733433509789464,images/picture_2.png,1,"[-11.733433509789462, 11.733433509789464]",-11.733433509789462,11.733433509789464,images/picture_3.png,2,"[-11.733433509789466, -11.733433509789462]",-11.733433509789464,-11.733433509789462,0,1,1,0.8385007886340543,1.8385007886340543,1.1614992113659457,3.0,1,1.5885007886340543,0,4.0,3.0,1,2,10,0,10,0,0,7,7,0,,,,,,,0.01078583300113678,2878.4518831250025,2878.4518831250025,2879.4582823750097,2879.7779045000207,2879.7779045000207,2879.7779045000207,2880.0441844579764,2880.9445899160346,2880.9445899160346,2880.9445899160346,2880.9445899160346,2881.9581260409905,4.515018625068478,200003,001,2023-03-22_12h36.15.163,DMS_et_12-36,2022.2.4,None,
,,,,,,,,,,,,,,,,,,,,,,,,,,,,,,,,,,,,,,,,,,,,,,,,,0.020788874942809343,2883.4900127080036,2883.4900127080036,2884.491625374998,2884.791561000049,2884.791561000049,2884.791561000049,2885.0915943329455,2885.9582763330545,2885.9582763330545,2885.9582763330545,2885.9582763330545,2886.9583169580437,,,,,,,,
