trial_count,blockType,blockNum,delay_time,stimImage_i,stimImage,responseImage1,responseImage1_i,responseImage1_pos,responseImage1_X,responseImage1_Y,responseImage2,responseImage2_i,responseImage2_pos,responseImage2_X,responseImage2_Y,responseImage3,responseImage3_i,responseImage3_pos,responseImage3_X,responseImage3_Y,cue_onset,cue_dur,delay_onset,delay_dur,resp_onset,resp_dur,rest_onset,rest_dur,circle_dur,circle_onset,total_dur,cross_onset,cross_dur,delay_resp_period,blocks.thisRepN,blocks.thisTrialN,blocks.thisN,blocks.thisIndex,trials.thisRepN,trials.thisTrialN,trials.thisN,trials.thisIndex,key_resp.started,text.started,key_resp.keys,key_resp.rt,text_2.started,text_2.stopped,sample.started,Delay.started,sample.stopped,Delay.stopped,Response_1.started,Response_2.started,Response_3.started,Response_1.stopped,Response_2.stopped,Response_3.stopped,polygon.started,polygon.stopped,participant,session,date,expName,psychopyVersion,frameRate,
,,,,,,,,,,,,,,,,,,,,,,,,,,,,,,,,,,,,,,,,,,,22.97725245800393,22.97725245800393,t,67.32936745800544,,,,,,,,,,,,,,,200003,006,2023-04-07_13h44.06.307,DMS_et_12-36,2022.2.4,None,
6,PRED,12,0.5359125165934148,2,images/picture_3.png,images/picture_1.png,0,"[11.733433509789464, 11.733433509789462]",11.733433509789464,11.733433509789462,images/picture_2.png,1,"[-11.733433509789466, -11.733433509789462]",-11.733433509789464,-11.733433509789462,images/picture_3.png,2,"[11.733433509789462, -11.733433509789466]",11.733433509789462,-11.733433509789464,0,1,1,0.5359125165934148,1.5359125165934149,1.4640874834065851,3.0,1,1.2859125165934149,0,4.0,3.0,1,2,0,0,0,0,0,0,0,6,,,,,90.82591979199788,102.86292716699245,102.86292716699245,102.86292716699245,103.8646641249943,104.14563566699508,104.37894479199895,104.37894479199895,104.37894479199895,105.84543750000012,105.84543750000012,105.84543750000012,105.84543750000012,106.84623379199184,200003,006,2023-04-07_13h44.06.307,DMS_et_12-36,2022.2.4,None,
8,PRED,12,0.5359125165934148,2,images/picture_3.png,images/picture_1.png,0,"[11.733433509789462, -11.733433509789466]",11.733433509789462,-11.733433509789464,images/picture_2.png,1,"[-11.733433509789462, 11.733433509789464]",-11.733433509789462,11.733433509789464,images/picture_3.png,2,"[-11.733433509789466, -11.733433509789462]",-11.733433509789464,-11.733433509789462,0,1,1,0.5359125165934148,1.5359125165934149,1.4640874834065851,3.0,1,1.2859125165934149,0,4.0,3.0,1,2,0,0,0,0,0,1,1,8,,,,,,,106.84623379199184,106.84623379199184,107.84562391700456,108.14544962499349,108.3785058749927,108.3785058749927,108.3785058749927,109.84565062499314,109.84565062499314,109.84565062499314,109.84565062499314,110.86433308299456,200003,006,2023-04-07_13h44.06.307,DMS_et_12-36,2022.2.4,None,
3,PRED,12,0.5359125165934148,2,images/picture_3.png,images/picture_1.png,0,"[11.733433509789464, 11.733433509789462]",11.733433509789464,11.733433509789462,images/picture_2.png,1,"[-11.733433509789466, -11.733433509789462]",-11.733433509789464,-11.733433509789462,images/picture_3.png,2,"[11.733433509789462, -11.733433509789466]",11.733433509789462,-11.733433509789464,0,1,1,0.5359125165934148,1.5359125165934149,1.4640874834065851,3.0,1,1.2859125165934149,0,4.0,3.0,1,2,0,0,0,0,0,2,2,3,,,,,,,110.86433308299456,110.86433308299456,111.87891258299351,112.16464575000282,112.37895379199472,112.37895379199472,112.37895379199472,113.84557750000386,113.84557750000386,113.84557750000386,113.84557750000386,114.86410008299572,200003,006,2023-04-07_13h44.06.307,DMS_et_12-36,2022.2.4,None,
5,PRED,12,0.5359125165934148,2,images/picture_3.png,images/picture_1.png,0,"[-11.733433509789462, 11.733433509789464]",-11.733433509789462,11.733433509789464,images/picture_2.png,1,"[-11.733433509789466, -11.733433509789462]",-11.733433509789464,-11.733433509789462,images/picture_3.png,2,"[11.733433509789462, -11.733433509789466]",11.733433509789462,-11.733433509789464,0,1,1,0.5359125165934148,1.5359125165934149,1.4640874834065851,3.0,1,1.2859125165934149,0,4.0,3.0,1,2,0,0,0,0,0,3,3,5,,,,,,,114.86410008299572,114.86410008299572,115.87897112499923,116.16474383299646,116.37893691699719,116.37893691699719,116.37893691699719,117.84589691700239,117.84589691700239,117.84589691700239,117.84589691700239,118.864699208003,200003,006,2023-04-07_13h44.06.307,DMS_et_12-36,2022.2.4,None,
7,PRED,12,0.5359125165934148,2,images/picture_3.png,images/picture_1.png,0,"[-11.733433509789466, -11.733433509789462]",-11.733433509789464,-11.733433509789462,images/picture_2.png,1,"[11.733433509789462, -11.733433509789466]",11.733433509789462,-11.733433509789464,images/picture_3.png,2,"[-11.733433509789462, 11.733433509789464]",-11.733433509789462,11.733433509789464,0,1,1,0.5359125165934148,1.5359125165934149,1.4640874834065851,3.0,1,1.2859125165934149,0,4.0,3.0,1,2,0,0,0,0,0,4,4,7,,,,,,,118.864699208003,118.864699208003,119.8789119580033,120.1648781249969,120.37868070800323,120.37868070800323,120.37868070800323,121.84562879199802,121.84562879199802,121.84562879199802,121.84562879199802,122.86402270800318,200003,006,2023-04-07_13h44.06.307,DMS_et_12-36,2022.2.4,None,
1,PRED,12,0.5359125165934148,2,images/picture_3.png,images/picture_1.png,0,"[-11.733433509789462, 11.733433509789464]",-11.733433509789462,11.733433509789464,images/picture_2.png,1,"[11.733433509789464, 11.733433509789462]",11.733433509789464,11.733433509789462,images/picture_3.png,2,"[-11.733433509789466, -11.733433509789462]",-11.733433509789464,-11.733433509789462,0,1,1,0.5359125165934148,1.5359125165934149,1.4640874834065851,3.0,1,1.2859125165934149,0,4.0,3.0,1,2,0,0,0,0,0,5,5,1,,,,,,,122.86402270800318,122.86402270800318,123.87886941699253,124.16488995800319,124.37889191700378,124.37889191700378,124.37889191700378,125.8456460830057,125.8456460830057,125.8456460830057,125.8456460830057,126.86406799999531,200003,006,2023-04-07_13h44.06.307,DMS_et_12-36,2022.2.4,None,
2,PRED,12,0.5359125165934148,2,images/picture_3.png,images/picture_1.png,0,"[11.733433509789462, -11.733433509789466]",11.733433509789462,-11.733433509789464,images/picture_2.png,1,"[11.733433509789464, 11.733433509789462]",11.733433509789464,11.733433509789462,images/picture_3.png,2,"[-11.733433509789466, -11.733433509789462]",-11.733433509789464,-11.733433509789462,0,1,1,0.5359125165934148,1.5359125165934149,1.4640874834065851,3.0,1,1.2859125165934149,0,4.0,3.0,1,2,0,0,0,0,0,6,6,2,,,,,,,126.86406799999531,126.86406799999531,127.87870166699577,128.16489374999946,128.37887887499528,128.37887887499528,128.37887887499528,129.84548920800444,129.84548920800444,129.84548920800444,129.84548920800444,130.86479620799946,200003,006,2023-04-07_13h44.06.307,DMS_et_12-36,2022.2.4,None,
4,PRED,12,0.5359125165934148,2,images/picture_3.png,images/picture_1.png,0,"[-11.733433509789462, 11.733433509789464]",-11.733433509789462,11.733433509789464,images/picture_2.png,1,"[11.733433509789462, -11.733433509789466]",11.733433509789462,-11.733433509789464,images/picture_3.png,2,"[11.733433509789464, 11.733433509789462]",11.733433509789464,11.733433509789462,0,1,1,0.5359125165934148,1.5359125165934149,1.4640874834065851,3.0,1,1.2859125165934149,0,4.0,3.0,1,2,0,0,0,0,0,7,7,4,,,,,,,130.86479620799946,130.86479620799946,131.87887083299574,132.16475891700247,132.3785824170045,132.3785824170045,132.3785824170045,133.84562224999536,133.84562224999536,133.84562224999536,133.84562224999536,134.86512937500083,200003,006,2023-04-07_13h44.06.307,DMS_et_12-36,2022.2.4,None,
0,PRED,12,0.5359125165934148,2,images/picture_3.png,images/picture_1.png,0,"[-11.733433509789462, 11.733433509789464]",-11.733433509789462,11.733433509789464,images/picture_2.png,1,"[11.733433509789464, 11.733433509789462]",11.733433509789464,11.733433509789462,images/picture_3.png,2,"[11.733433509789462, -11.733433509789466]",11.733433509789462,-11.733433509789464,0,1,1,0.5359125165934148,1.5359125165934149,1.4640874834065851,3.0,1,1.2859125165934149,0,4.0,3.0,1,2,0,0,0,0,0,8,8,0,,,,,,,134.86512937500083,134.86512937500083,135.87888887499867,136.16494400000374,136.37887591699837,136.37887591699837,136.37887591699837,137.84524224999768,137.84524224999768,137.84524224999768,137.84524224999768,138.86910420800268,200003,006,2023-04-07_13h44.06.307,DMS_et_12-36,2022.2.4,None,
,,,,,,,,,,,,,,,,,,,,,,,,,,,,,,,,,,,0,0,0,0,,,,,,,,,138.86910420800268,150.91261654200207,,,,,,,,,,,,,200003,006,2023-04-07_13h44.06.307,DMS_et_12-36,2022.2.4,None,
11,UNPRED,12,0.5359125165934148,1,images/picture_2.png,images/picture_1.png,0,"[-11.733433509789462, 11.733433509789464]",-11.733433509789462,11.733433509789464,images/picture_2.png,1,"[11.733433509789464, 11.733433509789462]",11.733433509789464,11.733433509789462,images/picture_3.png,2,"[-11.733433509789466, -11.733433509789462]",-11.733433509789464,-11.733433509789462,0,1,1,0.5359125165934148,1.5359125165934149,1.4640874834065851,3.0,1,1.2859125165934149,0,4.0,3.0,1,2,1,0,1,0,0,0,0,2,,,,,,,150.91261654200207,150.91261654200207,151.9121767500037,152.21239058299398,152.43158833299822,152.43158833299822,152.43158833299822,153.8981617919926,153.8981617919926,153.8981617919926,153.8981617919926,154.9116249170038,200003,006,2023-04-07_13h44.06.307,DMS_et_12-36,2022.2.4,None,
13,UNPRED,12,0.5359125165934148,1,images/picture_2.png,images/picture_1.png,0,"[11.733433509789464, 11.733433509789462]",11.733433509789464,11.733433509789462,images/picture_2.png,1,"[-11.733433509789462, 11.733433509789464]",-11.733433509789462,11.733433509789464,images/picture_3.png,2,"[-11.733433509789466, -11.733433509789462]",-11.733433509789464,-11.733433509789462,0,1,1,0.5359125165934148,1.5359125165934149,1.4640874834065851,3.0,1,1.2859125165934149,0,4.0,3.0,1,2,1,0,1,0,0,1,1,4,,,,,,,154.9116249170038,154.9116249170038,155.91219041700242,156.21219379200193,156.44531283299148,156.44531283299148,156.44531283299148,157.91186454199487,157.91186454199487,157.91186454199487,157.91186454199487,158.91210270799638,200003,006,2023-04-07_13h44.06.307,DMS_et_12-36,2022.2.4,None,
9,UNPRED,12,0.5359125165934148,0,images/picture_1.png,images/picture_1.png,0,"[11.733433509789462, -11.733433509789466]",11.733433509789462,-11.733433509789464,images/picture_2.png,1,"[11.733433509789464, 11.733433509789462]",11.733433509789464,11.733433509789462,images/picture_3.png,2,"[-11.733433509789462, 11.733433509789464]",-11.733433509789462,11.733433509789464,0,1,1,0.5359125165934148,1.5359125165934149,1.4640874834065851,3.0,1,1.2859125165934149,0,4.0,3.0,1,2,1,0,1,0,0,2,2,0,,,,,,,158.91210270799638,158.91210270799638,159.9126925419987,160.21219354200002,160.4456290829985,160.4456290829985,160.4456290829985,161.9123830000026,161.9123830000026,161.9123830000026,161.9123830000026,162.91203966700414,200003,006,2023-04-07_13h44.06.307,DMS_et_12-36,2022.2.4,None,
15,UNPRED,12,0.5359125165934148,0,images/picture_1.png,images/picture_1.png,0,"[-11.733433509789462, 11.733433509789464]",-11.733433509789462,11.733433509789464,images/picture_2.png,1,"[-11.733433509789466, -11.733433509789462]",-11.733433509789464,-11.733433509789462,images/picture_3.png,2,"[11.733433509789462, -11.733433509789466]",11.733433509789462,-11.733433509789464,0,1,1,0.5359125165934148,1.5359125165934149,1.4640874834065851,3.0,1,1.2859125165934149,0,4.0,3.0,1,2,1,0,1,0,0,3,3,6,,,,,,,162.91203966700414,162.91203966700414,163.91220195799542,164.2122154999961,164.4454374170018,164.4454374170018,164.4454374170018,165.91224216700357,165.91224216700357,165.91224216700357,165.91224216700357,166.91174804199545,200003,006,2023-04-07_13h44.06.307,DMS_et_12-36,2022.2.4,None,
17,UNPRED,12,0.5359125165934148,1,images/picture_2.png,images/picture_1.png,0,"[11.733433509789462, -11.733433509789466]",11.733433509789462,-11.733433509789464,images/picture_2.png,1,"[-11.733433509789466, -11.733433509789462]",-11.733433509789464,-11.733433509789462,images/picture_3.png,2,"[11.733433509789464, 11.733433509789462]",11.733433509789464,11.733433509789462,0,1,1,0.5359125165934148,1.5359125165934149,1.4640874834065851,3.0,1,1.2859125165934149,0,4.0,3.0,1,2,1,0,1,0,0,4,4,8,,,,,,,166.91174804199545,166.91174804199545,167.91213904200413,168.2119487500022,168.44507445799536,168.44507445799536,168.44507445799536,169.91223312499642,169.91223312499642,169.91223312499642,169.91223312499642,170.91162962499948,200003,006,2023-04-07_13h44.06.307,DMS_et_12-36,2022.2.4,None,
10,UNPRED,12,0.5359125165934148,1,images/picture_2.png,images/picture_1.png,0,"[-11.733433509789462, 11.733433509789464]",-11.733433509789462,11.733433509789464,images/picture_2.png,1,"[11.733433509789464, 11.733433509789462]",11.733433509789464,11.733433509789462,images/picture_3.png,2,"[11.733433509789462, -11.733433509789466]",11.733433509789462,-11.733433509789464,0,1,1,0.5359125165934148,1.5359125165934149,1.4640874834065851,3.0,1,1.2859125165934149,0,4.0,3.0,1,2,1,0,1,0,0,5,5,1,,,,,,,170.91162962499948,170.91162962499948,171.91220991700538,172.21234441699926,172.4456352499983,172.4456352499983,172.4456352499983,173.91216012499353,173.91216012499353,173.91216012499353,173.91216012499353,174.91186541700154,200003,006,2023-04-07_13h44.06.307,DMS_et_12-36,2022.2.4,None,
16,UNPRED,12,0.5359125165934148,1,images/picture_2.png,images/picture_1.png,0,"[11.733433509789464, 11.733433509789462]",11.733433509789464,11.733433509789462,images/picture_2.png,1,"[-11.733433509789466, -11.733433509789462]",-11.733433509789464,-11.733433509789462,images/picture_3.png,2,"[11.733433509789462, -11.733433509789466]",11.733433509789462,-11.733433509789464,0,1,1,0.5359125165934148,1.5359125165934149,1.4640874834065851,3.0,1,1.2859125165934149,0,4.0,3.0,1,2,1,0,1,0,0,6,6,7,,,,,,,174.91186541700154,174.91186541700154,175.9121892080002,176.21238283299317,176.4454278750054,176.4454278750054,176.4454278750054,177.9121951249981,177.9121951249981,177.9121951249981,177.9121951249981,178.91178287500225,200003,006,2023-04-07_13h44.06.307,DMS_et_12-36,2022.2.4,None,
14,UNPRED,12,0.5359125165934148,0,images/picture_1.png,images/picture_1.png,0,"[11.733433509789462, -11.733433509789466]",11.733433509789462,-11.733433509789464,images/picture_2.png,1,"[-11.733433509789462, 11.733433509789464]",-11.733433509789462,11.733433509789464,images/picture_3.png,2,"[-11.733433509789466, -11.733433509789462]",-11.733433509789464,-11.733433509789462,0,1,1,0.5359125165934148,1.5359125165934149,1.4640874834065851,3.0,1,1.2859125165934149,0,4.0,3.0,1,2,1,0,1,0,0,7,7,5,,,,,,,178.91178287500225,178.91178287500225,179.91216441699362,180.21214208299352,180.445110457993,180.445110457993,180.445110457993,181.9121641249949,181.9121641249949,181.9121641249949,181.9121641249949,182.91228141699685,200003,006,2023-04-07_13h44.06.307,DMS_et_12-36,2022.2.4,None,
12,UNPRED,12,0.5359125165934148,1,images/picture_2.png,images/picture_1.png,0,"[11.733433509789464, 11.733433509789462]",11.733433509789464,11.733433509789462,images/picture_2.png,1,"[-11.733433509789462, 11.733433509789464]",-11.733433509789462,11.733433509789464,images/picture_3.png,2,"[11.733433509789462, -11.733433509789466]",11.733433509789462,-11.733433509789464,0,1,1,0.5359125165934148,1.5359125165934149,1.4640874834065851,3.0,1,1.2859125165934149,0,4.0,3.0,1,2,1,0,1,0,0,8,8,3,,,,,,,182.91228141699685,182.91228141699685,183.9122530829918,184.21220883299247,184.445454582994,184.445454582994,184.445454582994,185.91222254199965,185.91222254199965,185.91222254199965,185.91222254199965,186.94372091699915,200003,006,2023-04-07_13h44.06.307,DMS_et_12-36,2022.2.4,None,
,,,,,,,,,,,,,,,,,,,,,,,,,,,,,,,,,,,1,0,1,0,,,,,,,,,186.94372091699915,198.9646852500009,,,,,,,,,,,,,200003,006,2023-04-07_13h44.06.307,DMS_et_12-36,2022.2.4,None,
20,PRED,12,0.5359125165934148,0,images/picture_1.png,images/picture_1.png,0,"[11.733433509789464, 11.733433509789462]",11.733433509789464,11.733433509789462,images/picture_2.png,1,"[-11.733433509789466, -11.733433509789462]",-11.733433509789464,-11.733433509789462,images/picture_3.png,2,"[-11.733433509789462, 11.733433509789464]",-11.733433509789462,11.733433509789464,0,1,1,0.5359125165934148,1.5359125165934149,1.4640874834065851,3.0,1,1.2859125165934149,0,4.0,3.0,1,2,2,0,2,0,0,0,0,2,,,,,,,198.9646852500009,198.9646852500009,199.97896704199957,200.26436445799482,200.47898749999877,200.47898749999877,200.47898749999877,201.94573358299385,201.94573358299385,201.94573358299385,201.94573358299385,202.94505437499902,200003,006,2023-04-07_13h44.06.307,DMS_et_12-36,2022.2.4,None,
19,PRED,12,0.5359125165934148,0,images/picture_1.png,images/picture_1.png,0,"[11.733433509789464, 11.733433509789462]",11.733433509789464,11.733433509789462,images/picture_2.png,1,"[-11.733433509789466, -11.733433509789462]",-11.733433509789464,-11.733433509789462,images/picture_3.png,2,"[-11.733433509789462, 11.733433509789464]",-11.733433509789462,11.733433509789464,0,1,1,0.5359125165934148,1.5359125165934149,1.4640874834065851,3.0,1,1.2859125165934149,0,4.0,3.0,1,2,2,0,2,0,0,1,1,1,,,,,,,202.94505437499902,202.94505437499902,203.94560695800465,204.24572474999877,204.47850724999444,204.47850724999444,204.47850724999444,205.94545695799752,205.94545695799752,205.94545695799752,205.94545695799752,206.94492383299803,200003,006,2023-04-07_13h44.06.307,DMS_et_12-36,2022.2.4,None,
25,PRED,12,0.5359125165934148,0,images/picture_1.png,images/picture_1.png,0,"[11.733433509789462, -11.733433509789466]",11.733433509789462,-11.733433509789464,images/picture_2.png,1,"[-11.733433509789462, 11.733433509789464]",-11.733433509789462,11.733433509789464,images/picture_3.png,2,"[-11.733433509789466, -11.733433509789462]",-11.733433509789464,-11.733433509789462,0,1,1,0.5359125165934148,1.5359125165934149,1.4640874834065851,3.0,1,1.2859125165934149,0,4.0,3.0,1,2,2,0,2,0,0,2,2,7,,,,,,,206.94492383299803,206.94492383299803,207.94563537499926,208.24545104199206,208.47889374999795,208.47889374999795,208.47889374999795,209.94530495800427,209.94530495800427,209.94530495800427,209.94530495800427,210.94536079200043,200003,006,2023-04-07_13h44.06.307,DMS_et_12-36,2022.2.4,None,
24,PRED,12,0.5359125165934148,0,images/picture_1.png,images/picture_1.png,0,"[11.733433509789462, -11.733433509789466]",11.733433509789462,-11.733433509789464,images/picture_2.png,1,"[-11.733433509789466, -11.733433509789462]",-11.733433509789464,-11.733433509789462,images/picture_3.png,2,"[-11.733433509789462, 11.733433509789464]",-11.733433509789462,11.733433509789464,0,1,1,0.5359125165934148,1.5359125165934149,1.4640874834065851,3.0,1,1.2859125165934149,0,4.0,3.0,1,2,2,0,2,0,0,3,3,6,,,,,,,210.94536079200043,210.94536079200043,211.94547375000548,212.24563066699193,212.47888650000095,212.47888650000095,212.47888650000095,213.9456286249915,213.9456286249915,213.9456286249915,213.9456286249915,214.94507983299263,200003,006,2023-04-07_13h44.06.307,DMS_et_12-36,2022.2.4,None,
22,PRED,12,0.5359125165934148,0,images/picture_1.png,images/picture_1.png,0,"[11.733433509789462, -11.733433509789466]",11.733433509789462,-11.733433509789464,images/picture_2.png,1,"[-11.733433509789462, 11.733433509789464]",-11.733433509789462,11.733433509789464,images/picture_3.png,2,"[-11.733433509789466, -11.733433509789462]",-11.733433509789464,-11.733433509789462,0,1,1,0.5359125165934148,1.5359125165934149,1.4640874834065851,3.0,1,1.2859125165934149,0,4.0,3.0,1,2,2,0,2,0,0,4,4,4,,,,,,,214.94507983299263,214.94507983299263,215.9456440829963,216.24565258300572,216.47857183299493,216.47857183299493,216.47857183299493,217.9454319170036,217.9454319170036,217.9454319170036,217.9454319170036,218.94501912499254,200003,006,2023-04-07_13h44.06.307,DMS_et_12-36,2022.2.4,None,
23,PRED,12,0.5359125165934148,0,images/picture_1.png,images/picture_1.png,0,"[11.733433509789464, 11.733433509789462]",11.733433509789464,11.733433509789462,images/picture_2.png,1,"[11.733433509789462, -11.733433509789466]",11.733433509789462,-11.733433509789464,images/picture_3.png,2,"[-11.733433509789466, -11.733433509789462]",-11.733433509789464,-11.733433509789462,0,1,1,0.5359125165934148,1.5359125165934149,1.4640874834065851,3.0,1,1.2859125165934149,0,4.0,3.0,1,2,2,0,2,0,0,5,5,5,,,,,,,218.94501912499254,218.94501912499254,219.94543583299674,220.24530883299303,220.4786944170046,220.4786944170046,220.4786944170046,221.94562820799183,221.94562820799183,221.94562820799183,221.94562820799183,222.94496199999412,200003,006,2023-04-07_13h44.06.307,DMS_et_12-36,2022.2.4,None,
21,PRED,12,0.5359125165934148,0,images/picture_1.png,images/picture_1.png,0,"[11.733433509789464, 11.733433509789462]",11.733433509789464,11.733433509789462,images/picture_2.png,1,"[11.733433509789462, -11.733433509789466]",11.733433509789462,-11.733433509789464,images/picture_3.png,2,"[-11.733433509789466, -11.733433509789462]",-11.733433509789464,-11.733433509789462,0,1,1,0.5359125165934148,1.5359125165934149,1.4640874834065851,3.0,1,1.2859125165934149,0,4.0,3.0,1,2,2,0,2,0,0,6,6,3,,,,,,,222.94496199999412,222.94496199999412,223.94546104199253,224.24563974999182,224.4789243330015,224.4789243330015,224.4789243330015,225.94572158300434,225.94572158300434,225.94572158300434,225.94572158300434,226.9449273749924,200003,006,2023-04-07_13h44.06.307,DMS_et_12-36,2022.2.4,None,
26,PRED,12,0.5359125165934148,0,images/picture_1.png,images/picture_1.png,0,"[-11.733433509789462, 11.733433509789464]",-11.733433509789462,11.733433509789464,images/picture_2.png,1,"[-11.733433509789466, -11.733433509789462]",-11.733433509789464,-11.733433509789462,images/picture_3.png,2,"[11.733433509789462, -11.733433509789466]",11.733433509789462,-11.733433509789464,0,1,1,0.5359125165934148,1.5359125165934149,1.4640874834065851,3.0,1,1.2859125165934149,0,4.0,3.0,1,2,2,0,2,0,0,7,7,8,,,,,,,226.9449273749924,226.9449273749924,227.94566866700188,228.24544645799324,228.47856670799956,228.47856670799956,228.47856670799956,229.94518229199457,229.94518229199457,229.94518229199457,229.94518229199457,230.9450538749952,200003,006,2023-04-07_13h44.06.307,DMS_et_12-36,2022.2.4,None,
18,PRED,12,0.5359125165934148,0,images/picture_1.png,images/picture_1.png,0,"[-11.733433509789462, 11.733433509789464]",-11.733433509789462,11.733433509789464,images/picture_2.png,1,"[-11.733433509789466, -11.733433509789462]",-11.733433509789464,-11.733433509789462,images/picture_3.png,2,"[11.733433509789462, -11.733433509789466]",11.733433509789462,-11.733433509789464,0,1,1,0.5359125165934148,1.5359125165934149,1.4640874834065851,3.0,1,1.2859125165934149,0,4.0,3.0,1,2,2,0,2,0,0,8,8,0,,,,,,,230.9450538749952,230.9450538749952,231.9454501250002,232.2456313750008,232.4789295829978,232.4789295829978,232.4789295829978,233.94564583299507,233.94564583299507,233.94564583299507,233.94564583299507,234.9874799579993,200003,006,2023-04-07_13h44.06.307,DMS_et_12-36,2022.2.4,None,
,,,,,,,,,,,,,,,,,,,,,,,,,,,,,,,,,,,2,0,2,0,,,,,,,,,234.9874799579993,247.01115700000082,,,,,,,,,,,,,200003,006,2023-04-07_13h44.06.307,DMS_et_12-36,2022.2.4,None,
30,UNPRED,12,0.5359125165934148,0,images/picture_1.png,images/picture_1.png,0,"[11.733433509789462, -11.733433509789466]",11.733433509789462,-11.733433509789464,images/picture_2.png,1,"[-11.733433509789466, -11.733433509789462]",-11.733433509789464,-11.733433509789462,images/picture_3.png,2,"[-11.733433509789462, 11.733433509789464]",-11.733433509789462,11.733433509789464,0,1,1,0.5359125165934148,1.5359125165934149,1.4640874834065851,3.0,1,1.2859125165934149,0,4.0,3.0,1,2,3,0,3,0,0,0,0,3,,,,,,,247.01115700000082,247.01115700000082,248.01220291700156,248.31221570799244,248.54567350000434,248.54567350000434,248.54567350000434,250.01188666699454,250.01188666699454,250.01188666699454,250.01188666699454,251.03078641700267,200003,006,2023-04-07_13h44.06.307,DMS_et_12-36,2022.2.4,None,
27,UNPRED,12,0.5359125165934148,2,images/picture_3.png,images/picture_1.png,0,"[-11.733433509789466, -11.733433509789462]",-11.733433509789464,-11.733433509789462,images/picture_2.png,1,"[11.733433509789462, -11.733433509789466]",11.733433509789462,-11.733433509789464,images/picture_3.png,2,"[11.733433509789464, 11.733433509789462]",11.733433509789464,11.733433509789462,0,1,1,0.5359125165934148,1.5359125165934149,1.4640874834065851,3.0,1,1.2859125165934149,0,4.0,3.0,1,2,3,0,3,0,0,1,1,0,,,,,,,251.03078641700267,251.03078641700267,252.04561625000497,252.33100004200242,252.54541537500336,252.54541537500336,252.54541537500336,254.01218837499619,254.01218837499619,254.01218837499619,254.01218837499619,255.03149920799478,200003,006,2023-04-07_13h44.06.307,DMS_et_12-36,2022.2.4,None,
33,UNPRED,12,0.5359125165934148,2,images/picture_3.png,images/picture_1.png,0,"[-11.733433509789466, -11.733433509789462]",-11.733433509789464,-11.733433509789462,images/picture_2.png,1,"[11.733433509789464, 11.733433509789462]",11.733433509789464,11.733433509789462,images/picture_3.png,2,"[-11.733433509789462, 11.733433509789464]",-11.733433509789462,11.733433509789464,0,1,1,0.5359125165934148,1.5359125165934149,1.4640874834065851,3.0,1,1.2859125165934149,0,4.0,3.0,1,2,3,0,3,0,0,2,2,6,,,,,,,255.03149920799478,255.03149920799478,256.04544662499393,256.3318388750049,256.5456509170035,256.5456509170035,256.5456509170035,258.0121566250018,258.0121566250018,258.0121566250018,258.0121566250018,259.0116129579983,200003,006,2023-04-07_13h44.06.307,DMS_et_12-36,2022.2.4,None,
34,UNPRED,12,0.5359125165934148,0,images/picture_1.png,images/picture_1.png,0,"[11.733433509789464, 11.733433509789462]",11.733433509789464,11.733433509789462,images/picture_2.png,1,"[-11.733433509789462, 11.733433509789464]",-11.733433509789462,11.733433509789464,images/picture_3.png,2,"[11.733433509789462, -11.733433509789466]",11.733433509789462,-11.733433509789464,0,1,1,0.5359125165934148,1.5359125165934149,1.4640874834065851,3.0,1,1.2859125165934149,0,4.0,3.0,1,2,3,0,3,0,0,3,3,7,,,,,,,259.0116129579983,259.0116129579983,260.0121472079918,260.31237908299954,260.5458556670055,260.5458556670055,260.5458556670055,262.0121845829999,262.0121845829999,262.0121845829999,262.0121845829999,263.03103837500385,200003,006,2023-04-07_13h44.06.307,DMS_et_12-36,2022.2.4,None,
28,UNPRED,12,0.5359125165934148,2,images/picture_3.png,images/picture_1.png,0,"[-11.733433509789462, 11.733433509789464]",-11.733433509789462,11.733433509789464,images/picture_2.png,1,"[-11.733433509789466, -11.733433509789462]",-11.733433509789464,-11.733433509789462,images/picture_3.png,2,"[11.733433509789462, -11.733433509789466]",11.733433509789462,-11.733433509789464,0,1,1,0.5359125165934148,1.5359125165934149,1.4640874834065851,3.0,1,1.2859125165934149,0,4.0,3.0,1,2,3,0,3,0,0,4,4,1,,,,,,,263.03103837500385,263.03103837500385,264.0456169579993,264.3315299169917,264.5456433329964,264.5456433329964,264.5456433329964,266.01217324999743,266.01217324999743,266.01217324999743,266.01217324999743,267.0317121669941,200003,006,2023-04-07_13h44.06.307,DMS_et_12-36,2022.2.4,None,
31,UNPRED,12,0.5359125165934148,2,images/picture_3.png,images/picture_1.png,0,"[-11.733433509789462, 11.733433509789464]",-11.733433509789462,11.733433509789464,images/picture_2.png,1,"[11.733433509789462, -11.733433509789466]",11.733433509789462,-11.733433509789464,images/picture_3.png,2,"[-11.733433509789466, -11.733433509789462]",-11.733433509789464,-11.733433509789462,0,1,1,0.5359125165934148,1.5359125165934149,1.4640874834065851,3.0,1,1.2859125165934149,0,4.0,3.0,1,2,3,0,3,0,0,5,5,4,,,,,,,267.0317121669941,267.0317121669941,268.04568683299294,268.33187233300123,268.54619383299723,268.54619383299723,268.54619383299723,270.0122528329957,270.0122528329957,270.0122528329957,270.0122528329957,271.0132692920015,200003,006,2023-04-07_13h44.06.307,DMS_et_12-36,2022.2.4,None,
29,UNPRED,12,0.5359125165934148,2,images/picture_3.png,images/picture_1.png,0,"[11.733433509789462, -11.733433509789466]",11.733433509789462,-11.733433509789464,images/picture_2.png,1,"[-11.733433509789466, -11.733433509789462]",-11.733433509789464,-11.733433509789462,images/picture_3.png,2,"[11.733433509789464, 11.733433509789462]",11.733433509789464,11.733433509789462,0,1,1,0.5359125165934148,1.5359125165934149,1.4640874834065851,3.0,1,1.2859125165934149,0,4.0,3.0,1,2,3,0,3,0,0,6,6,2,,,,,,,271.0132692920015,271.0132692920015,272.0117495000013,272.3122259579977,272.545633457994,272.545633457994,272.545633457994,274.01224720799655,274.01224720799655,274.01224720799655,274.01224720799655,275.0122382499976,200003,006,2023-04-07_13h44.06.307,DMS_et_12-36,2022.2.4,None,
32,UNPRED,12,0.5359125165934148,0,images/picture_1.png,images/picture_1.png,0,"[11.733433509789462, -11.733433509789466]",11.733433509789462,-11.733433509789464,images/picture_2.png,1,"[-11.733433509789466, -11.733433509789462]",-11.733433509789464,-11.733433509789462,images/picture_3.png,2,"[11.733433509789464, 11.733433509789462]",11.733433509789464,11.733433509789462,0,1,1,0.5359125165934148,1.5359125165934149,1.4640874834065851,3.0,1,1.2859125165934149,0,4.0,3.0,1,2,3,0,3,0,0,7,7,5,,,,,,,275.0122382499976,275.0122382499976,276.0121562919958,276.3119843329914,276.54514124999696,276.54514124999696,276.54514124999696,278.01218966700253,278.01218966700253,278.01218966700253,278.01218966700253,279.0116541669995,200003,006,2023-04-07_13h44.06.307,DMS_et_12-36,2022.2.4,None,
35,UNPRED,12,0.5359125165934148,0,images/picture_1.png,images/picture_1.png,0,"[11.733433509789462, -11.733433509789466]",11.733433509789462,-11.733433509789464,images/picture_2.png,1,"[-11.733433509789462, 11.733433509789464]",-11.733433509789462,11.733433509789464,images/picture_3.png,2,"[11.733433509789464, 11.733433509789462]",11.733433509789464,11.733433509789462,0,1,1,0.5359125165934148,1.5359125165934149,1.4640874834065851,3.0,1,1.2859125165934149,0,4.0,3.0,1,2,3,0,3,0,0,8,8,8,,,,,,,279.0116541669995,279.0116541669995,280.0123026670044,280.3122336249944,280.5456474579987,280.5456474579987,280.5456474579987,282.01199091700255,282.01199091700255,282.01199091700255,282.01199091700255,283.0671229169966,200003,006,2023-04-07_13h44.06.307,DMS_et_12-36,2022.2.4,None,
,,,,,,,,,,,,,,,,,,,,,,,,,,,,,,,,,,,3,0,3,0,,,,,,,,,283.0671229169966,295.1120821670047,,,,,,,,,,,,,200003,006,2023-04-07_13h44.06.307,DMS_et_12-36,2022.2.4,None,
36,PRED,12,0.5359125165934148,2,images/picture_3.png,images/picture_1.png,0,"[11.733433509789462, -11.733433509789466]",11.733433509789462,-11.733433509789464,images/picture_2.png,1,"[-11.733433509789466, -11.733433509789462]",-11.733433509789464,-11.733433509789462,images/picture_3.png,2,"[-11.733433509789462, 11.733433509789464]",-11.733433509789462,11.733433509789464,0,1,1,0.5359125165934148,1.5359125165934149,1.4640874834065851,3.0,1,1.2859125165934149,0,4.0,3.0,1,2,4,0,4,0,0,0,0,0,,,,,,,295.1120821670047,295.1120821670047,296.11242187500466,296.4122765829961,296.6317565829959,296.6317565829959,296.6317565829959,298.0983612919954,298.0983612919954,298.0983612919954,298.0983612919954,299.1315787079948,200003,006,2023-04-07_13h44.06.307,DMS_et_12-36,2022.2.4,None,
40,PRED,12,0.5359125165934148,2,images/picture_3.png,images/picture_1.png,0,"[-11.733433509789466, -11.733433509789462]",-11.733433509789464,-11.733433509789462,images/picture_2.png,1,"[11.733433509789464, 11.733433509789462]",11.733433509789464,11.733433509789462,images/picture_3.png,2,"[11.733433509789462, -11.733433509789466]",11.733433509789462,-11.733433509789464,0,1,1,0.5359125165934148,1.5359125165934149,1.4640874834065851,3.0,1,1.2859125165934149,0,4.0,3.0,1,2,4,0,4,0,0,1,1,4,,,,,,,299.1315787079948,299.1315787079948,300.1456421670009,300.43178579199594,300.64546754199546,300.64546754199546,300.64546754199546,302.1121067079948,302.1121067079948,302.1121067079948,302.1121067079948,303.1308223329979,200003,006,2023-04-07_13h44.06.307,DMS_et_12-36,2022.2.4,None,
39,PRED,12,0.5359125165934148,2,images/picture_3.png,images/picture_1.png,0,"[11.733433509789462, -11.733433509789466]",11.733433509789462,-11.733433509789464,images/picture_2.png,1,"[-11.733433509789466, -11.733433509789462]",-11.733433509789464,-11.733433509789462,images/picture_3.png,2,"[11.733433509789464, 11.733433509789462]",11.733433509789464,11.733433509789462,0,1,1,0.5359125165934148,1.5359125165934149,1.4640874834065851,3.0,1,1.2859125165934149,0,4.0,3.0,1,2,4,0,4,0,0,2,2,3,,,,,,,303.1308223329979,303.1308223329979,304.1455062079913,304.4318159169925,304.6458134169952,304.6458134169952,304.6458134169952,306.112429832996,306.112429832996,306.112429832996,306.112429832996,307.1316572079959,200003,006,2023-04-07_13h44.06.307,DMS_et_12-36,2022.2.4,None,
38,PRED,12,0.5359125165934148,2,images/picture_3.png,images/picture_1.png,0,"[-11.733433509789462, 11.733433509789464]",-11.733433509789462,11.733433509789464,images/picture_2.png,1,"[-11.733433509789466, -11.733433509789462]",-11.733433509789464,-11.733433509789462,images/picture_3.png,2,"[11.733433509789464, 11.733433509789462]",11.733433509789464,11.733433509789462,0,1,1,0.5359125165934148,1.5359125165934149,1.4640874834065851,3.0,1,1.2859125165934149,0,4.0,3.0,1,2,4,0,4,0,0,3,3,2,,,,,,,307.1316572079959,307.1316572079959,308.14576962499996,308.43133458300144,308.645554082992,308.645554082992,308.645554082992,310.1122989580035,310.1122989580035,310.1122989580035,310.1122989580035,311.1309382079926,200003,006,2023-04-07_13h44.06.307,DMS_et_12-36,2022.2.4,None,
44,PRED,12,0.5359125165934148,2,images/picture_3.png,images/picture_1.png,0,"[-11.733433509789466, -11.733433509789462]",-11.733433509789464,-11.733433509789462,images/picture_2.png,1,"[11.733433509789464, 11.733433509789462]",11.733433509789464,11.733433509789462,images/picture_3.png,2,"[-11.733433509789462, 11.733433509789464]",-11.733433509789462,11.733433509789464,0,1,1,0.5359125165934148,1.5359125165934149,1.4640874834065851,3.0,1,1.2859125165934149,0,4.0,3.0,1,2,4,0,4,0,0,4,4,8,,,,,,,311.1309382079926,311.1309382079926,312.14537833299255,312.43077908299165,312.64535679199616,312.64535679199616,312.64535679199616,314.1124224170053,314.1124224170053,314.1124224170053,314.1124224170053,315.1314550829993,200003,006,2023-04-07_13h44.06.307,DMS_et_12-36,2022.2.4,None,
42,PRED,12,0.5359125165934148,2,images/picture_3.png,images/picture_1.png,0,"[-11.733433509789466, -11.733433509789462]",-11.733433509789464,-11.733433509789462,images/picture_2.png,1,"[-11.733433509789462, 11.733433509789464]",-11.733433509789462,11.733433509789464,images/picture_3.png,2,"[11.733433509789462, -11.733433509789466]",11.733433509789462,-11.733433509789464,0,1,1,0.5359125165934148,1.5359125165934149,1.4640874834065851,3.0,1,1.2859125165934149,0,4.0,3.0,1,2,4,0,4,0,0,5,5,6,,,,,,,315.1314550829993,315.1314550829993,316.1455149999965,316.4313402919943,316.6454781249922,316.6454781249922,316.6454781249922,318.1124068749923,318.1124068749923,318.1124068749923,318.1124068749923,319.1317903750023,200003,006,2023-04-07_13h44.06.307,DMS_et_12-36,2022.2.4,None,
41,PRED,12,0.5359125165934148,2,images/picture_3.png,images/picture_1.png,0,"[-11.733433509789462, 11.733433509789464]",-11.733433509789462,11.733433509789464,images/picture_2.png,1,"[-11.733433509789466, -11.733433509789462]",-11.733433509789464,-11.733433509789462,images/picture_3.png,2,"[11.733433509789462, -11.733433509789466]",11.733433509789462,-11.733433509789464,0,1,1,0.5359125165934148,1.5359125165934149,1.4640874834065851,3.0,1,1.2859125165934149,0,4.0,3.0,1,2,4,0,4,0,0,6,6,5,,,,,,,319.1317903750023,319.1317903750023,320.1456848749949,320.4314090419939,320.6454999169946,320.6454999169946,320.6454999169946,322.1120179999998,322.1120179999998,322.1120179999998,322.1120179999998,323.11350474999927,200003,006,2023-04-07_13h44.06.307,DMS_et_12-36,2022.2.4,None,
43,PRED,12,0.5359125165934148,2,images/picture_3.png,images/picture_1.png,0,"[11.733433509789462, -11.733433509789466]",11.733433509789462,-11.733433509789464,images/picture_2.png,1,"[-11.733433509789462, 11.733433509789464]",-11.733433509789462,11.733433509789464,images/picture_3.png,2,"[-11.733433509789466, -11.733433509789462]",-11.733433509789464,-11.733433509789462,0,1,1,0.5359125165934148,1.5359125165934149,1.4640874834065851,3.0,1,1.2859125165934149,0,4.0,3.0,1,2,4,0,4,0,0,7,7,7,,,,,,,323.11350474999927,323.11350474999927,324.11226033300045,324.41179145799833,324.6456625830033,324.6456625830033,324.6456625830033,326.11236766699585,326.11236766699585,326.11236766699585,326.11236766699585,327.1306747500057,200003,006,2023-04-07_13h44.06.307,DMS_et_12-36,2022.2.4,None,
37,PRED,12,0.5359125165934148,2,images/picture_3.png,images/picture_1.png,0,"[-11.733433509789466, -11.733433509789462]",-11.733433509789464,-11.733433509789462,images/picture_2.png,1,"[-11.733433509789462, 11.733433509789464]",-11.733433509789462,11.733433509789464,images/picture_3.png,2,"[11.733433509789462, -11.733433509789466]",11.733433509789462,-11.733433509789464,0,1,1,0.5359125165934148,1.5359125165934149,1.4640874834065851,3.0,1,1.2859125165934149,0,4.0,3.0,1,2,4,0,4,0,0,8,8,1,,,,,,,327.1306747500057,327.1306747500057,328.14562399999704,328.431495249999,328.6454408749996,328.6454408749996,328.6454408749996,330.1122272920038,330.1122272920038,330.1122272920038,330.1122272920038,331.1726299580041,200003,006,2023-04-07_13h44.06.307,DMS_et_12-36,2022.2.4,None,
,,,,,,,,,,,,,,,,,,,,,,,,,,,,,,,,,,,4,0,4,0,,,,,,,,,331.1726299580041,343.1973890829977,,,,,,,,,,,,,200003,006,2023-04-07_13h44.06.307,DMS_et_12-36,2022.2.4,None,
51,UNPRED,12,0.5359125165934148,2,images/picture_3.png,images/picture_1.png,0,"[11.733433509789464, 11.733433509789462]",11.733433509789464,11.733433509789462,images/picture_2.png,1,"[11.733433509789462, -11.733433509789466]",11.733433509789462,-11.733433509789464,images/picture_3.png,2,"[-11.733433509789466, -11.733433509789462]",-11.733433509789464,-11.733433509789462,0,1,1,0.5359125165934148,1.5359125165934149,1.4640874834065851,3.0,1,1.2859125165934149,0,4.0,3.0,1,2,5,0,5,0,0,0,0,6,,,,,,,343.1973890829977,343.1973890829977,344.21225016699464,344.4982599579962,344.7121560420055,344.7121560420055,344.7121560420055,346.1790000000037,346.1790000000037,346.1790000000037,346.1790000000037,347.1982541670004,200003,006,2023-04-07_13h44.06.307,DMS_et_12-36,2022.2.4,None,
46,UNPRED,12,0.5359125165934148,2,images/picture_3.png,images/picture_1.png,0,"[-11.733433509789462, 11.733433509789464]",-11.733433509789462,11.733433509789464,images/picture_2.png,1,"[11.733433509789462, -11.733433509789466]",11.733433509789462,-11.733433509789464,images/picture_3.png,2,"[11.733433509789464, 11.733433509789462]",11.733433509789464,11.733433509789462,0,1,1,0.5359125165934148,1.5359125165934149,1.4640874834065851,3.0,1,1.2859125165934149,0,4.0,3.0,1,2,5,0,5,0,0,1,1,1,,,,,,,347.1982541670004,347.1982541670004,348.2122059999965,348.4979239999957,348.7121829579992,348.7121829579992,348.7121829579992,350.17893095800537,350.17893095800537,350.17893095800537,350.17893095800537,351.1785391250014,200003,006,2023-04-07_13h44.06.307,DMS_et_12-36,2022.2.4,None,
48,UNPRED,12,0.5359125165934148,0,images/picture_1.png,images/picture_1.png,0,"[-11.733433509789466, -11.733433509789462]",-11.733433509789464,-11.733433509789462,images/picture_2.png,1,"[11.733433509789462, -11.733433509789466]",11.733433509789462,-11.733433509789464,images/picture_3.png,2,"[-11.733433509789462, 11.733433509789464]",-11.733433509789462,11.733433509789464,0,1,1,0.5359125165934148,1.5359125165934149,1.4640874834065851,3.0,1,1.2859125165934149,0,4.0,3.0,1,2,5,0,5,0,0,2,2,3,,,,,,,351.1785391250014,351.1785391250014,352.17893974999606,352.4792213750043,352.7118538749928,352.7118538749928,352.7118538749928,354.1790045420057,354.1790045420057,354.1790045420057,354.1790045420057,355.178471332998,200003,006,2023-04-07_13h44.06.307,DMS_et_12-36,2022.2.4,None,
49,UNPRED,12,0.5359125165934148,0,images/picture_1.png,images/picture_1.png,0,"[-11.733433509789466, -11.733433509789462]",-11.733433509789464,-11.733433509789462,images/picture_2.png,1,"[11.733433509789462, -11.733433509789466]",11.733433509789462,-11.733433509789464,images/picture_3.png,2,"[11.733433509789464, 11.733433509789462]",11.733433509789464,11.733433509789462,0,1,1,0.5359125165934148,1.5359125165934149,1.4640874834065851,3.0,1,1.2859125165934149,0,4.0,3.0,1,2,5,0,5,0,0,3,3,4,,,,,,,355.178471332998,355.178471332998,356.17891633299587,356.4789222919935,356.7122758329933,356.7122758329933,356.7122758329933,358.17891008299193,358.17891008299193,358.17891008299193,358.17891008299193,359.1789950419916,200003,006,2023-04-07_13h44.06.307,DMS_et_12-36,2022.2.4,None,
52,UNPRED,12,0.5359125165934148,1,images/picture_2.png,images/picture_1.png,0,"[11.733433509789464, 11.733433509789462]",11.733433509789464,11.733433509789462,images/picture_2.png,1,"[-11.733433509789466, -11.733433509789462]",-11.733433509789464,-11.733433509789462,images/picture_3.png,2,"[-11.733433509789462, 11.733433509789464]",-11.733433509789462,11.733433509789464,0,1,1,0.5359125165934148,1.5359125165934149,1.4640874834065851,3.0,1,1.2859125165934149,0,4.0,3.0,1,2,5,0,5,0,0,4,4,7,,,,,,,359.1789950419916,359.1789950419916,360.179046499994,360.4787059999944,360.71216170799744,360.71216170799744,360.71216170799744,362.1789017919946,362.1789017919946,362.1789017919946,362.1789017919946,363.1975810419972,200003,006,2023-04-07_13h44.06.307,DMS_et_12-36,2022.2.4,None,
47,UNPRED,12,0.5359125165934148,2,images/picture_3.png,images/picture_1.png,0,"[11.733433509789462, -11.733433509789466]",11.733433509789462,-11.733433509789464,images/picture_2.png,1,"[11.733433509789464, 11.733433509789462]",11.733433509789464,11.733433509789462,images/picture_3.png,2,"[-11.733433509789462, 11.733433509789464]",-11.733433509789462,11.733433509789464,0,1,1,0.5359125165934148,1.5359125165934149,1.4640874834065851,3.0,1,1.2859125165934149,0,4.0,3.0,1,2,5,0,5,0,0,5,5,2,,,,,,,363.1975810419972,363.1975810419972,364.2119280420011,364.4979981249926,364.7121589580056,364.7121589580056,364.7121589580056,366.17893037499744,366.17893037499744,366.17893037499744,366.17893037499744,367.17923133299337,200003,006,2023-04-07_13h44.06.307,DMS_et_12-36,2022.2.4,None,
53,UNPRED,12,0.5359125165934148,1,images/picture_2.png,images/picture_1.png,0,"[-11.733433509789466, -11.733433509789462]",-11.733433509789464,-11.733433509789462,images/picture_2.png,1,"[11.733433509789464, 11.733433509789462]",11.733433509789464,11.733433509789462,images/picture_3.png,2,"[11.733433509789462, -11.733433509789466]",11.733433509789462,-11.733433509789464,0,1,1,0.5359125165934148,1.5359125165934149,1.4640874834065851,3.0,1,1.2859125165934149,0,4.0,3.0,1,2,5,0,5,0,0,6,6,8,,,,,,,367.17923133299337,367.17923133299337,368.1789350420004,368.47892054199474,368.71233004199166,368.71233004199166,368.71233004199166,370.17895649999264,370.17895649999264,370.17895649999264,370.17895649999264,371.1788723329955,200003,006,2023-04-07_13h44.06.307,DMS_et_12-36,2022.2.4,None,
50,UNPRED,12,0.5359125165934148,1,images/picture_2.png,images/picture_1.png,0,"[-11.733433509789466, -11.733433509789462]",-11.733433509789464,-11.733433509789462,images/picture_2.png,1,"[-11.733433509789462, 11.733433509789464]",-11.733433509789462,11.733433509789464,images/picture_3.png,2,"[11.733433509789464, 11.733433509789462]",11.733433509789464,11.733433509789462,0,1,1,0.5359125165934148,1.5359125165934149,1.4640874834065851,3.0,1,1.2859125165934149,0,4.0,3.0,1,2,5,0,5,0,0,7,7,5,,,,,,,371.1788723329955,371.1788723329955,372.1791228749935,372.47854445800476,372.7124823329941,372.7124823329941,372.7124823329941,374.17876416699437,374.17876416699437,374.17876416699437,374.17876416699437,375.1975910829933,200003,006,2023-04-07_13h44.06.307,DMS_et_12-36,2022.2.4,None,
45,UNPRED,12,0.5359125165934148,2,images/picture_3.png,images/picture_1.png,0,"[11.733433509789464, 11.733433509789462]",11.733433509789464,11.733433509789462,images/picture_2.png,1,"[-11.733433509789462, 11.733433509789464]",-11.733433509789462,11.733433509789464,images/picture_3.png,2,"[-11.733433509789466, -11.733433509789462]",-11.733433509789464,-11.733433509789462,0,1,1,0.5359125165934148,1.5359125165934149,1.4640874834065851,3.0,1,1.2859125165934149,0,4.0,3.0,1,2,5,0,5,0,0,8,8,0,,,,,,,375.1975910829933,375.1975910829933,376.2126217920013,376.4981841669942,376.7124445829977,376.7124445829977,376.7124445829977,378.17899600000237,378.17899600000237,378.17899600000237,378.17899600000237,379.3124322079966,200003,006,2023-04-07_13h44.06.307,DMS_et_12-36,2022.2.4,None,
,,,,,,,,,,,,,,,,,,,,,,,,,,,,,,,,,,,5,0,5,0,,,,,,,,,379.3124322079966,391.3348362079996,,,,,,,,,,,,,200003,006,2023-04-07_13h44.06.307,DMS_et_12-36,2022.2.4,None,
58,PRED,12,0.5359125165934148,1,images/picture_2.png,images/picture_1.png,0,"[11.733433509789462, -11.733433509789466]",11.733433509789462,-11.733433509789464,images/picture_2.png,1,"[11.733433509789464, 11.733433509789462]",11.733433509789464,11.733433509789462,images/picture_3.png,2,"[-11.733433509789462, 11.733433509789464]",-11.733433509789462,11.733433509789464,0,1,1,0.5359125165934148,1.5359125165934149,1.4640874834065851,3.0,1,1.2859125165934149,0,4.0,3.0,1,2,6,0,6,0,0,0,0,4,,,,,,,391.3348362079996,391.3348362079996,392.3456307919987,392.63182687500375,392.8649041250028,392.8649041250028,392.8649041250028,394.33078883300186,394.33078883300186,394.33078883300186,394.33078883300186,395.3452816249919,200003,006,2023-04-07_13h44.06.307,DMS_et_12-36,2022.2.4,None,
55,PRED,12,0.5359125165934148,1,images/picture_2.png,images/picture_1.png,0,"[-11.733433509789466, -11.733433509789462]",-11.733433509789464,-11.733433509789462,images/picture_2.png,1,"[11.733433509789464, 11.733433509789462]",11.733433509789464,11.733433509789462,images/picture_3.png,2,"[11.733433509789462, -11.733433509789466]",11.733433509789462,-11.733433509789464,0,1,1,0.5359125165934148,1.5359125165934149,1.4640874834065851,3.0,1,1.2859125165934149,0,4.0,3.0,1,2,6,0,6,0,0,1,1,1,,,,,,,395.3452816249919,395.3452816249919,396.3450852919923,396.64562633300375,396.87892541699694,396.87892541699694,396.87892541699694,398.3454092920001,398.3454092920001,398.3454092920001,398.3454092920001,399.3450446249917,200003,006,2023-04-07_13h44.06.307,DMS_et_12-36,2022.2.4,None,
57,PRED,12,0.5359125165934148,1,images/picture_2.png,images/picture_1.png,0,"[-11.733433509789466, -11.733433509789462]",-11.733433509789464,-11.733433509789462,images/picture_2.png,1,"[11.733433509789462, -11.733433509789466]",11.733433509789462,-11.733433509789464,images/picture_3.png,2,"[-11.733433509789462, 11.733433509789464]",-11.733433509789462,11.733433509789464,0,1,1,0.5359125165934148,1.5359125165934149,1.4640874834065851,3.0,1,1.2859125165934149,0,4.0,3.0,1,2,6,0,6,0,0,2,2,3,,,,,,,399.3450446249917,399.3450446249917,400.34543441700225,400.64571270799206,400.87890337499266,400.87890337499266,400.87890337499266,402.3451228750055,402.3451228750055,402.3451228750055,402.3451228750055,403.3453192500019,200003,006,2023-04-07_13h44.06.307,DMS_et_12-36,2022.2.4,None,
61,PRED,12,0.5359125165934148,1,images/picture_2.png,images/picture_1.png,0,"[-11.733433509789466, -11.733433509789462]",-11.733433509789464,-11.733433509789462,images/picture_2.png,1,"[11.733433509789462, -11.733433509789466]",11.733433509789462,-11.733433509789464,images/picture_3.png,2,"[-11.733433509789462, 11.733433509789464]",-11.733433509789462,11.733433509789464,0,1,1,0.5359125165934148,1.5359125165934149,1.4640874834065851,3.0,1,1.2859125165934149,0,4.0,3.0,1,2,6,0,6,0,0,3,3,7,,,,,,,403.3453192500019,403.3453192500019,404.3453107499954,404.6452660829964,404.87866366699745,404.87866366699745,404.87866366699745,406.345569541998,406.345569541998,406.345569541998,406.345569541998,407.34496587500325,200003,006,2023-04-07_13h44.06.307,DMS_et_12-36,2022.2.4,None,
62,PRED,12,0.5359125165934148,1,images/picture_2.png,images/picture_1.png,0,"[11.733433509789462, -11.733433509789466]",11.733433509789462,-11.733433509789464,images/picture_2.png,1,"[11.733433509789464, 11.733433509789462]",11.733433509789464,11.733433509789462,images/picture_3.png,2,"[-11.733433509789462, 11.733433509789464]",-11.733433509789462,11.733433509789464,0,1,1,0.5359125165934148,1.5359125165934149,1.4640874834065851,3.0,1,1.2859125165934149,0,4.0,3.0,1,2,6,0,6,0,0,4,4,8,,,,,,,407.34496587500325,407.34496587500325,408.3451787499944,408.64564133300155,408.8788982919941,408.8788982919941,408.8788982919941,410.345504041994,410.345504041994,410.345504041994,410.345504041994,411.3453140829952,200003,006,2023-04-07_13h44.06.307,DMS_et_12-36,2022.2.4,None,
54,PRED,12,0.5359125165934148,1,images/picture_2.png,images/picture_1.png,0,"[-11.733433509789466, -11.733433509789462]",-11.733433509789464,-11.733433509789462,images/picture_2.png,1,"[-11.733433509789462, 11.733433509789464]",-11.733433509789462,11.733433509789464,images/picture_3.png,2,"[11.733433509789462, -11.733433509789466]",11.733433509789462,-11.733433509789464,0,1,1,0.5359125165934148,1.5359125165934149,1.4640874834065851,3.0,1,1.2859125165934149,0,4.0,3.0,1,2,6,0,6,0,0,5,5,0,,,,,,,411.3453140829952,411.3453140829952,412.3456457499997,412.6455013329978,412.8789189579984,412.8789189579984,412.8789189579984,414.34503404199495,414.34503404199495,414.34503404199495,414.34503404199495,415.3453626249975,200003,006,2023-04-07_13h44.06.307,DMS_et_12-36,2022.2.4,None,
59,PRED,12,0.5359125165934148,1,images/picture_2.png,images/picture_1.png,0,"[11.733433509789462, -11.733433509789466]",11.733433509789462,-11.733433509789464,images/picture_2.png,1,"[-11.733433509789466, -11.733433509789462]",-11.733433509789464,-11.733433509789462,images/picture_3.png,2,"[11.733433509789464, 11.733433509789462]",11.733433509789464,11.733433509789462,0,1,1,0.5359125165934148,1.5359125165934149,1.4640874834065851,3.0,1,1.2859125165934149,0,4.0,3.0,1,2,6,0,6,0,0,6,6,5,,,,,,,415.3453626249975,415.3453626249975,416.34548849999555,416.6456484579976,416.87895729199226,416.87895729199226,416.87895729199226,418.34560287499335,418.34560287499335,418.34560287499335,418.34560287499335,419.34500183300406,200003,006,2023-04-07_13h44.06.307,DMS_et_12-36,2022.2.4,None,
60,PRED,12,0.5359125165934148,1,images/picture_2.png,images/picture_1.png,0,"[11.733433509789464, 11.733433509789462]",11.733433509789464,11.733433509789462,images/picture_2.png,1,"[11.733433509789462, -11.733433509789466]",11.733433509789462,-11.733433509789464,images/picture_3.png,2,"[-11.733433509789466, -11.733433509789462]",-11.733433509789464,-11.733433509789462,0,1,1,0.5359125165934148,1.5359125165934149,1.4640874834065851,3.0,1,1.2859125165934149,0,4.0,3.0,1,2,6,0,6,0,0,7,7,6,,,,,,,419.34500183300406,419.34500183300406,420.34529174999625,420.6454253330012,420.8788898329949,420.8788898329949,420.8788898329949,422.34565320800175,422.34565320800175,422.34565320800175,422.34565320800175,423.34471683300217,200003,006,2023-04-07_13h44.06.307,DMS_et_12-36,2022.2.4,None,
56,PRED,12,0.5359125165934148,1,images/picture_2.png,images/picture_1.png,0,"[-11.733433509789462, 11.733433509789464]",-11.733433509789462,11.733433509789464,images/picture_2.png,1,"[11.733433509789464, 11.733433509789462]",11.733433509789464,11.733433509789462,images/picture_3.png,2,"[-11.733433509789466, -11.733433509789462]",-11.733433509789464,-11.733433509789462,0,1,1,0.5359125165934148,1.5359125165934149,1.4640874834065851,3.0,1,1.2859125165934149,0,4.0,3.0,1,2,6,0,6,0,0,8,8,2,,,,,,,423.34471683300217,423.34471683300217,424.34571983299975,424.6451417920034,424.87859020799806,424.87859020799806,424.87859020799806,426.34507924999343,426.34507924999343,426.34507924999343,426.34507924999343,427.4239571670041,200003,006,2023-04-07_13h44.06.307,DMS_et_12-36,2022.2.4,None,
,,,,,,,,,,,,,,,,,,,,,,,,,,,,,,,,,,,6,0,6,0,,,,,,,,,427.4239571670041,439.45168120799644,,,,,,,,,,,,,200003,006,2023-04-07_13h44.06.307,DMS_et_12-36,2022.2.4,None,
66,UNPRED,12,0.5359125165934148,0,images/picture_1.png,images/picture_1.png,0,"[11.733433509789464, 11.733433509789462]",11.733433509789464,11.733433509789462,images/picture_2.png,1,"[-11.733433509789462, 11.733433509789464]",-11.733433509789462,11.733433509789464,images/picture_3.png,2,"[11.733433509789462, -11.733433509789466]",11.733433509789462,-11.733433509789464,0,1,1,0.5359125165934148,1.5359125165934149,1.4640874834065851,3.0,1,1.2859125165934149,0,4.0,3.0,1,2,7,0,7,0,0,0,0,3,,,,,,,439.45168120799644,439.45168120799644,440.465091207996,440.7454873749957,440.97887191700283,440.97887191700283,440.97887191700283,442.4456463329989,442.4456463329989,442.4456463329989,442.4456463329989,443.4449663330015,200003,006,2023-04-07_13h44.06.307,DMS_et_12-36,2022.2.4,None,
71,UNPRED,12,0.5359125165934148,0,images/picture_1.png,images/picture_1.png,0,"[-11.733433509789466, -11.733433509789462]",-11.733433509789464,-11.733433509789462,images/picture_2.png,1,"[-11.733433509789462, 11.733433509789464]",-11.733433509789462,11.733433509789464,images/picture_3.png,2,"[11.733433509789462, -11.733433509789466]",11.733433509789462,-11.733433509789464,0,1,1,0.5359125165934148,1.5359125165934149,1.4640874834065851,3.0,1,1.2859125165934149,0,4.0,3.0,1,2,7,0,7,0,0,1,1,8,,,,,,,443.4449663330015,443.4449663330015,444.44528491700476,444.74566329199297,444.97877320800035,444.97877320800035,444.97877320800035,446.4454822080006,446.4454822080006,446.4454822080006,446.4454822080006,447.4449629169976,200003,006,2023-04-07_13h44.06.307,DMS_et_12-36,2022.2.4,None,
65,UNPRED,12,0.5359125165934148,0,images/picture_1.png,images/picture_1.png,0,"[11.733433509789462, -11.733433509789466]",11.733433509789462,-11.733433509789464,images/picture_2.png,1,"[11.733433509789464, 11.733433509789462]",11.733433509789464,11.733433509789462,images/picture_3.png,2,"[-11.733433509789466, -11.733433509789462]",-11.733433509789464,-11.733433509789462,0,1,1,0.5359125165934148,1.5359125165934149,1.4640874834065851,3.0,1,1.2859125165934149,0,4.0,3.0,1,2,7,0,7,0,0,2,2,2,,,,,,,447.4449629169976,447.4449629169976,448.44565291699837,448.74542329199903,448.97888054199575,448.97888054199575,448.97888054199575,450.44518020800024,450.44518020800024,450.44518020800024,450.44518020800024,451.4642753329972,200003,006,2023-04-07_13h44.06.307,DMS_et_12-36,2022.2.4,None,
70,UNPRED,12,0.5359125165934148,2,images/picture_3.png,images/picture_1.png,0,"[11.733433509789462, -11.733433509789466]",11.733433509789462,-11.733433509789464,images/picture_2.png,1,"[-11.733433509789462, 11.733433509789464]",-11.733433509789462,11.733433509789464,images/picture_3.png,2,"[-11.733433509789466, -11.733433509789462]",-11.733433509789464,-11.733433509789462,0,1,1,0.5359125165934148,1.5359125165934149,1.4640874834065851,3.0,1,1.2859125165934149,0,4.0,3.0,1,2,7,0,7,0,0,3,3,7,,,,,,,451.4642753329972,451.4642753329972,452.4789277499949,452.7647149580007,452.9789552500006,452.9789552500006,452.9789552500006,454.4452940829942,454.4452940829942,454.4452940829942,454.4452940829942,455.4452173329919,200003,006,2023-04-07_13h44.06.307,DMS_et_12-36,2022.2.4,None,
67,UNPRED,12,0.5359125165934148,0,images/picture_1.png,images/picture_1.png,0,"[-11.733433509789462, 11.733433509789464]",-11.733433509789462,11.733433509789464,images/picture_2.png,1,"[11.733433509789464, 11.733433509789462]",11.733433509789464,11.733433509789462,images/picture_3.png,2,"[-11.733433509789466, -11.733433509789462]",-11.733433509789464,-11.733433509789462,0,1,1,0.5359125165934148,1.5359125165934149,1.4640874834065851,3.0,1,1.2859125165934149,0,4.0,3.0,1,2,7,0,7,0,0,4,4,4,,,,,,,455.4452173329919,455.4452173329919,456.44502962499973,456.74563454199233,456.9789341669966,456.9789341669966,456.9789341669966,458.4454423749994,458.4454423749994,458.4454423749994,458.4454423749994,459.46385991699935,200003,006,2023-04-07_13h44.06.307,DMS_et_12-36,2022.2.4,None,
68,UNPRED,12,0.5359125165934148,2,images/picture_3.png,images/picture_1.png,0,"[-11.733433509789462, 11.733433509789464]",-11.733433509789462,11.733433509789464,images/picture_2.png,1,"[11.733433509789462, -11.733433509789466]",11.733433509789462,-11.733433509789464,images/picture_3.png,2,"[-11.733433509789466, -11.733433509789462]",-11.733433509789464,-11.733433509789462,0,1,1,0.5359125165934148,1.5359125165934149,1.4640874834065851,3.0,1,1.2859125165934149,0,4.0,3.0,1,2,7,0,7,0,0,5,5,5,,,,,,,459.46385991699935,459.46385991699935,460.47893266699975,460.76476808299776,460.9789697499946,460.9789697499946,460.9789697499946,462.4451107499917,462.4451107499917,462.4451107499917,462.4451107499917,463.44521550000354,200003,006,2023-04-07_13h44.06.307,DMS_et_12-36,2022.2.4,None,
64,UNPRED,12,0.5359125165934148,0,images/picture_1.png,images/picture_1.png,0,"[-11.733433509789466, -11.733433509789462]",-11.733433509789464,-11.733433509789462,images/picture_2.png,1,"[11.733433509789464, 11.733433509789462]",11.733433509789464,11.733433509789462,images/picture_3.png,2,"[11.733433509789462, -11.733433509789466]",11.733433509789462,-11.733433509789464,0,1,1,0.5359125165934148,1.5359125165934149,1.4640874834065851,3.0,1,1.2859125165934149,0,4.0,3.0,1,2,7,0,7,0,0,6,6,1,,,,,,,463.44521550000354,463.44521550000354,464.4453450830042,464.74561729199195,464.9789149999997,464.9789149999997,464.9789149999997,466.4454328749998,466.4454328749998,466.4454328749998,466.4454328749998,467.4450310829998,200003,006,2023-04-07_13h44.06.307,DMS_et_12-36,2022.2.4,None,
63,UNPRED,12,0.5359125165934148,0,images/picture_1.png,images/picture_1.png,0,"[11.733433509789464, 11.733433509789462]",11.733433509789464,11.733433509789462,images/picture_2.png,1,"[-11.733433509789466, -11.733433509789462]",-11.733433509789464,-11.733433509789462,images/picture_3.png,2,"[11.733433509789462, -11.733433509789466]",11.733433509789462,-11.733433509789464,0,1,1,0.5359125165934148,1.5359125165934149,1.4640874834065851,3.0,1,1.2859125165934149,0,4.0,3.0,1,2,7,0,7,0,0,7,7,0,,,,,,,467.4450310829998,467.4450310829998,468.44507787500334,468.7456679579918,468.9788804999989,468.9788804999989,468.9788804999989,470.4454482500005,470.4454482500005,470.4454482500005,470.4454482500005,471.4451007500029,200003,006,2023-04-07_13h44.06.307,DMS_et_12-36,2022.2.4,None,
69,UNPRED,12,0.5359125165934148,0,images/picture_1.png,images/picture_1.png,0,"[11.733433509789462, -11.733433509789466]",11.733433509789462,-11.733433509789464,images/picture_2.png,1,"[-11.733433509789466, -11.733433509789462]",-11.733433509789464,-11.733433509789462,images/picture_3.png,2,"[11.733433509789464, 11.733433509789462]",11.733433509789464,11.733433509789462,0,1,1,0.5359125165934148,1.5359125165934149,1.4640874834065851,3.0,1,1.2859125165934149,0,4.0,3.0,1,2,7,0,7,0,0,8,8,6,,,,,,,471.4451007500029,471.4451007500029,472.4454577919969,472.7454093749984,472.9789511669951,472.9789511669951,472.9789511669951,474.44508929199947,474.44508929199947,474.44508929199947,474.44508929199947,475.5355995419959,200003,006,2023-04-07_13h44.06.307,DMS_et_12-36,2022.2.4,None,
,,,,,,,,,,,,,,,,,,,,,,,,,,,,,,,,,,,7,0,7,0,,,,,,,,,475.5355995419959,487.5704020830017,,,,,,,,,,,,,200003,006,2023-04-07_13h44.06.307,DMS_et_12-36,2022.2.4,None,
78,PRED,12,0.5359125165934148,1,images/picture_2.png,images/picture_1.png,0,"[11.733433509789464, 11.733433509789462]",11.733433509789464,11.733433509789462,images/picture_2.png,1,"[-11.733433509789466, -11.733433509789462]",-11.733433509789464,-11.733433509789462,images/picture_3.png,2,"[-11.733433509789462, 11.733433509789464]",-11.733433509789462,11.733433509789464,0,1,1,0.5359125165934148,1.5359125165934149,1.4640874834065851,3.0,1,1.2859125165934149,0,4.0,3.0,1,2,8,0,8,0,0,0,0,6,,,,,,,487.5704020830017,487.5704020830017,488.57892433299276,488.86484104199917,489.0982136669918,489.0982136669918,489.0982136669918,490.5650558750058,490.5650558750058,490.5650558750058,490.5650558750058,491.5782695420057,200003,006,2023-04-07_13h44.06.307,DMS_et_12-36,2022.2.4,None,
80,PRED,12,0.5359125165934148,1,images/picture_2.png,images/picture_1.png,0,"[11.733433509789464, 11.733433509789462]",11.733433509789464,11.733433509789462,images/picture_2.png,1,"[11.733433509789462, -11.733433509789466]",11.733433509789462,-11.733433509789464,images/picture_3.png,2,"[-11.733433509789466, -11.733433509789462]",-11.733433509789464,-11.733433509789462,0,1,1,0.5359125165934148,1.5359125165934149,1.4640874834065851,3.0,1,1.2859125165934149,0,4.0,3.0,1,2,8,0,8,0,0,1,1,8,,,,,,,491.5782695420057,491.5782695420057,492.57893916699686,492.8788979999954,493.11219045799226,493.11219045799226,493.11219045799226,494.57885541699943,494.57885541699943,494.57885541699943,494.57885541699943,495.5784977500007,200003,006,2023-04-07_13h44.06.307,DMS_et_12-36,2022.2.4,None,
73,PRED,12,0.5359125165934148,1,images/picture_2.png,images/picture_1.png,0,"[11.733433509789462, -11.733433509789466]",11.733433509789462,-11.733433509789464,images/picture_2.png,1,"[11.733433509789464, 11.733433509789462]",11.733433509789464,11.733433509789462,images/picture_3.png,2,"[-11.733433509789462, 11.733433509789464]",-11.733433509789462,11.733433509789464,0,1,1,0.5359125165934148,1.5359125165934149,1.4640874834065851,3.0,1,1.2859125165934149,0,4.0,3.0,1,2,8,0,8,0,0,2,2,1,,,,,,,495.5784977500007,495.5784977500007,496.57859120800276,496.87871666699357,497.1121075830015,497.1121075830015,497.1121075830015,498.57887887499237,498.57887887499237,498.57887887499237,498.57887887499237,499.5782871669944,200003,006,2023-04-07_13h44.06.307,DMS_et_12-36,2022.2.4,None,
79,PRED,12,0.5359125165934148,1,images/picture_2.png,images/picture_1.png,0,"[11.733433509789464, 11.733433509789462]",11.733433509789464,11.733433509789462,images/picture_2.png,1,"[11.733433509789462, -11.733433509789466]",11.733433509789462,-11.733433509789464,images/picture_3.png,2,"[-11.733433509789466, -11.733433509789462]",-11.733433509789464,-11.733433509789462,0,1,1,0.5359125165934148,1.5359125165934149,1.4640874834065851,3.0,1,1.2859125165934149,0,4.0,3.0,1,2,8,0,8,0,0,3,3,7,,,,,,,499.5782871669944,499.5782871669944,500.57888825000555,500.87897933299246,501.1121851670032,501.1121851670032,501.1121851670032,502.57888795799227,502.57888795799227,502.57888795799227,502.57888795799227,503.57875074999174,200003,006,2023-04-07_13h44.06.307,DMS_et_12-36,2022.2.4,None,
76,PRED,12,0.5359125165934148,1,images/picture_2.png,images/picture_1.png,0,"[11.733433509789464, 11.733433509789462]",11.733433509789464,11.733433509789462,images/picture_2.png,1,"[-11.733433509789466, -11.733433509789462]",-11.733433509789464,-11.733433509789462,images/picture_3.png,2,"[-11.733433509789462, 11.733433509789464]",-11.733433509789462,11.733433509789464,0,1,1,0.5359125165934148,1.5359125165934149,1.4640874834065851,3.0,1,1.2859125165934149,0,4.0,3.0,1,2,8,0,8,0,0,4,4,4,,,,,,,503.57875074999174,503.57875074999174,504.57895208300033,504.87888520800334,505.1122142499953,505.1122142499953,505.1122142499953,506.57869258300343,506.57869258300343,506.57869258300343,506.57869258300343,507.57864191700355,200003,006,2023-04-07_13h44.06.307,DMS_et_12-36,2022.2.4,None,
77,PRED,12,0.5359125165934148,1,images/picture_2.png,images/picture_1.png,0,"[11.733433509789462, -11.733433509789466]",11.733433509789462,-11.733433509789464,images/picture_2.png,1,"[11.733433509789464, 11.733433509789462]",11.733433509789464,11.733433509789462,images/picture_3.png,2,"[-11.733433509789462, 11.733433509789464]",-11.733433509789462,11.733433509789464,0,1,1,0.5359125165934148,1.5359125165934149,1.4640874834065851,3.0,1,1.2859125165934149,0,4.0,3.0,1,2,8,0,8,0,0,5,5,5,,,,,,,507.57864191700355,507.57864191700355,508.57901562500047,508.8788777919981,509.1121899169957,509.1121899169957,509.1121899169957,510.57899987499695,510.57899987499695,510.57899987499695,510.57899987499695,511.5784219999914,200003,006,2023-04-07_13h44.06.307,DMS_et_12-36,2022.2.4,None,
74,PRED,12,0.5359125165934148,1,images/picture_2.png,images/picture_1.png,0,"[-11.733433509789462, 11.733433509789464]",-11.733433509789462,11.733433509789464,images/picture_2.png,1,"[11.733433509789464, 11.733433509789462]",11.733433509789464,11.733433509789462,images/picture_3.png,2,"[-11.733433509789466, -11.733433509789462]",-11.733433509789464,-11.733433509789462,0,1,1,0.5359125165934148,1.5359125165934149,1.4640874834065851,3.0,1,1.2859125165934149,0,4.0,3.0,1,2,8,0,8,0,0,6,6,2,,,,,,,511.5784219999914,511.5784219999914,512.5788751249929,512.8788797919988,513.1121435829991,513.1121435829991,513.1121435829991,514.5789027919964,514.5789027919964,514.5789027919964,514.5789027919964,515.5781329579913,200003,006,2023-04-07_13h44.06.307,DMS_et_12-36,2022.2.4,None,
72,PRED,12,0.5359125165934148,1,images/picture_2.png,images/picture_1.png,0,"[-11.733433509789466, -11.733433509789462]",-11.733433509789464,-11.733433509789462,images/picture_2.png,1,"[-11.733433509789462, 11.733433509789464]",-11.733433509789462,11.733433509789464,images/picture_3.png,2,"[11.733433509789462, -11.733433509789466]",11.733433509789462,-11.733433509789464,0,1,1,0.5359125165934148,1.5359125165934149,1.4640874834065851,3.0,1,1.2859125165934149,0,4.0,3.0,1,2,8,0,8,0,0,7,7,0,,,,,,,515.5781329579913,515.5781329579913,516.5788917919999,516.8785624169977,517.1120384999958,517.1120384999958,517.1120384999958,518.5791004999919,518.5791004999919,518.5791004999919,518.5791004999919,519.5778603329964,200003,006,2023-04-07_13h44.06.307,DMS_et_12-36,2022.2.4,None,
75,PRED,12,0.5359125165934148,1,images/picture_2.png,images/picture_1.png,0,"[-11.733433509789466, -11.733433509789462]",-11.733433509789464,-11.733433509789462,images/picture_2.png,1,"[11.733433509789462, -11.733433509789466]",11.733433509789462,-11.733433509789464,images/picture_3.png,2,"[11.733433509789464, 11.733433509789462]",11.733433509789464,11.733433509789462,0,1,1,0.5359125165934148,1.5359125165934149,1.4640874834065851,3.0,1,1.2859125165934149,0,4.0,3.0,1,2,8,0,8,0,0,8,8,3,,,,,,,519.5778603329964,519.5778603329964,520.5789217080019,520.8788729579974,521.1121282079985,521.1121282079985,521.1121282079985,522.5789207500056,522.5789207500056,522.5789207500056,522.5789207500056,523.6749815420044,200003,006,2023-04-07_13h44.06.307,DMS_et_12-36,2022.2.4,None,
,,,,,,,,,,,,,,,,,,,,,,,,,,,,,,,,,,,8,0,8,0,,,,,,,,,523.6749815420044,535.7022224579996,,,,,,,,,,,,,200003,006,2023-04-07_13h44.06.307,DMS_et_12-36,2022.2.4,None,
87,UNPRED,12,0.5359125165934148,1,images/picture_2.png,images/picture_1.png,0,"[11.733433509789464, 11.733433509789462]",11.733433509789464,11.733433509789462,images/picture_2.png,1,"[-11.733433509789462, 11.733433509789464]",-11.733433509789462,11.733433509789464,images/picture_3.png,2,"[11.733433509789462, -11.733433509789466]",11.733433509789462,-11.733433509789464,0,1,1,0.5359125165934148,1.5359125165934149,1.4640874834065851,3.0,1,1.2859125165934149,0,4.0,3.0,1,2,9,0,9,0,0,0,0,6,,,,,,,535.7022224579996,535.7022224579996,536.7122145419999,536.9976658329979,537.231588249997,537.231588249997,537.231588249997,538.698091667,538.698091667,538.698091667,538.698091667,539.7315052920021,200003,006,2023-04-07_13h44.06.307,DMS_et_12-36,2022.2.4,None,
88,UNPRED,12,0.5359125165934148,2,images/picture_3.png,images/picture_1.png,0,"[11.733433509789464, 11.733433509789462]",11.733433509789464,11.733433509789462,images/picture_2.png,1,"[11.733433509789462, -11.733433509789466]",11.733433509789462,-11.733433509789464,images/picture_3.png,2,"[-11.733433509789466, -11.733433509789462]",-11.733433509789464,-11.733433509789462,0,1,1,0.5359125165934148,1.5359125165934149,1.4640874834065851,3.0,1,1.2859125165934149,0,4.0,3.0,1,2,9,0,9,0,0,1,1,7,,,,,,,539.7315052920021,539.7315052920021,540.7454666249978,541.0312336249917,541.2457139170001,541.2457139170001,541.2457139170001,542.7122672499972,542.7122672499972,542.7122672499972,542.7122672499972,543.712036500001,200003,006,2023-04-07_13h44.06.307,DMS_et_12-36,2022.2.4,None,
83,UNPRED,12,0.5359125165934148,1,images/picture_2.png,images/picture_1.png,0,"[-11.733433509789462, 11.733433509789464]",-11.733433509789462,11.733433509789464,images/picture_2.png,1,"[11.733433509789464, 11.733433509789462]",11.733433509789464,11.733433509789462,images/picture_3.png,2,"[11.733433509789462, -11.733433509789466]",11.733433509789462,-11.733433509789464,0,1,1,0.5359125165934148,1.5359125165934149,1.4640874834065851,3.0,1,1.2859125165934149,0,4.0,3.0,1,2,9,0,9,0,0,2,2,2,,,,,,,543.712036500001,543.712036500001,544.7121844170033,545.0121574170043,545.245457750003,545.245457750003,545.245457750003,546.7122395829938,546.7122395829938,546.7122395829938,546.7122395829938,547.7118849580002,200003,006,2023-04-07_13h44.06.307,DMS_et_12-36,2022.2.4,None,
85,UNPRED,12,0.5359125165934148,1,images/picture_2.png,images/picture_1.png,0,"[-11.733433509789462, 11.733433509789464]",-11.733433509789462,11.733433509789464,images/picture_2.png,1,"[11.733433509789462, -11.733433509789466]",11.733433509789462,-11.733433509789464,images/picture_3.png,2,"[-11.733433509789466, -11.733433509789462]",-11.733433509789464,-11.733433509789462,0,1,1,0.5359125165934148,1.5359125165934149,1.4640874834065851,3.0,1,1.2859125165934149,0,4.0,3.0,1,2,9,0,9,0,0,3,3,4,,,,,,,547.7118849580002,547.7118849580002,548.7119924580038,549.0122005830053,549.2454808750044,549.2454808750044,549.2454808750044,550.7121830419928,550.7121830419928,550.7121830419928,550.7121830419928,551.7121152920008,200003,006,2023-04-07_13h44.06.307,DMS_et_12-36,2022.2.4,None,
82,UNPRED,12,0.5359125165934148,1,images/picture_2.png,images/picture_1.png,0,"[-11.733433509789466, -11.733433509789462]",-11.733433509789464,-11.733433509789462,images/picture_2.png,1,"[11.733433509789464, 11.733433509789462]",11.733433509789464,11.733433509789462,images/picture_3.png,2,"[-11.733433509789462, 11.733433509789464]",-11.733433509789462,11.733433509789464,0,1,1,0.5359125165934148,1.5359125165934149,1.4640874834065851,3.0,1,1.2859125165934149,0,4.0,3.0,1,2,9,0,9,0,0,4,4,1,,,,,,,551.7121152920008,551.7121152920008,552.7122992079967,553.012163249994,553.2454975419969,553.2454975419969,553.2454975419969,554.7124017919996,554.7124017919996,554.7124017919996,554.7124017919996,555.730903417003,200003,006,2023-04-07_13h44.06.307,DMS_et_12-36,2022.2.4,None,
86,UNPRED,12,0.5359125165934148,2,images/picture_3.png,images/picture_1.png,0,"[-11.733433509789462, 11.733433509789464]",-11.733433509789462,11.733433509789464,images/picture_2.png,1,"[11.733433509789464, 11.733433509789462]",11.733433509789464,11.733433509789462,images/picture_3.png,2,"[-11.733433509789466, -11.733433509789462]",-11.733433509789464,-11.733433509789462,0,1,1,0.5359125165934148,1.5359125165934149,1.4640874834065851,3.0,1,1.2859125165934149,0,4.0,3.0,1,2,9,0,9,0,0,5,5,5,,,,,,,555.730903417003,555.730903417003,556.7456105419988,557.0312047079933,557.2455755419942,557.2455755419942,557.2455755419942,558.7120184170053,558.7120184170053,558.7120184170053,558.7120184170053,559.7308506669942,200003,006,2023-04-07_13h44.06.307,DMS_et_12-36,2022.2.4,None,
84,UNPRED,12,0.5359125165934148,2,images/picture_3.png,images/picture_1.png,0,"[11.733433509789462, -11.733433509789466]",11.733433509789462,-11.733433509789464,images/picture_2.png,1,"[-11.733433509789466, -11.733433509789462]",-11.733433509789464,-11.733433509789462,images/picture_3.png,2,"[11.733433509789464, 11.733433509789462]",11.733433509789464,11.733433509789462,0,1,1,0.5359125165934148,1.5359125165934149,1.4640874834065851,3.0,1,1.2859125165934149,0,4.0,3.0,1,2,9,0,9,0,0,6,6,3,,,,,,,559.7308506669942,559.7308506669942,560.7456316250027,561.0313792079978,561.2456115829991,561.2456115829991,561.2456115829991,562.7122373330058,562.7122373330058,562.7122373330058,562.7122373330058,563.7117751670012,200003,006,2023-04-07_13h44.06.307,DMS_et_12-36,2022.2.4,None,
81,UNPRED,12,0.5359125165934148,0,images/picture_1.png,images/picture_1.png,0,"[-11.733433509789462, 11.733433509789464]",-11.733433509789462,11.733433509789464,images/picture_2.png,1,"[11.733433509789462, -11.733433509789466]",11.733433509789462,-11.733433509789464,images/picture_3.png,2,"[11.733433509789464, 11.733433509789462]",11.733433509789464,11.733433509789462,0,1,1,0.5359125165934148,1.5359125165934149,1.4640874834065851,3.0,1,1.2859125165934149,0,4.0,3.0,1,2,9,0,9,0,0,7,7,0,,,,,,,563.7117751670012,563.7117751670012,564.7121465829987,565.0121901669918,565.2454807500035,565.2454807500035,565.2454807500035,566.7123884579923,566.7123884579923,566.7123884579923,566.7123884579923,567.7119533749938,200003,006,2023-04-07_13h44.06.307,DMS_et_12-36,2022.2.4,None,
89,UNPRED,12,0.5359125165934148,0,images/picture_1.png,images/picture_1.png,0,"[-11.733433509789466, -11.733433509789462]",-11.733433509789464,-11.733433509789462,images/picture_2.png,1,"[11.733433509789464, 11.733433509789462]",11.733433509789464,11.733433509789462,images/picture_3.png,2,"[11.733433509789462, -11.733433509789466]",11.733433509789462,-11.733433509789464,0,1,1,0.5359125165934148,1.5359125165934149,1.4640874834065851,3.0,1,1.2859125165934149,0,4.0,3.0,1,2,9,0,9,0,0,8,8,8,,,,,,,567.7119533749938,567.7119533749938,568.711932249993,569.0120445829962,569.2453467500018,569.2453467500018,569.2453467500018,570.7121937920019,570.7121937920019,570.7121937920019,570.7121937920019,571.8152437919925,200003,006,2023-04-07_13h44.06.307,DMS_et_12-36,2022.2.4,None,
,,,,,,,,,,,,,,,,,,,,,,,,,,,,,,,,,,,9,0,9,0,,,,,,,,,571.8152437919925,583.8369315000018,,,,,,,,,,,,,200003,006,2023-04-07_13h44.06.307,DMS_et_12-36,2022.2.4,None,
92,PRED,12,0.5359125165934148,0,images/picture_1.png,images/picture_1.png,0,"[11.733433509789464, 11.733433509789462]",11.733433509789464,11.733433509789462,images/picture_2.png,1,"[11.733433509789462, -11.733433509789466]",11.733433509789462,-11.733433509789464,images/picture_3.png,2,"[-11.733433509789462, 11.733433509789464]",-11.733433509789462,11.733433509789464,0,1,1,0.5359125165934148,1.5359125165934149,1.4640874834065851,3.0,1,1.2859125165934149,0,4.0,3.0,1,2,10,0,10,0,0,0,0,2,,,,,,,583.8369315000018,583.8369315000018,584.8455627079966,585.1314344999992,585.3784308329923,585.3784308329923,585.3784308329923,586.8456739579997,586.8456739579997,586.8456739579997,586.8314864999993,587.8449880830012,200003,006,2023-04-07_13h44.06.307,DMS_et_12-36,2022.2.4,None,
98,PRED,12,0.5359125165934148,0,images/picture_1.png,images/picture_1.png,0,"[11.733433509789464, 11.733433509789462]",11.733433509789464,11.733433509789462,images/picture_2.png,1,"[-11.733433509789462, 11.733433509789464]",-11.733433509789462,11.733433509789464,images/picture_3.png,2,"[11.733433509789462, -11.733433509789466]",11.733433509789462,-11.733433509789464,0,1,1,0.5359125165934148,1.5359125165934149,1.4640874834065851,3.0,1,1.2859125165934149,0,4.0,3.0,1,2,10,0,10,0,0,1,1,8,,,,,,,587.8449880830012,587.8449880830012,588.8451895420003,589.1450717499974,589.3786834170023,589.3786834170023,589.3786834170023,590.8457412080024,590.8457412080024,590.8457412080024,590.8457412080024,591.845001624999,200003,006,2023-04-07_13h44.06.307,DMS_et_12-36,2022.2.4,None,
97,PRED,12,0.5359125165934148,0,images/picture_1.png,images/picture_1.png,0,"[11.733433509789462, -11.733433509789466]",11.733433509789462,-11.733433509789464,images/picture_2.png,1,"[-11.733433509789462, 11.733433509789464]",-11.733433509789462,11.733433509789464,images/picture_3.png,2,"[-11.733433509789466, -11.733433509789462]",-11.733433509789464,-11.733433509789462,0,1,1,0.5359125165934148,1.5359125165934149,1.4640874834065851,3.0,1,1.2859125165934149,0,4.0,3.0,1,2,10,0,10,0,0,2,2,7,,,,,,,591.845001624999,591.845001624999,592.8456110419938,593.1457054999919,593.3789049170009,593.3789049170009,593.3789049170009,594.8454325000057,594.8454325000057,594.8454325000057,594.8454325000057,595.8449729169952,200003,006,2023-04-07_13h44.06.307,DMS_et_12-36,2022.2.4,None,
95,PRED,12,0.5359125165934148,0,images/picture_1.png,images/picture_1.png,0,"[11.733433509789464, 11.733433509789462]",11.733433509789464,11.733433509789462,images/picture_2.png,1,"[-11.733433509789466, -11.733433509789462]",-11.733433509789464,-11.733433509789462,images/picture_3.png,2,"[11.733433509789462, -11.733433509789466]",11.733433509789462,-11.733433509789464,0,1,1,0.5359125165934148,1.5359125165934149,1.4640874834065851,3.0,1,1.2859125165934149,0,4.0,3.0,1,2,10,0,10,0,0,3,3,5,,,,,,,595.8449729169952,595.8449729169952,596.8454570829927,597.1456800419983,597.3784925829968,597.3784925829968,597.3784925829968,598.8456147499965,598.8456147499965,598.8456147499965,598.8456147499965,599.8453124579974,200003,006,2023-04-07_13h44.06.307,DMS_et_12-36,2022.2.4,None,
90,PRED,12,0.5359125165934148,0,images/picture_1.png,images/picture_1.png,0,"[-11.733433509789462, 11.733433509789464]",-11.733433509789462,11.733433509789464,images/picture_2.png,1,"[11.733433509789464, 11.733433509789462]",11.733433509789464,11.733433509789462,images/picture_3.png,2,"[11.733433509789462, -11.733433509789466]",11.733433509789462,-11.733433509789464,0,1,1,0.5359125165934148,1.5359125165934149,1.4640874834065851,3.0,1,1.2859125165934149,0,4.0,3.0,1,2,10,0,10,0,0,4,4,0,,,,,,,599.8453124579974,599.8453124579974,600.8456205419934,601.1456596249918,601.3788956670032,601.3788956670032,601.3788956670032,602.8454851669958,602.8454851669958,602.8454851669958,602.8454851669958,603.8451059579966,200003,006,2023-04-07_13h44.06.307,DMS_et_12-36,2022.2.4,None,
94,PRED,12,0.5359125165934148,0,images/picture_1.png,images/picture_1.png,0,"[-11.733433509789466, -11.733433509789462]",-11.733433509789464,-11.733433509789462,images/picture_2.png,1,"[11.733433509789462, -11.733433509789466]",11.733433509789462,-11.733433509789464,images/picture_3.png,2,"[-11.733433509789462, 11.733433509789464]",-11.733433509789462,11.733433509789464,0,1,1,0.5359125165934148,1.5359125165934149,1.4640874834065851,3.0,1,1.2859125165934149,0,4.0,3.0,1,2,10,0,10,0,0,5,5,4,,,,,,,603.8451059579966,603.8451059579966,604.8452509579947,605.1454647499922,605.3789268330002,605.3789268330002,605.3789268330002,606.8456896249991,606.8456896249991,606.8456896249991,606.8456896249991,607.8449492920045,200003,006,2023-04-07_13h44.06.307,DMS_et_12-36,2022.2.4,None,
96,PRED,12,0.5359125165934148,0,images/picture_1.png,images/picture_1.png,0,"[11.733433509789462, -11.733433509789466]",11.733433509789462,-11.733433509789464,images/picture_2.png,1,"[-11.733433509789466, -11.733433509789462]",-11.733433509789464,-11.733433509789462,images/picture_3.png,2,"[11.733433509789464, 11.733433509789462]",11.733433509789464,11.733433509789462,0,1,1,0.5359125165934148,1.5359125165934149,1.4640874834065851,3.0,1,1.2859125165934149,0,4.0,3.0,1,2,10,0,10,0,0,6,6,6,,,,,,,607.8449492920045,607.8449492920045,608.8456402500015,609.145631499996,609.3784476669971,609.3784476669971,609.3784476669971,610.8456529999967,610.8456529999967,610.8456529999967,610.8456529999967,611.8450099579932,200003,006,2023-04-07_13h44.06.307,DMS_et_12-36,2022.2.4,None,
91,PRED,12,0.5359125165934148,0,images/picture_1.png,images/picture_1.png,0,"[11.733433509789464, 11.733433509789462]",11.733433509789464,11.733433509789462,images/picture_2.png,1,"[-11.733433509789462, 11.733433509789464]",-11.733433509789462,11.733433509789464,images/picture_3.png,2,"[11.733433509789462, -11.733433509789466]",11.733433509789462,-11.733433509789464,0,1,1,0.5359125165934148,1.5359125165934149,1.4640874834065851,3.0,1,1.2859125165934149,0,4.0,3.0,1,2,10,0,10,0,0,7,7,1,,,,,,,611.8450099579932,611.8450099579932,612.8456810829957,613.1456300419959,613.3789633330016,613.3789633330016,613.3789633330016,614.8454692499945,614.8454692499945,614.8454692499945,614.8454692499945,615.8451608750038,200003,006,2023-04-07_13h44.06.307,DMS_et_12-36,2022.2.4,None,
93,PRED,12,0.5359125165934148,0,images/picture_1.png,images/picture_1.png,0,"[11.733433509789464, 11.733433509789462]",11.733433509789464,11.733433509789462,images/picture_2.png,1,"[-11.733433509789462, 11.733433509789464]",-11.733433509789462,11.733433509789464,images/picture_3.png,2,"[11.733433509789462, -11.733433509789466]",11.733433509789462,-11.733433509789464,0,1,1,0.5359125165934148,1.5359125165934149,1.4640874834065851,3.0,1,1.2859125165934149,0,4.0,3.0,1,2,10,0,10,0,0,8,8,3,,,,,,,615.8451608750038,615.8451608750038,616.845618583,617.1456280419952,617.3790227499994,617.3790227499994,617.3790227499994,618.8456611250003,618.8456611250003,618.8456611250003,618.8456611250003,619.9394712079957,200003,006,2023-04-07_13h44.06.307,DMS_et_12-36,2022.2.4,None,
,,,,,,,,,,,,,,,,,,,,,,,,,,,,,,,,,,,10,0,10,0,,,,,,,,,619.9394712079957,631.9812185420014,,,,,,,,,,,,,200003,006,2023-04-07_13h44.06.307,DMS_et_12-36,2022.2.4,None,
106,UNPRED,12,0.5359125165934148,2,images/picture_3.png,images/picture_1.png,0,"[-11.733433509789462, 11.733433509789464]",-11.733433509789462,11.733433509789464,images/picture_2.png,1,"[-11.733433509789466, -11.733433509789462]",-11.733433509789464,-11.733433509789462,images/picture_3.png,2,"[11.733433509789464, 11.733433509789462]",11.733433509789464,11.733433509789462,0,1,1,0.5359125165934148,1.5359125165934149,1.4640874834065851,3.0,1,1.2859125165934149,0,4.0,3.0,1,2,11,0,11,0,0,0,0,7,,,,,,,631.9812185420014,631.9812185420014,632.978932375001,633.2789608329913,633.5122059999994,633.5122059999994,633.5122059999994,634.9789402079914,634.9789402079914,634.9789402079914,634.9651633750036,635.9783313329972,200003,006,2023-04-07_13h44.06.307,DMS_et_12-36,2022.2.4,None,
107,UNPRED,12,0.5359125165934148,0,images/picture_1.png,images/picture_1.png,0,"[11.733433509789462, -11.733433509789466]",11.733433509789462,-11.733433509789464,images/picture_2.png,1,"[11.733433509789464, 11.733433509789462]",11.733433509789464,11.733433509789462,images/picture_3.png,2,"[-11.733433509789466, -11.733433509789462]",-11.733433509789464,-11.733433509789462,0,1,1,0.5359125165934148,1.5359125165934149,1.4640874834065851,3.0,1,1.2859125165934149,0,4.0,3.0,1,2,11,0,11,0,0,1,1,8,,,,,,,635.9783313329972,635.9783313329972,636.9790722079924,637.2788737499941,637.5123734579975,637.5123734579975,637.5123734579975,638.9788929579954,638.9788929579954,638.9788929579954,638.9788929579954,639.9978107920033,200003,006,2023-04-07_13h44.06.307,DMS_et_12-36,2022.2.4,None,
105,UNPRED,12,0.5359125165934148,2,images/picture_3.png,images/picture_1.png,0,"[11.733433509789464, 11.733433509789462]",11.733433509789464,11.733433509789462,images/picture_2.png,1,"[-11.733433509789466, -11.733433509789462]",-11.733433509789464,-11.733433509789462,images/picture_3.png,2,"[11.733433509789462, -11.733433509789466]",11.733433509789462,-11.733433509789464,0,1,1,0.5359125165934148,1.5359125165934149,1.4640874834065851,3.0,1,1.2859125165934149,0,4.0,3.0,1,2,11,0,11,0,0,2,2,6,,,,,,,639.9978107920033,639.9978107920033,641.0119803330017,641.2984224999964,641.5121652919916,641.5121652919916,641.5121652919916,642.9787475829944,642.9787475829944,642.9787475829944,642.9787475829944,643.9983766670048,200003,006,2023-04-07_13h44.06.307,DMS_et_12-36,2022.2.4,None,
100,UNPRED,12,0.5359125165934148,2,images/picture_3.png,images/picture_1.png,0,"[-11.733433509789462, 11.733433509789464]",-11.733433509789462,11.733433509789464,images/picture_2.png,1,"[11.733433509789462, -11.733433509789466]",11.733433509789462,-11.733433509789464,images/picture_3.png,2,"[11.733433509789464, 11.733433509789462]",11.733433509789464,11.733433509789462,0,1,1,0.5359125165934148,1.5359125165934149,1.4640874834065851,3.0,1,1.2859125165934149,0,4.0,3.0,1,2,11,0,11,0,0,3,3,1,,,,,,,643.9983766670048,643.9983766670048,645.0122233330039,645.2984383750008,645.512221041994,645.512221041994,645.512221041994,646.9789184580004,646.9789184580004,646.9789184580004,646.9789184580004,647.9778068330052,200003,006,2023-04-07_13h44.06.307,DMS_et_12-36,2022.2.4,None,
102,UNPRED,12,0.5359125165934148,0,images/picture_1.png,images/picture_1.png,0,"[-11.733433509789466, -11.733433509789462]",-11.733433509789464,-11.733433509789462,images/picture_2.png,1,"[11.733433509789462, -11.733433509789466]",11.733433509789462,-11.733433509789464,images/picture_3.png,2,"[11.733433509789464, 11.733433509789462]",11.733433509789464,11.733433509789462,0,1,1,0.5359125165934148,1.5359125165934149,1.4640874834065851,3.0,1,1.2859125165934149,0,4.0,3.0,1,2,11,0,11,0,0,4,4,3,,,,,,,647.9778068330052,647.9778068330052,648.9789003329934,649.278992749998,649.512218207994,649.512218207994,649.512218207994,650.9786152919987,650.9786152919987,650.9786152919987,650.9786152919987,651.9973929169937,200003,006,2023-04-07_13h44.06.307,DMS_et_12-36,2022.2.4,None,
103,UNPRED,12,0.5359125165934148,2,images/picture_3.png,images/picture_1.png,0,"[-11.733433509789466, -11.733433509789462]",-11.733433509789464,-11.733433509789462,images/picture_2.png,1,"[-11.733433509789462, 11.733433509789464]",-11.733433509789462,11.733433509789464,images/picture_3.png,2,"[11.733433509789462, -11.733433509789466]",11.733433509789462,-11.733433509789464,0,1,1,0.5359125165934148,1.5359125165934149,1.4640874834065851,3.0,1,1.2859125165934149,0,4.0,3.0,1,2,11,0,11,0,0,5,5,4,,,,,,,651.9973929169937,651.9973929169937,653.0122592919943,653.2981119169999,653.5121759169997,653.5121759169997,653.5121759169997,654.9789322080032,654.9789322080032,654.9789322080032,654.9789322080032,655.9785786249995,200003,006,2023-04-07_13h44.06.307,DMS_et_12-36,2022.2.4,None,
101,UNPRED,12,0.5359125165934148,1,images/picture_2.png,images/picture_1.png,0,"[-11.733433509789462, 11.733433509789464]",-11.733433509789462,11.733433509789464,images/picture_2.png,1,"[11.733433509789462, -11.733433509789466]",11.733433509789462,-11.733433509789464,images/picture_3.png,2,"[-11.733433509789466, -11.733433509789462]",-11.733433509789464,-11.733433509789462,0,1,1,0.5359125165934148,1.5359125165934149,1.4640874834065851,3.0,1,1.2859125165934149,0,4.0,3.0,1,2,11,0,11,0,0,6,6,2,,,,,,,655.9785786249995,655.9785786249995,656.9789893330017,657.2789181249973,657.5121956249932,657.5121956249932,657.5121956249932,658.9788962919993,658.9788962919993,658.9788962919993,658.9788962919993,659.9783020000032,200003,006,2023-04-07_13h44.06.307,DMS_et_12-36,2022.2.4,None,
104,UNPRED,12,0.5359125165934148,0,images/picture_1.png,images/picture_1.png,0,"[-11.733433509789462, 11.733433509789464]",-11.733433509789462,11.733433509789464,images/picture_2.png,1,"[-11.733433509789466, -11.733433509789462]",-11.733433509789464,-11.733433509789462,images/picture_3.png,2,"[11.733433509789464, 11.733433509789462]",11.733433509789464,11.733433509789462,0,1,1,0.5359125165934148,1.5359125165934149,1.4640874834065851,3.0,1,1.2859125165934149,0,4.0,3.0,1,2,11,0,11,0,0,7,7,5,,,,,,,659.9783020000032,659.9783020000032,660.9786933330033,661.2785764169967,661.511974042005,661.511974042005,661.511974042005,662.9788776249916,662.9788776249916,662.9788776249916,662.9788776249916,663.9783947919932,200003,006,2023-04-07_13h44.06.307,DMS_et_12-36,2022.2.4,None,
99,UNPRED,12,0.5359125165934148,1,images/picture_2.png,images/picture_1.png,0,"[-11.733433509789466, -11.733433509789462]",-11.733433509789464,-11.733433509789462,images/picture_2.png,1,"[11.733433509789462, -11.733433509789466]",11.733433509789462,-11.733433509789464,images/picture_3.png,2,"[11.733433509789464, 11.733433509789462]",11.733433509789464,11.733433509789462,0,1,1,0.5359125165934148,1.5359125165934149,1.4640874834065851,3.0,1,1.2859125165934149,0,4.0,3.0,1,2,11,0,11,0,0,8,8,0,,,,,,,663.9783947919932,663.9783947919932,664.9788832500053,665.2790159169963,665.5123128330015,665.5123128330015,665.5123128330015,666.9789038330055,666.9789038330055,666.9789038330055,666.9789038330055,668.1516905000026,200003,006,2023-04-07_13h44.06.307,DMS_et_12-36,2022.2.4,None,
,,,,,,,,,,,,,,,,,,,,,,,,,,,,,,,,,,,11,0,11,0,,,,,,,,,668.1516905000026,680.2943430830055,,,,,,,,,,,,,200003,006,2023-04-07_13h44.06.307,DMS_et_12-36,2022.2.4,None,
,,,,,,,,,,,,,,,,,,,,,,,,,,,,,,,,,,,,,,,,,,,,,,,680.2943430830055,692.8126972079917,,,,,,,,,,,,,,,,,,,
