trial_count,blockType,blockNum,delay_time,stimImage_i,stimImage,responseImage1,responseImage1_i,responseImage1_pos,responseImage1_X,responseImage1_Y,responseImage2,responseImage2_i,responseImage2_pos,responseImage2_X,responseImage2_Y,responseImage3,responseImage3_i,responseImage3_pos,responseImage3_X,responseImage3_Y,cue_onset,cue_dur,delay_onset,delay_dur,resp_onset,resp_dur,rest_onset,rest_dur,circle_dur,circle_onset,blocks.thisRepN,blocks.thisTrialN,blocks.thisN,blocks.thisIndex,trials.thisRepN,trials.thisTrialN,trials.thisN,trials.thisIndex,key_resp.started,text.started,key_resp.keys,key_resp.rt,text_2.started,text_2.stopped,etRecord.started,sample.started,Delay.started,sample.stopped,Delay.stopped,Response_1.started,Response_2.started,Response_3.started,Response_1.stopped,Response_2.stopped,Response_3.stopped,polygon.started,etRecord.stopped,polygon.stopped,participant,session,date,expName,psychopyVersion,frameRate,
,,,,,,,,,,,,,,,,,,,,,,,,,,,,,,,,,,,,,,,20.918945125013124,20.918945125013124,t,40.239937375008594,,,,,,,,,,,,,,,,,200002,006,2023-03-16_16h25.32.893,DMS_BEST_eyetracking_DAN_base_12-36_looped_10minWORKING,2022.2.4,None,
4,PRED,12,0.9459369517951636,1,images/picture_2.png,images/picture_1.png,0,"[-11.733433509789466, -11.733433509789462]",-11.733433509789464,-11.733433509789462,images/picture_2.png,1,"[11.733433509789464, 11.733433509789462]",11.733433509789464,11.733433509789462,images/picture_3.png,2,"[11.733433509789462, -11.733433509789466]",11.733433509789462,-11.733433509789464,0,1,1,0.9459369517951636,1.945936951795164,1.0540630482048363,3,1,1.6959369517951637,0,0,0,0,0,0,0,0,4,,,,,61.16655212501064,73.18579954101006,,,,,,,,,,,,,,,200002,006,2023-03-16_16h25.32.893,DMS_BEST_eyetracking_DAN_base_12-36_looped_10minWORKING,2022.2.4,None,
4,PRED,12,0.9459369517951636,1,images/picture_2.png,images/picture_1.png,0,"[-11.733433509789466, -11.733433509789462]",-11.733433509789464,-11.733433509789462,images/picture_2.png,1,"[11.733433509789464, 11.733433509789462]",11.733433509789464,11.733433509789462,images/picture_3.png,2,"[11.733433509789462, -11.733433509789466]",11.733433509789462,-11.733433509789464,0,1,1,0.9459369517951636,1.945936951795164,1.0540630482048363,3,1,1.6959369517951637,0,0,0,0,0,0,0,0,4,,,,,,,0.004527834011241794,73.18579954101006,73.18579954101006,74.1994335000054,74.88541200000327,75.11819362500682,75.11819362500682,75.11819362500682,76.18488424998941,76.18488424998941,76.18488424998941,76.18488424998941,4.014579500013497,77.1989936659811,200002,006,2023-03-16_16h25.32.893,DMS_BEST_eyetracking_DAN_base_12-36_looped_10minWORKING,2022.2.4,None,
8,PRED,12,0.5173159702246064,1,images/picture_2.png,images/picture_1.png,0,"[11.733433509789462, -11.733433509789466]",11.733433509789462,-11.733433509789464,images/picture_2.png,1,"[-11.733433509789466, -11.733433509789462]",-11.733433509789464,-11.733433509789462,images/picture_3.png,2,"[11.733433509789464, 11.733433509789462]",11.733433509789464,11.733433509789462,0,1,1,0.5173159702246064,1.5173159702246064,1.4826840297753936,3,1,1.2673159702246064,0,0,0,0,0,0,1,1,8,,,,,,,,,,,,,,,,,,,,,200002,006,2023-03-16_16h25.32.893,DMS_BEST_eyetracking_DAN_base_12-36_looped_10minWORKING,2022.2.4,None,
8,PRED,12,0.5173159702246064,1,images/picture_2.png,images/picture_1.png,0,"[11.733433509789462, -11.733433509789466]",11.733433509789462,-11.733433509789464,images/picture_2.png,1,"[-11.733433509789466, -11.733433509789462]",-11.733433509789464,-11.733433509789462,images/picture_3.png,2,"[11.733433509789464, 11.733433509789462]",11.733433509789464,11.733433509789462,0,1,1,0.5173159702246064,1.5173159702246064,1.4826840297753936,3,1,1.2673159702246064,0,0,0,0,0,0,1,1,8,,,,,,,0.002210291044320911,77.1989936659811,77.1989936659811,78.19938741601072,78.46585266600596,78.71964670799207,78.71964670799207,78.71964670799207,80.19936779100681,80.19936779100681,80.19936779100681,80.19936779100681,3.997091958008241,81.1993297910085,200002,006,2023-03-16_16h25.32.893,DMS_BEST_eyetracking_DAN_base_12-36_looped_10minWORKING,2022.2.4,None,
2,PRED,12,0.7055863364742512,1,images/picture_2.png,images/picture_1.png,0,"[11.733433509789464, 11.733433509789462]",11.733433509789464,11.733433509789462,images/picture_2.png,1,"[-11.733433509789466, -11.733433509789462]",-11.733433509789464,-11.733433509789462,images/picture_3.png,2,"[11.733433509789462, -11.733433509789466]",11.733433509789462,-11.733433509789464,0,1,1,0.7055863364742512,1.7055863364742512,1.2944136635257488,3,1,1.4555863364742512,0,0,0,0,0,0,2,2,2,,,,,,,,,,,,,,,,,,,,,200002,006,2023-03-16_16h25.32.893,DMS_BEST_eyetracking_DAN_base_12-36_looped_10minWORKING,2022.2.4,None,
2,PRED,12,0.7055863364742512,1,images/picture_2.png,images/picture_1.png,0,"[11.733433509789464, 11.733433509789462]",11.733433509789464,11.733433509789462,images/picture_2.png,1,"[-11.733433509789466, -11.733433509789462]",-11.733433509789464,-11.733433509789462,images/picture_3.png,2,"[11.733433509789462, -11.733433509789466]",11.733433509789462,-11.733433509789464,0,1,1,0.7055863364742512,1.7055863364742512,1.2944136635257488,3,1,1.4555863364742512,0,0,0,0,0,0,2,2,2,,,,,,,0.0019998750067315996,81.1993297910085,81.1993297910085,82.19947370799491,82.66578679101076,82.89939466601936,82.89939466601936,82.89939466601936,84.19909116602503,84.19909116602503,84.19909116602503,84.19909116602503,3.998765667027328,85.19980995799415,200002,006,2023-03-16_16h25.32.893,DMS_BEST_eyetracking_DAN_base_12-36_looped_10minWORKING,2022.2.4,None,
6,PRED,12,1.1570464128360465,1,images/picture_2.png,images/picture_1.png,0,"[11.733433509789462, -11.733433509789466]",11.733433509789462,-11.733433509789464,images/picture_2.png,1,"[11.733433509789464, 11.733433509789462]",11.733433509789464,11.733433509789462,images/picture_3.png,2,"[-11.733433509789466, -11.733433509789462]",-11.733433509789464,-11.733433509789462,0,1,1,1.1570464128360465,2.1570464128360465,0.8429535871639535,3,1,1.9070464128360465,0,0,0,0,0,0,3,3,6,,,,,,,,,,,,,,,,,,,,,200002,006,2023-03-16_16h25.32.893,DMS_BEST_eyetracking_DAN_base_12-36_looped_10minWORKING,2022.2.4,None,
6,PRED,12,1.1570464128360465,1,images/picture_2.png,images/picture_1.png,0,"[11.733433509789462, -11.733433509789466]",11.733433509789462,-11.733433509789464,images/picture_2.png,1,"[11.733433509789464, 11.733433509789462]",11.733433509789464,11.733433509789462,images/picture_3.png,2,"[-11.733433509789466, -11.733433509789462]",-11.733433509789464,-11.733433509789462,0,1,1,1.1570464128360465,2.1570464128360465,0.8429535871639535,3,1,1.9070464128360465,0,0,0,0,0,0,3,3,6,,,,,,,0.0019993329769931734,85.19980995799415,85.19980995799415,86.19901550002396,87.11810525000328,87.3514720830135,87.3514720830135,87.3514720830135,88.19915404100902,88.19915404100902,88.19915404100902,88.19915404100902,3.998006207984872,89.19940337497974,200002,006,2023-03-16_16h25.32.893,DMS_BEST_eyetracking_DAN_base_12-36_looped_10minWORKING,2022.2.4,None,
5,PRED,12,1.001025997116762,1,images/picture_2.png,images/picture_1.png,0,"[11.733433509789462, -11.733433509789466]",11.733433509789462,-11.733433509789464,images/picture_2.png,1,"[-11.733433509789466, -11.733433509789462]",-11.733433509789464,-11.733433509789462,images/picture_3.png,2,"[11.733433509789464, 11.733433509789462]",11.733433509789464,11.733433509789462,0,1,1,1.001025997116762,2.0010259971167623,0.998974002883238,3,1,1.751025997116762,0,0,0,0,0,0,4,4,5,,,,,,,,,,,,,,,,,,,,,200002,006,2023-03-16_16h25.32.893,DMS_BEST_eyetracking_DAN_base_12-36_looped_10minWORKING,2022.2.4,None,
5,PRED,12,1.001025997116762,1,images/picture_2.png,images/picture_1.png,0,"[11.733433509789462, -11.733433509789466]",11.733433509789462,-11.733433509789464,images/picture_2.png,1,"[-11.733433509789466, -11.733433509789462]",-11.733433509789464,-11.733433509789462,images/picture_3.png,2,"[11.733433509789464, 11.733433509789462]",11.733433509789464,11.733433509789462,0,1,1,1.001025997116762,2.0010259971167623,0.998974002883238,3,1,1.751025997116762,0,0,0,0,0,0,4,4,5,,,,,,,0.0019997499766759574,89.19940337497974,89.19940337497974,90.19909945799736,90.96578591602156,91.19945166597608,91.19945166597608,91.19945166597608,92.19913404097315,92.19913404097315,92.19913404097315,92.19913404097315,3.998407875013072,93.19881774997339,200002,006,2023-03-16_16h25.32.893,DMS_BEST_eyetracking_DAN_base_12-36_looped_10minWORKING,2022.2.4,None,
3,PRED,12,0.8999522319003312,1,images/picture_2.png,images/picture_1.png,0,"[11.733433509789464, 11.733433509789462]",11.733433509789464,11.733433509789462,images/picture_2.png,1,"[-11.733433509789462, 11.733433509789464]",-11.733433509789462,11.733433509789464,images/picture_3.png,2,"[11.733433509789462, -11.733433509789466]",11.733433509789462,-11.733433509789464,0,1,1,0.8999522319003312,1.8999522319003312,1.1000477680996688,3,1,1.6499522319003312,0,0,0,0,0,0,5,5,3,,,,,,,,,,,,,,,,,,,,,200002,006,2023-03-16_16h25.32.893,DMS_BEST_eyetracking_DAN_base_12-36_looped_10minWORKING,2022.2.4,None,
3,PRED,12,0.8999522319003312,1,images/picture_2.png,images/picture_1.png,0,"[11.733433509789464, 11.733433509789462]",11.733433509789464,11.733433509789462,images/picture_2.png,1,"[-11.733433509789462, 11.733433509789464]",-11.733433509789462,11.733433509789464,images/picture_3.png,2,"[11.733433509789462, -11.733433509789466]",11.733433509789462,-11.733433509789464,0,1,1,0.8999522319003312,1.8999522319003312,1.1000477680996688,3,1,1.6499522319003312,0,0,0,0,0,0,5,5,3,,,,,,,0.0019288340117782354,93.19881774997339,93.19881774997339,94.19946358300513,94.85143866599537,95.09922504099086,95.09922504099086,95.09922504099086,96.1988301249803,96.1988301249803,96.1988301249803,96.1988301249803,3.998554999998305,97.19911345798755,200002,006,2023-03-16_16h25.32.893,DMS_BEST_eyetracking_DAN_base_12-36_looped_10minWORKING,2022.2.4,None,
0,PRED,12,0.6327911225791445,1,images/picture_2.png,images/picture_1.png,0,"[-11.733433509789466, -11.733433509789462]",-11.733433509789464,-11.733433509789462,images/picture_2.png,1,"[11.733433509789464, 11.733433509789462]",11.733433509789464,11.733433509789462,images/picture_3.png,2,"[11.733433509789462, -11.733433509789466]",11.733433509789462,-11.733433509789464,0,1,1,0.6327911225791445,1.6327911225791445,1.3672088774208555,3,1,1.3827911225791445,0,0,0,0,0,0,6,6,0,,,,,,,,,,,,,,,,,,,,,200002,006,2023-03-16_16h25.32.893,DMS_BEST_eyetracking_DAN_base_12-36_looped_10minWORKING,2022.2.4,None,
0,PRED,12,0.6327911225791445,1,images/picture_2.png,images/picture_1.png,0,"[-11.733433509789466, -11.733433509789462]",-11.733433509789464,-11.733433509789462,images/picture_2.png,1,"[11.733433509789464, 11.733433509789462]",11.733433509789464,11.733433509789462,images/picture_3.png,2,"[11.733433509789462, -11.733433509789466]",11.733433509789462,-11.733433509789464,0,1,1,0.6327911225791445,1.6327911225791445,1.3672088774208555,3,1,1.3827911225791445,0,0,0,0,0,0,6,6,0,,,,,,,0.001900249975733459,97.19911345798755,97.19911345798755,98.19882595801027,98.58490691601764,98.83227616600925,98.83227616600925,98.83227616600925,100.19919875002233,100.19919875002233,100.19919875002233,100.19919875002233,3.999163625005167,101.19889287499245,200002,006,2023-03-16_16h25.32.893,DMS_BEST_eyetracking_DAN_base_12-36_looped_10minWORKING,2022.2.4,None,
7,PRED,12,0.8715531311063476,1,images/picture_2.png,images/picture_1.png,0,"[-11.733433509789466, -11.733433509789462]",-11.733433509789464,-11.733433509789462,images/picture_2.png,1,"[11.733433509789462, -11.733433509789466]",11.733433509789462,-11.733433509789464,images/picture_3.png,2,"[11.733433509789464, 11.733433509789462]",11.733433509789464,11.733433509789462,0,1,1,0.8715531311063476,1.871553131106348,1.1284468688936524,3,1,1.6215531311063476,0,0,0,0,0,0,7,7,7,,,,,,,,,,,,,,,,,,,,,200002,006,2023-03-16_16h25.32.893,DMS_BEST_eyetracking_DAN_base_12-36_looped_10minWORKING,2022.2.4,None,
7,PRED,12,0.8715531311063476,1,images/picture_2.png,images/picture_1.png,0,"[-11.733433509789466, -11.733433509789462]",-11.733433509789464,-11.733433509789462,images/picture_2.png,1,"[11.733433509789462, -11.733433509789466]",11.733433509789462,-11.733433509789464,images/picture_3.png,2,"[11.733433509789464, 11.733433509789462]",11.733433509789464,11.733433509789462,0,1,1,0.8715531311063476,1.871553131106348,1.1284468688936524,3,1,1.6215531311063476,0,0,0,0,0,0,7,7,7,,,,,,,0.0018957499996758997,101.19889287499245,101.19889287499245,102.19887216598727,102.83291420800379,103.06569491600385,103.06569491600385,103.06569491600385,104.19882404099917,104.19882404099917,104.19882404099917,104.19882404099917,3.9980829160194844,105.19865995802684,200002,006,2023-03-16_16h25.32.893,DMS_BEST_eyetracking_DAN_base_12-36_looped_10minWORKING,2022.2.4,None,
1,PRED,12,0.77554186832067,1,images/picture_2.png,images/picture_1.png,0,"[-11.733433509789462, 11.733433509789464]",-11.733433509789462,11.733433509789464,images/picture_2.png,1,"[11.733433509789464, 11.733433509789462]",11.733433509789464,11.733433509789462,images/picture_3.png,2,"[11.733433509789462, -11.733433509789466]",11.733433509789462,-11.733433509789464,0,1,1,0.77554186832067,1.7755418683206698,1.22445813167933,3,1,1.5255418683206698,0,0,0,0,0,0,8,8,1,,,,,,,,,,,,,,,,,,,,,200002,006,2023-03-16_16h25.32.893,DMS_BEST_eyetracking_DAN_base_12-36_looped_10minWORKING,2022.2.4,None,
1,PRED,12,0.77554186832067,1,images/picture_2.png,images/picture_1.png,0,"[-11.733433509789462, 11.733433509789464]",-11.733433509789462,11.733433509789464,images/picture_2.png,1,"[11.733433509789464, 11.733433509789462]",11.733433509789464,11.733433509789462,images/picture_3.png,2,"[11.733433509789462, -11.733433509789466]",11.733433509789462,-11.733433509789464,0,1,1,0.77554186832067,1.7755418683206698,1.22445813167933,3,1,1.5255418683206698,0,0,0,0,0,0,8,8,1,,,,,,,0.0019124160171486437,105.19865995802684,105.19865995802684,106.1988448749762,106.73342533299001,106.96530462498777,106.96530462498777,106.96530462498777,108.19883166596992,108.19883166596992,108.19883166596992,108.19883166596992,3.9982145829708315,109.21792224998353,200002,006,2023-03-16_16h25.32.893,DMS_BEST_eyetracking_DAN_base_12-36_looped_10minWORKING,2022.2.4,None,
,,,,,,,,,,,,,,,,,,,,,,,,,,,,,,,0,0,0,0,,,,,,,,,109.21792224998353,121.25100450002356,,,,,,,,,,,,,,,200002,006,2023-03-16_16h25.32.893,DMS_BEST_eyetracking_DAN_base_12-36_looped_10minWORKING,2022.2.4,None,
10,UNPRED,12,1.1164574663651772,2,images/picture_3.png,images/picture_1.png,0,"[11.733433509789462, -11.733433509789466]",11.733433509789462,-11.733433509789464,images/picture_2.png,1,"[-11.733433509789462, 11.733433509789464]",-11.733433509789462,11.733433509789464,images/picture_3.png,2,"[11.733433509789464, 11.733433509789462]",11.733433509789464,11.733433509789462,0,1,1,1.1164574663651772,2.1164574663651767,0.8835425336348228,3,1,1.8664574663651767,0,1,0,1,0,0,0,0,1,,,,,,,,,,,,,,,,,,,,,200002,006,2023-03-16_16h25.32.893,DMS_BEST_eyetracking_DAN_base_12-36_looped_10minWORKING,2022.2.4,None,
10,UNPRED,12,1.1164574663651772,2,images/picture_3.png,images/picture_1.png,0,"[11.733433509789462, -11.733433509789466]",11.733433509789462,-11.733433509789464,images/picture_2.png,1,"[-11.733433509789462, 11.733433509789464]",-11.733433509789462,11.733433509789464,images/picture_3.png,2,"[11.733433509789464, 11.733433509789462]",11.733433509789464,11.733433509789462,0,1,1,1.1164574663651772,2.1164574663651767,0.8835425336348228,3,1,1.8664574663651767,0,1,0,1,0,0,0,0,1,,,,,,,0.0017470410093665123,121.25100450002356,121.25100450002356,122.26512391597498,123.13205766602186,123.35093895799946,123.35093895799946,123.35093895799946,124.23216108302586,124.23216108302586,124.23216108302586,124.23216108302586,4.006805166020058,125.2335967500112,200002,006,2023-03-16_16h25.32.893,DMS_BEST_eyetracking_DAN_base_12-36_looped_10minWORKING,2022.2.4,None,
14,UNPRED,12,0.5164616949449395,1,images/picture_2.png,images/picture_1.png,0,"[-11.733433509789466, -11.733433509789462]",-11.733433509789464,-11.733433509789462,images/picture_2.png,1,"[-11.733433509789462, 11.733433509789464]",-11.733433509789462,11.733433509789464,images/picture_3.png,2,"[11.733433509789462, -11.733433509789466]",11.733433509789462,-11.733433509789464,0,1,1,0.5164616949449395,1.5164616949449394,1.4835383050550606,3,1,1.2664616949449394,0,1,0,1,0,0,1,1,5,,,,,,,,,,,,,,,,,,,,,200002,006,2023-03-16_16h25.32.893,DMS_BEST_eyetracking_DAN_base_12-36_looped_10minWORKING,2022.2.4,None,
14,UNPRED,12,0.5164616949449395,1,images/picture_2.png,images/picture_1.png,0,"[-11.733433509789466, -11.733433509789462]",-11.733433509789464,-11.733433509789462,images/picture_2.png,1,"[-11.733433509789462, 11.733433509789464]",-11.733433509789462,11.733433509789464,images/picture_3.png,2,"[11.733433509789462, -11.733433509789466]",11.733433509789462,-11.733433509789464,0,1,1,0.5164616949449395,1.5164616949449394,1.4835383050550606,3,1,1.2664616949449394,0,1,0,1,0,0,1,1,5,,,,,,,0.003435709048062563,125.25166370801162,125.25166370801162,126.26503233297262,126.53181637497619,126.76500262500485,126.76500262500485,126.76500262500485,128.25063333299477,128.25063333299477,128.25063333299477,128.25063333299477,4.013415125024039,129.26465458300663,200002,006,2023-03-16_16h25.32.893,DMS_BEST_eyetracking_DAN_base_12-36_looped_10minWORKING,2022.2.4,None,
12,UNPRED,12,0.6392462090711438,1,images/picture_2.png,images/picture_1.png,0,"[11.733433509789462, -11.733433509789466]",11.733433509789462,-11.733433509789464,images/picture_2.png,1,"[-11.733433509789462, 11.733433509789464]",-11.733433509789462,11.733433509789464,images/picture_3.png,2,"[11.733433509789464, 11.733433509789462]",11.733433509789464,11.733433509789462,0,1,1,0.6392462090711438,1.6392462090711442,1.3607537909288558,3,1,1.3892462090711442,0,1,0,1,0,0,2,2,3,,,,,,,,,,,,,,,,,,,,,200002,006,2023-03-16_16h25.32.893,DMS_BEST_eyetracking_DAN_base_12-36_looped_10minWORKING,2022.2.4,None,
12,UNPRED,12,0.6392462090711438,1,images/picture_2.png,images/picture_1.png,0,"[11.733433509789462, -11.733433509789466]",11.733433509789462,-11.733433509789464,images/picture_2.png,1,"[-11.733433509789462, 11.733433509789464]",-11.733433509789462,11.733433509789464,images/picture_3.png,2,"[11.733433509789464, 11.733433509789462]",11.733433509789464,11.733433509789462,0,1,1,0.6392462090711438,1.6392462090711442,1.3607537909288558,3,1,1.3892462090711442,0,1,0,1,0,0,2,2,3,,,,,,,0.002097583026625216,129.26465458300663,129.26465458300663,130.26523449999513,130.66494779102504,130.89825399999972,130.89825399999972,130.89825399999972,132.2648881250061,132.2648881250061,132.2648881250061,132.2648881250061,3.996869374997914,133.26490424998337,200002,006,2023-03-16_16h25.32.893,DMS_BEST_eyetracking_DAN_base_12-36_looped_10minWORKING,2022.2.4,None,
9,UNPRED,12,0.646192332154208,1,images/picture_2.png,images/picture_1.png,0,"[11.733433509789464, 11.733433509789462]",11.733433509789464,11.733433509789462,images/picture_2.png,1,"[-11.733433509789462, 11.733433509789464]",-11.733433509789462,11.733433509789464,images/picture_3.png,2,"[11.733433509789462, -11.733433509789466]",11.733433509789462,-11.733433509789464,0,1,1,0.646192332154208,1.646192332154208,1.353807667845792,3,1,1.396192332154208,0,1,0,1,0,0,3,3,0,,,,,,,,,,,,,,,,,,,,,200002,006,2023-03-16_16h25.32.893,DMS_BEST_eyetracking_DAN_base_12-36_looped_10minWORKING,2022.2.4,None,
9,UNPRED,12,0.646192332154208,1,images/picture_2.png,images/picture_1.png,0,"[11.733433509789464, 11.733433509789462]",11.733433509789464,11.733433509789462,images/picture_2.png,1,"[-11.733433509789462, 11.733433509789464]",-11.733433509789462,11.733433509789464,images/picture_3.png,2,"[11.733433509789462, -11.733433509789466]",11.733433509789462,-11.733433509789464,0,1,1,0.646192332154208,1.646192332154208,1.353807667845792,3,1,1.396192332154208,0,1,0,1,0,0,3,3,0,,,,,,,0.001966582960449159,133.26490424998337,133.26490424998337,134.26516933302628,134.66532550001284,134.89831308298744,134.89831308298744,134.89831308298744,136.26500891597243,136.26500891597243,136.26500891597243,136.26500891597243,3.9973801659652963,137.26564683299512,200002,006,2023-03-16_16h25.32.893,DMS_BEST_eyetracking_DAN_base_12-36_looped_10minWORKING,2022.2.4,None,
15,UNPRED,12,0.9498321650886228,0,images/picture_1.png,images/picture_1.png,0,"[11.733433509789462, -11.733433509789466]",11.733433509789462,-11.733433509789464,images/picture_2.png,1,"[-11.733433509789462, 11.733433509789464]",-11.733433509789462,11.733433509789464,images/picture_3.png,2,"[-11.733433509789466, -11.733433509789462]",-11.733433509789464,-11.733433509789462,0,1,1,0.9498321650886228,1.9498321650886228,1.0501678349113772,3,1,1.6998321650886228,0,1,0,1,0,0,4,4,6,,,,,,,,,,,,,,,,,,,,,200002,006,2023-03-16_16h25.32.893,DMS_BEST_eyetracking_DAN_base_12-36_looped_10minWORKING,2022.2.4,None,
15,UNPRED,12,0.9498321650886228,0,images/picture_1.png,images/picture_1.png,0,"[11.733433509789462, -11.733433509789466]",11.733433509789462,-11.733433509789464,images/picture_2.png,1,"[-11.733433509789462, 11.733433509789464]",-11.733433509789462,11.733433509789464,images/picture_3.png,2,"[-11.733433509789466, -11.733433509789462]",-11.733433509789464,-11.733433509789462,0,1,1,0.9498321650886228,1.9498321650886228,1.0501678349113772,3,1,1.6998321650886228,0,1,0,1,0,0,4,4,6,,,,,,,0.0030804590205661952,137.26564683299512,137.26564683299512,138.26485120801954,138.9649114580243,139.1994809579919,139.1994809579919,139.1994809579919,140.26485241600312,140.26485241600312,140.26485241600312,140.26485241600312,3.9989623749861494,141.26465441600885,200002,006,2023-03-16_16h25.32.893,DMS_BEST_eyetracking_DAN_base_12-36_looped_10minWORKING,2022.2.4,None,
11,UNPRED,12,0.7952701439789543,1,images/picture_2.png,images/picture_1.png,0,"[-11.733433509789466, -11.733433509789462]",-11.733433509789464,-11.733433509789462,images/picture_2.png,1,"[11.733433509789462, -11.733433509789466]",11.733433509789462,-11.733433509789464,images/picture_3.png,2,"[-11.733433509789462, 11.733433509789464]",-11.733433509789462,11.733433509789464,0,1,1,0.7952701439789543,1.7952701439789545,1.2047298560210455,3,1,1.5452701439789545,0,1,0,1,0,0,5,5,2,,,,,,,,,,,,,,,,,,,,,200002,006,2023-03-16_16h25.32.893,DMS_BEST_eyetracking_DAN_base_12-36_looped_10minWORKING,2022.2.4,None,
11,UNPRED,12,0.7952701439789543,1,images/picture_2.png,images/picture_1.png,0,"[-11.733433509789466, -11.733433509789462]",-11.733433509789464,-11.733433509789462,images/picture_2.png,1,"[11.733433509789462, -11.733433509789466]",11.733433509789462,-11.733433509789464,images/picture_3.png,2,"[-11.733433509789462, 11.733433509789464]",-11.733433509789462,11.733433509789464,0,1,1,0.7952701439789543,1.7952701439789545,1.2047298560210455,3,1,1.5452701439789545,0,1,0,1,0,0,5,5,2,,,,,,,0.002974082948639989,141.26465441600885,141.26465441600885,142.26478258299176,142.81729874998564,143.0647191249882,143.0647191249882,143.0647191249882,144.28373870800715,144.28373870800715,144.28373870800715,144.2648808750091,3.9957798329996876,145.26478916598717,200002,006,2023-03-16_16h25.32.893,DMS_BEST_eyetracking_DAN_base_12-36_looped_10minWORKING,2022.2.4,None,
16,UNPRED,12,0.6872471352544518,2,images/picture_3.png,images/picture_1.png,0,"[11.733433509789462, -11.733433509789466]",11.733433509789462,-11.733433509789464,images/picture_2.png,1,"[11.733433509789464, 11.733433509789462]",11.733433509789464,11.733433509789462,images/picture_3.png,2,"[-11.733433509789462, 11.733433509789464]",-11.733433509789462,11.733433509789464,0,1,1,0.6872471352544518,1.6872471352544518,1.3127528647455482,3,1,1.4372471352544518,0,1,0,1,0,0,6,6,7,,,,,,,,,,,,,,,,,,,,,200002,006,2023-03-16_16h25.32.893,DMS_BEST_eyetracking_DAN_base_12-36_looped_10minWORKING,2022.2.4,None,
16,UNPRED,12,0.6872471352544518,2,images/picture_3.png,images/picture_1.png,0,"[11.733433509789462, -11.733433509789466]",11.733433509789462,-11.733433509789464,images/picture_2.png,1,"[11.733433509789464, 11.733433509789462]",11.733433509789464,11.733433509789462,images/picture_3.png,2,"[-11.733433509789462, 11.733433509789464]",-11.733433509789462,11.733433509789464,0,1,1,0.6872471352544518,1.6872471352544518,1.3127528647455482,3,1,1.4372471352544518,0,1,0,1,0,0,6,6,7,,,,,,,0.002321166975889355,145.26478916598717,145.26478916598717,146.26490116602508,146.7173497910262,146.95043104101205,146.95043104101205,146.95043104101205,148.26495250000153,148.26495250000153,148.26495250000153,148.26495250000153,3.9984792079776525,149.2649906249717,200002,006,2023-03-16_16h25.32.893,DMS_BEST_eyetracking_DAN_base_12-36_looped_10minWORKING,2022.2.4,None,
17,UNPRED,12,1.0600029916590388,1,images/picture_2.png,images/picture_1.png,0,"[-11.733433509789466, -11.733433509789462]",-11.733433509789464,-11.733433509789462,images/picture_2.png,1,"[11.733433509789462, -11.733433509789466]",11.733433509789462,-11.733433509789464,images/picture_3.png,2,"[-11.733433509789462, 11.733433509789464]",-11.733433509789462,11.733433509789464,0,1,1,1.0600029916590388,2.0600029916590388,0.9399970083409612,3,1,1.8100029916590388,0,1,0,1,0,0,7,7,8,,,,,,,,,,,,,,,,,,,,,200002,006,2023-03-16_16h25.32.893,DMS_BEST_eyetracking_DAN_base_12-36_looped_10minWORKING,2022.2.4,None,
17,UNPRED,12,1.0600029916590388,1,images/picture_2.png,images/picture_1.png,0,"[-11.733433509789466, -11.733433509789462]",-11.733433509789464,-11.733433509789462,images/picture_2.png,1,"[11.733433509789462, -11.733433509789466]",11.733433509789462,-11.733433509789464,images/picture_3.png,2,"[-11.733433509789462, 11.733433509789464]",-11.733433509789462,11.733433509789464,0,1,1,1.0600029916590388,2.0600029916590388,0.9399970083409612,3,1,1.8100029916590388,0,1,0,1,0,0,7,7,8,,,,,,,0.0021436670213006437,149.2649906249717,149.2649906249717,150.2646462909761,151.0837962080259,151.31715391599573,151.31715391599573,151.31715391599573,152.26456012501149,152.26456012501149,152.26456012501149,152.26456012501149,3.9965219169971533,153.26422524999361,200002,006,2023-03-16_16h25.32.893,DMS_BEST_eyetracking_DAN_base_12-36_looped_10minWORKING,2022.2.4,None,
13,UNPRED,12,1.1120036611158537,0,images/picture_1.png,images/picture_1.png,0,"[11.733433509789462, -11.733433509789466]",11.733433509789462,-11.733433509789464,images/picture_2.png,1,"[11.733433509789464, 11.733433509789462]",11.733433509789464,11.733433509789462,images/picture_3.png,2,"[-11.733433509789462, 11.733433509789464]",-11.733433509789462,11.733433509789464,0,1,1,1.1120036611158537,2.112003661115853,0.8879963388841465,3,1,1.8620036611158528,0,1,0,1,0,0,8,8,4,,,,,,,,,,,,,,,,,,,,,200002,006,2023-03-16_16h25.32.893,DMS_BEST_eyetracking_DAN_base_12-36_looped_10minWORKING,2022.2.4,None,
13,UNPRED,12,1.1120036611158537,0,images/picture_1.png,images/picture_1.png,0,"[11.733433509789462, -11.733433509789466]",11.733433509789462,-11.733433509789464,images/picture_2.png,1,"[11.733433509789464, 11.733433509789462]",11.733433509789464,11.733433509789462,images/picture_3.png,2,"[-11.733433509789462, 11.733433509789464]",-11.733433509789462,11.733433509789464,0,1,1,1.1120036611158537,2.112003661115853,0.8879963388841465,3,1,1.8620036611158528,0,1,0,1,0,0,8,8,4,,,,,,,0.001958290988113731,153.26422524999361,153.26422524999361,154.2646644160268,155.13121604098706,155.36446474998957,155.36446474998957,155.36446474998957,156.2647902080207,156.2647902080207,156.2647902080207,156.2647902080207,3.9968876659986563,157.28452391602332,200002,006,2023-03-16_16h25.32.893,DMS_BEST_eyetracking_DAN_base_12-36_looped_10minWORKING,2022.2.4,None,
,,,,,,,,,,,,,,,,,,,,,,,,,,,,,,,1,0,1,0,,,,,,,,,157.28452391602332,169.31647562497528,,,,,,,,,,,,,,,200002,006,2023-03-16_16h25.32.893,DMS_BEST_eyetracking_DAN_base_12-36_looped_10minWORKING,2022.2.4,None,
24,PRED,12,0.797867746967802,0,images/picture_1.png,images/picture_1.png,0,"[-11.733433509789466, -11.733433509789462]",-11.733433509789464,-11.733433509789462,images/picture_2.png,1,"[11.733433509789464, 11.733433509789462]",11.733433509789464,11.733433509789462,images/picture_3.png,2,"[11.733433509789462, -11.733433509789466]",11.733433509789462,-11.733433509789464,0,1,1,0.797867746967802,1.7978677469678017,1.202132253032198,3,1,1.5478677469678017,0,2,0,2,0,0,0,0,6,,,,,,,,,,,,,,,,,,,,,200002,006,2023-03-16_16h25.32.893,DMS_BEST_eyetracking_DAN_base_12-36_looped_10minWORKING,2022.2.4,None,
24,PRED,12,0.797867746967802,0,images/picture_1.png,images/picture_1.png,0,"[-11.733433509789466, -11.733433509789462]",-11.733433509789464,-11.733433509789462,images/picture_2.png,1,"[11.733433509789464, 11.733433509789462]",11.733433509789464,11.733433509789462,images/picture_3.png,2,"[11.733433509789462, -11.733433509789466]",11.733433509789462,-11.733433509789464,0,1,1,0.797867746967802,1.7978677469678017,1.202132253032198,3,1,1.5478677469678017,0,2,0,2,0,0,0,0,6,,,,,,,0.0018301659729331732,169.31647562497528,169.31647562497528,170.33095779101131,170.86431937501766,171.0979172079824,171.0979172079824,171.0979172079824,172.29770416597603,172.29770416597603,172.29770416597603,172.29770416597603,4.024712165992241,173.29754220799077,200002,006,2023-03-16_16h25.32.893,DMS_BEST_eyetracking_DAN_base_12-36_looped_10minWORKING,2022.2.4,None,
22,PRED,12,0.5717862946508713,0,images/picture_1.png,images/picture_1.png,0,"[-11.733433509789466, -11.733433509789462]",-11.733433509789464,-11.733433509789462,images/picture_2.png,1,"[-11.733433509789462, 11.733433509789464]",-11.733433509789462,11.733433509789464,images/picture_3.png,2,"[11.733433509789464, 11.733433509789462]",11.733433509789464,11.733433509789462,0,1,1,0.5717862946508713,1.5717862946508712,1.4282137053491288,3,1,1.3217862946508712,0,2,0,2,0,0,1,1,4,,,,,,,,,,,,,,,,,,,,,200002,006,2023-03-16_16h25.32.893,DMS_BEST_eyetracking_DAN_base_12-36_looped_10minWORKING,2022.2.4,None,
22,PRED,12,0.5717862946508713,0,images/picture_1.png,images/picture_1.png,0,"[-11.733433509789466, -11.733433509789462]",-11.733433509789464,-11.733433509789462,images/picture_2.png,1,"[-11.733433509789462, 11.733433509789464]",-11.733433509789462,11.733433509789464,images/picture_3.png,2,"[11.733433509789464, 11.733433509789462]",11.733433509789464,11.733433509789462,0,1,1,0.5717862946508713,1.5717862946508712,1.4282137053491288,3,1,1.3217862946508712,0,2,0,2,0,0,1,1,4,,,,,,,0.0014333330327644944,173.33078274998115,173.33078274998115,174.33089933299925,174.664462500019,174.89787566597806,174.89787566597806,174.89787566597806,176.33245887502562,176.33245887502562,176.33245887502562,176.33245887502562,3.9983017499907874,177.33168566599488,200002,006,2023-03-16_16h25.32.893,DMS_BEST_eyetracking_DAN_base_12-36_looped_10minWORKING,2022.2.4,None,
26,PRED,12,0.913915173693712,0,images/picture_1.png,images/picture_1.png,0,"[11.733433509789464, 11.733433509789462]",11.733433509789464,11.733433509789462,images/picture_2.png,1,"[11.733433509789462, -11.733433509789466]",11.733433509789462,-11.733433509789464,images/picture_3.png,2,"[-11.733433509789462, 11.733433509789464]",-11.733433509789462,11.733433509789464,0,1,1,0.913915173693712,1.9139151736937121,1.0860848263062879,3,1,1.6639151736937121,0,2,0,2,0,0,2,2,8,,,,,,,,,,,,,,,,,,,,,200002,006,2023-03-16_16h25.32.893,DMS_BEST_eyetracking_DAN_base_12-36_looped_10minWORKING,2022.2.4,None,
26,PRED,12,0.913915173693712,0,images/picture_1.png,images/picture_1.png,0,"[11.733433509789464, 11.733433509789462]",11.733433509789464,11.733433509789462,images/picture_2.png,1,"[11.733433509789462, -11.733433509789466]",11.733433509789462,-11.733433509789464,images/picture_3.png,2,"[-11.733433509789462, 11.733433509789464]",-11.733433509789462,11.733433509789464,0,1,1,0.913915173693712,1.9139151736937121,1.0860848263062879,3,1,1.6639151736937121,0,2,0,2,0,0,2,2,8,,,,,,,0.0014141250285319984,177.33168566599488,177.33168566599488,178.3308544579777,178.99751058302354,179.23072699998738,179.23072699998738,179.23072699998738,180.33080041600624,180.33080041600624,180.33080041600624,180.33080041600624,3.99834833299974,181.3306462080218,200002,006,2023-03-16_16h25.32.893,DMS_BEST_eyetracking_DAN_base_12-36_looped_10minWORKING,2022.2.4,None,
23,PRED,12,0.5754915898801133,0,images/picture_1.png,images/picture_1.png,0,"[-11.733433509789462, 11.733433509789464]",-11.733433509789462,11.733433509789464,images/picture_2.png,1,"[11.733433509789462, -11.733433509789466]",11.733433509789462,-11.733433509789464,images/picture_3.png,2,"[-11.733433509789466, -11.733433509789462]",-11.733433509789464,-11.733433509789462,0,1,1,0.5754915898801133,1.5754915898801132,1.4245084101198868,3,1,1.3254915898801132,0,2,0,2,0,0,3,3,5,,,,,,,,,,,,,,,,,,,,,200002,006,2023-03-16_16h25.32.893,DMS_BEST_eyetracking_DAN_base_12-36_looped_10minWORKING,2022.2.4,None,
23,PRED,12,0.5754915898801133,0,images/picture_1.png,images/picture_1.png,0,"[-11.733433509789462, 11.733433509789464]",-11.733433509789462,11.733433509789464,images/picture_2.png,1,"[11.733433509789462, -11.733433509789466]",11.733433509789462,-11.733433509789464,images/picture_3.png,2,"[-11.733433509789466, -11.733433509789462]",-11.733433509789464,-11.733433509789462,0,1,1,0.5754915898801133,1.5754915898801132,1.4245084101198868,3,1,1.3254915898801132,0,2,0,2,0,0,3,3,5,,,,,,,0.0013977920170873404,181.3306462080218,181.3306462080218,182.33070633298485,182.66395324998302,182.89733104099287,182.89733104099287,182.89733104099287,184.33074583299458,184.33074583299458,184.33074583299458,184.33074583299458,3.9990314170136116,185.3306677499786,200002,006,2023-03-16_16h25.32.893,DMS_BEST_eyetracking_DAN_base_12-36_looped_10minWORKING,2022.2.4,None,
25,PRED,12,0.812183149658313,0,images/picture_1.png,images/picture_1.png,0,"[-11.733433509789462, 11.733433509789464]",-11.733433509789462,11.733433509789464,images/picture_2.png,1,"[11.733433509789464, 11.733433509789462]",11.733433509789464,11.733433509789462,images/picture_3.png,2,"[11.733433509789462, -11.733433509789466]",11.733433509789462,-11.733433509789464,0,1,1,0.812183149658313,1.8121831496583132,1.187816850341687,3,1,1.5621831496583132,0,2,0,2,0,0,4,4,7,,,,,,,,,,,,,,,,,,,,,200002,006,2023-03-16_16h25.32.893,DMS_BEST_eyetracking_DAN_base_12-36_looped_10minWORKING,2022.2.4,None,
25,PRED,12,0.812183149658313,0,images/picture_1.png,images/picture_1.png,0,"[-11.733433509789462, 11.733433509789464]",-11.733433509789462,11.733433509789464,images/picture_2.png,1,"[11.733433509789464, 11.733433509789462]",11.733433509789464,11.733433509789462,images/picture_3.png,2,"[11.733433509789462, -11.733433509789466]",11.733433509789462,-11.733433509789464,0,1,1,0.812183149658313,1.8121831496583132,1.187816850341687,3,1,1.5621831496583132,0,2,0,2,0,0,4,4,7,,,,,,,0.001481125014834106,185.3306677499786,185.3306677499786,186.33098591602175,186.89753524999833,187.13106212497223,187.13106212497223,187.13106212497223,188.3308813329786,188.3308813329786,188.3308813329786,188.3308813329786,3.9972821249975823,189.33042491599917,200002,006,2023-03-16_16h25.32.893,DMS_BEST_eyetracking_DAN_base_12-36_looped_10minWORKING,2022.2.4,None,
21,PRED,12,0.5037100050734854,0,images/picture_1.png,images/picture_1.png,0,"[-11.733433509789466, -11.733433509789462]",-11.733433509789464,-11.733433509789462,images/picture_2.png,1,"[11.733433509789464, 11.733433509789462]",11.733433509789464,11.733433509789462,images/picture_3.png,2,"[11.733433509789462, -11.733433509789466]",11.733433509789462,-11.733433509789464,0,1,1,0.5037100050734854,1.5037100050734855,1.4962899949265145,3,1,1.2537100050734855,0,2,0,2,0,0,5,5,3,,,,,,,,,,,,,,,,,,,,,200002,006,2023-03-16_16h25.32.893,DMS_BEST_eyetracking_DAN_base_12-36_looped_10minWORKING,2022.2.4,None,
21,PRED,12,0.5037100050734854,0,images/picture_1.png,images/picture_1.png,0,"[-11.733433509789466, -11.733433509789462]",-11.733433509789464,-11.733433509789462,images/picture_2.png,1,"[11.733433509789464, 11.733433509789462]",11.733433509789464,11.733433509789462,images/picture_3.png,2,"[11.733433509789462, -11.733433509789466]",11.733433509789462,-11.733433509789464,0,1,1,0.5037100050734854,1.5037100050734855,1.4962899949265145,3,1,1.2537100050734855,0,2,0,2,0,0,5,5,3,,,,,,,0.001557458017487079,189.33042491599917,189.33042491599917,190.33188499999233,190.59726891602622,190.830558207992,190.830558207992,190.830558207992,192.33062383299693,192.33062383299693,192.33062383299693,192.33062383299693,3.997332416009158,193.33040575002087,200002,006,2023-03-16_16h25.32.893,DMS_BEST_eyetracking_DAN_base_12-36_looped_10minWORKING,2022.2.4,None,
18,PRED,12,0.7526769880614537,0,images/picture_1.png,images/picture_1.png,0,"[-11.733433509789462, 11.733433509789464]",-11.733433509789462,11.733433509789464,images/picture_2.png,1,"[-11.733433509789466, -11.733433509789462]",-11.733433509789464,-11.733433509789462,images/picture_3.png,2,"[11.733433509789462, -11.733433509789466]",11.733433509789462,-11.733433509789464,0,1,1,0.7526769880614537,1.7526769880614537,1.2473230119385463,3,1,1.5026769880614537,0,2,0,2,0,0,6,6,0,,,,,,,,,,,,,,,,,,,,,200002,006,2023-03-16_16h25.32.893,DMS_BEST_eyetracking_DAN_base_12-36_looped_10minWORKING,2022.2.4,None,
18,PRED,12,0.7526769880614537,0,images/picture_1.png,images/picture_1.png,0,"[-11.733433509789462, 11.733433509789464]",-11.733433509789462,11.733433509789464,images/picture_2.png,1,"[-11.733433509789466, -11.733433509789462]",-11.733433509789464,-11.733433509789462,images/picture_3.png,2,"[11.733433509789462, -11.733433509789466]",11.733433509789462,-11.733433509789464,0,1,1,0.7526769880614537,1.7526769880614537,1.2473230119385463,3,1,1.5026769880614537,0,2,0,2,0,0,6,6,0,,,,,,,0.0014208750217221677,193.33040575002087,193.33040575002087,194.33048462501029,194.8306443329784,195.0825093750027,195.0825093750027,195.0825093750027,196.33065454097232,196.33065454097232,196.33065454097232,196.33065454097232,3.998581917025149,197.33072924998123,200002,006,2023-03-16_16h25.32.893,DMS_BEST_eyetracking_DAN_base_12-36_looped_10minWORKING,2022.2.4,None,
19,PRED,12,1.0636625021784538,0,images/picture_1.png,images/picture_1.png,0,"[-11.733433509789466, -11.733433509789462]",-11.733433509789464,-11.733433509789462,images/picture_2.png,1,"[-11.733433509789462, 11.733433509789464]",-11.733433509789462,11.733433509789464,images/picture_3.png,2,"[11.733433509789464, 11.733433509789462]",11.733433509789464,11.733433509789462,0,1,1,1.0636625021784538,2.0636625021784543,0.9363374978215462,3,1,1.8136625021784536,0,2,0,2,0,0,7,7,1,,,,,,,,,,,,,,,,,,,,,200002,006,2023-03-16_16h25.32.893,DMS_BEST_eyetracking_DAN_base_12-36_looped_10minWORKING,2022.2.4,None,
19,PRED,12,1.0636625021784538,0,images/picture_1.png,images/picture_1.png,0,"[-11.733433509789466, -11.733433509789462]",-11.733433509789464,-11.733433509789462,images/picture_2.png,1,"[-11.733433509789462, 11.733433509789464]",-11.733433509789462,11.733433509789464,images/picture_3.png,2,"[11.733433509789464, 11.733433509789462]",11.733433509789464,11.733433509789462,0,1,1,1.0636625021784538,2.0636625021784543,0.9363374978215462,3,1,1.8136625021784536,0,2,0,2,0,0,7,7,1,,,,,,,0.0014747499953955412,197.33072924998123,197.33072924998123,198.33070654101903,199.14922437502537,199.39715924998745,199.39715924998745,199.39715924998745,200.33050966600422,200.33050966600422,200.33050966600422,200.33050966600422,3.9974973329808563,201.3302411250188,200002,006,2023-03-16_16h25.32.893,DMS_BEST_eyetracking_DAN_base_12-36_looped_10minWORKING,2022.2.4,None,
20,PRED,12,0.8246721192707676,0,images/picture_1.png,images/picture_1.png,0,"[-11.733433509789466, -11.733433509789462]",-11.733433509789464,-11.733433509789462,images/picture_2.png,1,"[11.733433509789464, 11.733433509789462]",11.733433509789464,11.733433509789462,images/picture_3.png,2,"[-11.733433509789462, 11.733433509789464]",-11.733433509789462,11.733433509789464,0,1,1,0.8246721192707676,1.824672119270768,1.1753278807292324,3,1,1.5746721192707676,0,2,0,2,0,0,8,8,2,,,,,,,,,,,,,,,,,,,,,200002,006,2023-03-16_16h25.32.893,DMS_BEST_eyetracking_DAN_base_12-36_looped_10minWORKING,2022.2.4,None,
20,PRED,12,0.8246721192707676,0,images/picture_1.png,images/picture_1.png,0,"[-11.733433509789466, -11.733433509789462]",-11.733433509789464,-11.733433509789462,images/picture_2.png,1,"[11.733433509789464, 11.733433509789462]",11.733433509789464,11.733433509789462,images/picture_3.png,2,"[-11.733433509789462, 11.733433509789464]",-11.733433509789462,11.733433509789464,0,1,1,0.8246721192707676,1.824672119270768,1.1753278807292324,3,1,1.5746721192707676,0,2,0,2,0,0,8,8,2,,,,,,,0.0015221249777823687,201.3302411250188,201.3302411250188,202.3303872909746,202.91604654100956,203.14937025000108,203.14937025000108,203.14937025000108,204.3327505409834,204.3327505409834,204.3327505409834,204.3327505409834,3.998145166959148,205.35564933298156,200002,006,2023-03-16_16h25.32.893,DMS_BEST_eyetracking_DAN_base_12-36_looped_10minWORKING,2022.2.4,None,
,,,,,,,,,,,,,,,,,,,,,,,,,,,,,,,2,0,2,0,,,,,,,,,205.35564933298156,217.38336087501375,,,,,,,,,,,,,,,200002,006,2023-03-16_16h25.32.893,DMS_BEST_eyetracking_DAN_base_12-36_looped_10minWORKING,2022.2.4,None,
30,UNPRED,12,0.573823991129461,1,images/picture_2.png,images/picture_1.png,0,"[-11.733433509789466, -11.733433509789462]",-11.733433509789464,-11.733433509789462,images/picture_2.png,1,"[11.733433509789464, 11.733433509789462]",11.733433509789464,11.733433509789462,images/picture_3.png,2,"[-11.733433509789462, 11.733433509789464]",-11.733433509789462,11.733433509789464,0,1,1,0.573823991129461,1.5738239911294611,1.4261760088705389,3,1,1.3238239911294611,0,3,0,3,0,0,0,0,3,,,,,,,,,,,,,,,,,,,,,200002,006,2023-03-16_16h25.32.893,DMS_BEST_eyetracking_DAN_base_12-36_looped_10minWORKING,2022.2.4,None,
30,UNPRED,12,0.573823991129461,1,images/picture_2.png,images/picture_1.png,0,"[-11.733433509789466, -11.733433509789462]",-11.733433509789464,-11.733433509789462,images/picture_2.png,1,"[11.733433509789464, 11.733433509789462]",11.733433509789464,11.733433509789462,images/picture_3.png,2,"[-11.733433509789462, 11.733433509789464]",-11.733433509789462,11.733433509789464,0,1,1,0.573823991129461,1.5738239911294611,1.4261760088705389,3,1,1.3238239911294611,0,3,0,3,0,0,0,0,3,,,,,,,0.0028737499960698187,217.38336087501375,217.38336087501375,218.39714237500448,218.71613391599385,218.94961133302422,218.94961133302422,218.94961133302422,220.3822816250031,220.3822816250031,220.3822816250031,220.3634261660045,4.022575290990062,221.36355975002516,200002,006,2023-03-16_16h25.32.893,DMS_BEST_eyetracking_DAN_base_12-36_looped_10minWORKING,2022.2.4,None,
28,UNPRED,12,0.6810423283775424,1,images/picture_2.png,images/picture_1.png,0,"[11.733433509789462, -11.733433509789466]",11.733433509789462,-11.733433509789464,images/picture_2.png,1,"[11.733433509789464, 11.733433509789462]",11.733433509789464,11.733433509789462,images/picture_3.png,2,"[-11.733433509789466, -11.733433509789462]",-11.733433509789464,-11.733433509789462,0,1,1,0.6810423283775424,1.6810423283775424,1.3189576716224576,3,1,1.4310423283775424,0,3,0,3,0,0,1,1,1,,,,,,,,,,,,,,,,,,,,,200002,006,2023-03-16_16h25.32.893,DMS_BEST_eyetracking_DAN_base_12-36_looped_10minWORKING,2022.2.4,None,
28,UNPRED,12,0.6810423283775424,1,images/picture_2.png,images/picture_1.png,0,"[11.733433509789462, -11.733433509789466]",11.733433509789462,-11.733433509789464,images/picture_2.png,1,"[11.733433509789464, 11.733433509789462]",11.733433509789464,11.733433509789462,images/picture_3.png,2,"[-11.733433509789466, -11.733433509789462]",-11.733433509789464,-11.733433509789462,0,1,1,0.6810423283775424,1.6810423283775424,1.3189576716224576,3,1,1.4310423283775424,0,3,0,3,0,0,1,1,1,,,,,,,0.0025587499840185046,221.39679712499492,221.39679712499492,222.3968360410072,222.8321543749771,223.08232287497958,223.08232287497958,223.08232287497958,224.4157842079876,224.4157842079876,224.4157842079876,224.3966510000173,3.996211207995657,225.3963516660151,200002,006,2023-03-16_16h25.32.893,DMS_BEST_eyetracking_DAN_base_12-36_looped_10minWORKING,2022.2.4,None,
31,UNPRED,12,0.7474019836353242,0,images/picture_1.png,images/picture_1.png,0,"[-11.733433509789462, 11.733433509789464]",-11.733433509789462,11.733433509789464,images/picture_2.png,1,"[11.733433509789462, -11.733433509789466]",11.733433509789462,-11.733433509789464,images/picture_3.png,2,"[11.733433509789464, 11.733433509789462]",11.733433509789464,11.733433509789462,0,1,1,0.7474019836353242,1.7474019836353245,1.2525980163646755,3,1,1.4974019836353245,0,3,0,3,0,0,2,2,4,,,,,,,,,,,,,,,,,,,,,200002,006,2023-03-16_16h25.32.893,DMS_BEST_eyetracking_DAN_base_12-36_looped_10minWORKING,2022.2.4,None,
31,UNPRED,12,0.7474019836353242,0,images/picture_1.png,images/picture_1.png,0,"[-11.733433509789462, 11.733433509789464]",-11.733433509789462,11.733433509789464,images/picture_2.png,1,"[11.733433509789462, -11.733433509789466]",11.733433509789462,-11.733433509789464,images/picture_3.png,2,"[11.733433509789464, 11.733433509789462]",11.733433509789464,11.733433509789462,0,1,1,0.7474019836353242,1.7474019836353245,1.2525980163646755,3,1,1.4974019836353245,0,3,0,3,0,0,2,2,4,,,,,,,0.002071583003271371,225.3963516660151,225.3963516660151,226.39686283300398,226.89667004102375,227.13007304101484,227.13007304101484,227.13007304101484,228.39681845798623,228.39681845798623,228.39681845798623,228.39681845798623,3.997203375038225,229.39665679098107,200002,006,2023-03-16_16h25.32.893,DMS_BEST_eyetracking_DAN_base_12-36_looped_10minWORKING,2022.2.4,None,
32,UNPRED,12,0.7527913645606261,1,images/picture_2.png,images/picture_1.png,0,"[-11.733433509789466, -11.733433509789462]",-11.733433509789464,-11.733433509789462,images/picture_2.png,1,"[11.733433509789462, -11.733433509789466]",11.733433509789462,-11.733433509789464,images/picture_3.png,2,"[-11.733433509789462, 11.733433509789464]",-11.733433509789462,11.733433509789464,0,1,1,0.7527913645606261,1.752791364560626,1.247208635439374,3,1,1.502791364560626,0,3,0,3,0,0,3,3,5,,,,,,,,,,,,,,,,,,,,,200002,006,2023-03-16_16h25.32.893,DMS_BEST_eyetracking_DAN_base_12-36_looped_10minWORKING,2022.2.4,None,
32,UNPRED,12,0.7527913645606261,1,images/picture_2.png,images/picture_1.png,0,"[-11.733433509789466, -11.733433509789462]",-11.733433509789464,-11.733433509789462,images/picture_2.png,1,"[11.733433509789462, -11.733433509789466]",11.733433509789462,-11.733433509789464,images/picture_3.png,2,"[-11.733433509789462, 11.733433509789464]",-11.733433509789462,11.733433509789464,0,1,1,0.7527913645606261,1.752791364560626,1.247208635439374,3,1,1.502791364560626,0,3,0,3,0,0,3,3,5,,,,,,,0.002311500022187829,229.39665679098107,229.39665679098107,230.3966082080151,230.89660841599107,231.14878804102773,231.14878804102773,231.14878804102773,232.39666974998545,232.39666974998545,232.39666974998545,232.39666974998545,3.9983182080322877,233.39617904101033,200002,006,2023-03-16_16h25.32.893,DMS_BEST_eyetracking_DAN_base_12-36_looped_10minWORKING,2022.2.4,None,
35,UNPRED,12,0.6388349772300304,1,images/picture_2.png,images/picture_1.png,0,"[-11.733433509789466, -11.733433509789462]",-11.733433509789464,-11.733433509789462,images/picture_2.png,1,"[11.733433509789462, -11.733433509789466]",11.733433509789462,-11.733433509789464,images/picture_3.png,2,"[-11.733433509789462, 11.733433509789464]",-11.733433509789462,11.733433509789464,0,1,1,0.6388349772300304,1.6388349772300304,1.3611650227699696,3,1,1.3888349772300304,0,3,0,3,0,0,4,4,8,,,,,,,,,,,,,,,,,,,,,200002,006,2023-03-16_16h25.32.893,DMS_BEST_eyetracking_DAN_base_12-36_looped_10minWORKING,2022.2.4,None,
35,UNPRED,12,0.6388349772300304,1,images/picture_2.png,images/picture_1.png,0,"[-11.733433509789466, -11.733433509789462]",-11.733433509789464,-11.733433509789462,images/picture_2.png,1,"[11.733433509789462, -11.733433509789466]",11.733433509789462,-11.733433509789464,images/picture_3.png,2,"[-11.733433509789462, 11.733433509789464]",-11.733433509789462,11.733433509789464,0,1,1,0.6388349772300304,1.6388349772300304,1.3611650227699696,3,1,1.3888349772300304,0,3,0,3,0,0,4,4,8,,,,,,,0.0020475409692153335,233.39617904101033,233.39617904101033,234.39656433300115,234.7964522910188,235.02975095802685,235.02975095802685,235.02975095802685,236.3965104999952,236.3965104999952,236.3965104999952,236.3965104999952,3.9962117910035886,237.39634487498552,200002,006,2023-03-16_16h25.32.893,DMS_BEST_eyetracking_DAN_base_12-36_looped_10minWORKING,2022.2.4,None,
34,UNPRED,12,0.7392162660346036,1,images/picture_2.png,images/picture_1.png,0,"[11.733433509789462, -11.733433509789466]",11.733433509789462,-11.733433509789464,images/picture_2.png,1,"[-11.733433509789462, 11.733433509789464]",-11.733433509789462,11.733433509789464,images/picture_3.png,2,"[-11.733433509789466, -11.733433509789462]",-11.733433509789464,-11.733433509789462,0,1,1,0.7392162660346036,1.7392162660346036,1.2607837339653964,3,1,1.4892162660346036,0,3,0,3,0,0,5,5,7,,,,,,,,,,,,,,,,,,,,,200002,006,2023-03-16_16h25.32.893,DMS_BEST_eyetracking_DAN_base_12-36_looped_10minWORKING,2022.2.4,None,
34,UNPRED,12,0.7392162660346036,1,images/picture_2.png,images/picture_1.png,0,"[11.733433509789462, -11.733433509789466]",11.733433509789462,-11.733433509789464,images/picture_2.png,1,"[-11.733433509789462, 11.733433509789464]",-11.733433509789462,11.733433509789464,images/picture_3.png,2,"[-11.733433509789466, -11.733433509789462]",-11.733433509789464,-11.733433509789462,0,1,1,0.7392162660346036,1.7392162660346036,1.2607837339653964,3,1,1.4892162660346036,0,3,0,3,0,0,5,5,7,,,,,,,0.0018987079965882003,237.39634487498552,237.39634487498552,238.3964720829972,238.89650391601026,239.12987566599622,239.12987566599622,239.12987566599622,240.39629970799433,240.39629970799433,240.39629970799433,240.39629970799433,3.999778791971039,241.3970943330205,200002,006,2023-03-16_16h25.32.893,DMS_BEST_eyetracking_DAN_base_12-36_looped_10minWORKING,2022.2.4,None,
33,UNPRED,12,0.5786433577877561,1,images/picture_2.png,images/picture_1.png,0,"[-11.733433509789466, -11.733433509789462]",-11.733433509789464,-11.733433509789462,images/picture_2.png,1,"[11.733433509789464, 11.733433509789462]",11.733433509789464,11.733433509789462,images/picture_3.png,2,"[11.733433509789462, -11.733433509789466]",11.733433509789462,-11.733433509789464,0,1,1,0.5786433577877561,1.5786433577877557,1.4213566422122443,3,1,1.3286433577877559,0,3,0,3,0,0,6,6,6,,,,,,,,,,,,,,,,,,,,,200002,006,2023-03-16_16h25.32.893,DMS_BEST_eyetracking_DAN_base_12-36_looped_10minWORKING,2022.2.4,None,
33,UNPRED,12,0.5786433577877561,1,images/picture_2.png,images/picture_1.png,0,"[-11.733433509789466, -11.733433509789462]",-11.733433509789464,-11.733433509789462,images/picture_2.png,1,"[11.733433509789464, 11.733433509789462]",11.733433509789464,11.733433509789462,images/picture_3.png,2,"[11.733433509789462, -11.733433509789466]",11.733433509789462,-11.733433509789464,0,1,1,0.5786433577877561,1.5786433577877557,1.4213566422122443,3,1,1.3286433577877559,0,3,0,3,0,0,6,6,6,,,,,,,0.0021086669876240194,241.3970943330205,241.3970943330205,242.39636449998943,242.73008599999594,242.96294620801928,242.96294620801928,242.96294620801928,244.39629520801827,244.39629520801827,244.39629520801827,244.39629520801827,3.9968685419880785,245.39600220799912,200002,006,2023-03-16_16h25.32.893,DMS_BEST_eyetracking_DAN_base_12-36_looped_10minWORKING,2022.2.4,None,
29,UNPRED,12,0.5049538424212607,2,images/picture_3.png,images/picture_1.png,0,"[-11.733433509789462, 11.733433509789464]",-11.733433509789462,11.733433509789464,images/picture_2.png,1,"[11.733433509789464, 11.733433509789462]",11.733433509789464,11.733433509789462,images/picture_3.png,2,"[-11.733433509789466, -11.733433509789462]",-11.733433509789464,-11.733433509789462,0,1,1,0.5049538424212607,1.5049538424212607,1.4950461575787393,3,1,1.2549538424212607,0,3,0,3,0,0,7,7,2,,,,,,,,,,,,,,,,,,,,,200002,006,2023-03-16_16h25.32.893,DMS_BEST_eyetracking_DAN_base_12-36_looped_10minWORKING,2022.2.4,None,
29,UNPRED,12,0.5049538424212607,2,images/picture_3.png,images/picture_1.png,0,"[-11.733433509789462, 11.733433509789464]",-11.733433509789462,11.733433509789464,images/picture_2.png,1,"[11.733433509789464, 11.733433509789462]",11.733433509789464,11.733433509789462,images/picture_3.png,2,"[-11.733433509789466, -11.733433509789462]",-11.733433509789464,-11.733433509789462,0,1,1,0.5049538424212607,1.5049538424212607,1.4950461575787393,3,1,1.2549538424212607,0,3,0,3,0,0,7,7,2,,,,,,,0.0027781249955296516,245.39600220799912,245.39600220799912,246.39706375001697,246.6631476660259,246.89627600001404,246.89627600001404,246.89627600001404,248.3963458330254,248.3963458330254,248.3963458330254,248.3963458330254,3.997254249989055,249.3965122079826,200002,006,2023-03-16_16h25.32.893,DMS_BEST_eyetracking_DAN_base_12-36_looped_10minWORKING,2022.2.4,None,
27,UNPRED,12,0.9540388162126128,0,images/picture_1.png,images/picture_1.png,0,"[-11.733433509789462, 11.733433509789464]",-11.733433509789462,11.733433509789464,images/picture_2.png,1,"[11.733433509789462, -11.733433509789466]",11.733433509789462,-11.733433509789464,images/picture_3.png,2,"[11.733433509789464, 11.733433509789462]",11.733433509789464,11.733433509789462,0,1,1,0.9540388162126128,1.9540388162126128,1.0459611837873872,3,1,1.7040388162126128,0,3,0,3,0,0,8,8,0,,,,,,,,,,,,,,,,,,,,,200002,006,2023-03-16_16h25.32.893,DMS_BEST_eyetracking_DAN_base_12-36_looped_10minWORKING,2022.2.4,None,
27,UNPRED,12,0.9540388162126128,0,images/picture_1.png,images/picture_1.png,0,"[-11.733433509789462, 11.733433509789464]",-11.733433509789462,11.733433509789464,images/picture_2.png,1,"[11.733433509789462, -11.733433509789466]",11.733433509789462,-11.733433509789464,images/picture_3.png,2,"[11.733433509789464, 11.733433509789462]",11.733433509789464,11.733433509789462,0,1,1,0.9540388162126128,1.9540388162126128,1.0459611837873872,3,1,1.7040388162126128,0,3,0,3,0,0,8,8,0,,,,,,,0.003366749966517091,249.3965122079826,249.3965122079826,250.396215707995,251.11528283299413,251.3490195000195,251.3490195000195,251.3490195000195,252.39617887500208,252.39617887500208,252.39617887500208,252.39617887500208,3.9971344160148874,253.42986350000137,200002,006,2023-03-16_16h25.32.893,DMS_BEST_eyetracking_DAN_base_12-36_looped_10minWORKING,2022.2.4,None,
,,,,,,,,,,,,,,,,,,,,,,,,,,,,,,,3,0,3,0,,,,,,,,,253.42986350000137,265.4482808330213,,,,,,,,,,,,,,,200002,006,2023-03-16_16h25.32.893,DMS_BEST_eyetracking_DAN_base_12-36_looped_10minWORKING,2022.2.4,None,
42,PRED,12,1.0874643579226977,0,images/picture_1.png,images/picture_1.png,0,"[11.733433509789462, -11.733433509789466]",11.733433509789462,-11.733433509789464,images/picture_2.png,1,"[-11.733433509789466, -11.733433509789462]",-11.733433509789464,-11.733433509789462,images/picture_3.png,2,"[-11.733433509789462, 11.733433509789464]",-11.733433509789462,11.733433509789464,0,1,1,1.0874643579226977,2.087464357922697,0.9125356420773024,3,1,1.8374643579226972,0,4,0,4,0,0,0,0,6,,,,,,,,,,,,,,,,,,,,,200002,006,2023-03-16_16h25.32.893,DMS_BEST_eyetracking_DAN_base_12-36_looped_10minWORKING,2022.2.4,None,
42,PRED,12,1.0874643579226977,0,images/picture_1.png,images/picture_1.png,0,"[11.733433509789462, -11.733433509789466]",11.733433509789462,-11.733433509789464,images/picture_2.png,1,"[-11.733433509789466, -11.733433509789462]",-11.733433509789464,-11.733433509789462,images/picture_3.png,2,"[-11.733433509789462, 11.733433509789464]",-11.733433509789462,11.733433509789464,0,1,1,1.0874643579226977,2.087464357922697,0.9125356420773024,3,1,1.8374643579226972,0,4,0,4,0,0,0,0,6,,,,,,,0.0017959579708985984,265.4482808330213,265.4482808330213,266.46258629101794,267.29586816602387,267.52939716598485,267.52939716598485,267.52939716598485,268.4484081250266,268.4484081250266,268.4484081250266,268.4299444159842,4.0206858330057,269.4294009159785,200002,006,2023-03-16_16h25.32.893,DMS_BEST_eyetracking_DAN_base_12-36_looped_10minWORKING,2022.2.4,None,
36,PRED,12,0.5161954292699176,0,images/picture_1.png,images/picture_1.png,0,"[-11.733433509789462, 11.733433509789464]",-11.733433509789462,11.733433509789464,images/picture_2.png,1,"[11.733433509789462, -11.733433509789466]",11.733433509789462,-11.733433509789464,images/picture_3.png,2,"[-11.733433509789466, -11.733433509789462]",-11.733433509789464,-11.733433509789462,0,1,1,0.5161954292699176,1.5161954292699176,1.4838045707300824,3,1,1.2661954292699176,0,4,0,4,0,0,1,1,0,,,,,,,,,,,,,,,,,,,,,200002,006,2023-03-16_16h25.32.893,DMS_BEST_eyetracking_DAN_base_12-36_looped_10minWORKING,2022.2.4,None,
36,PRED,12,0.5161954292699176,0,images/picture_1.png,images/picture_1.png,0,"[-11.733433509789462, 11.733433509789464]",-11.733433509789462,11.733433509789464,images/picture_2.png,1,"[11.733433509789462, -11.733433509789466]",11.733433509789462,-11.733433509789464,images/picture_3.png,2,"[-11.733433509789466, -11.733433509789462]",-11.733433509789464,-11.733433509789462,0,1,1,0.5161954292699176,1.5161954292699176,1.4838045707300824,3,1,1.2661954292699176,0,4,0,4,0,0,1,1,0,,,,,,,0.0015974160050973296,269.46237033297075,269.46237033297075,270.46270983299473,270.72935016598785,270.98164324997924,270.98164324997924,270.98164324997924,272.46250424999744,272.46250424999744,272.46250424999744,272.46250424999744,3.9968081249971874,273.4622979579726,200002,006,2023-03-16_16h25.32.893,DMS_BEST_eyetracking_DAN_base_12-36_looped_10minWORKING,2022.2.4,None,
40,PRED,12,1.0472805384791282,0,images/picture_1.png,images/picture_1.png,0,"[-11.733433509789466, -11.733433509789462]",-11.733433509789464,-11.733433509789462,images/picture_2.png,1,"[11.733433509789462, -11.733433509789466]",11.733433509789462,-11.733433509789464,images/picture_3.png,2,"[-11.733433509789462, 11.733433509789464]",-11.733433509789462,11.733433509789464,0,1,1,1.0472805384791282,2.047280538479128,0.9527194615208718,3,1,1.7972805384791282,0,4,0,4,0,0,2,2,4,,,,,,,,,,,,,,,,,,,,,200002,006,2023-03-16_16h25.32.893,DMS_BEST_eyetracking_DAN_base_12-36_looped_10minWORKING,2022.2.4,None,
40,PRED,12,1.0472805384791282,0,images/picture_1.png,images/picture_1.png,0,"[-11.733433509789466, -11.733433509789462]",-11.733433509789464,-11.733433509789462,images/picture_2.png,1,"[11.733433509789462, -11.733433509789466]",11.733433509789462,-11.733433509789464,images/picture_3.png,2,"[-11.733433509789462, 11.733433509789464]",-11.733433509789462,11.733433509789464,0,1,1,1.0472805384791282,2.047280538479128,0.9527194615208718,3,1,1.7972805384791282,0,4,0,4,0,0,2,2,4,,,,,,,0.0014496659860014915,273.4622979579726,273.4622979579726,274.4623923749896,275.26252666598884,275.49577224999666,275.49577224999666,275.49577224999666,276.4624316249974,276.4624316249974,276.4624316249974,276.4624316249974,3.9976352500380017,277.462086457992,200002,006,2023-03-16_16h25.32.893,DMS_BEST_eyetracking_DAN_base_12-36_looped_10minWORKING,2022.2.4,None,
41,PRED,12,1.0143758838938273,0,images/picture_1.png,images/picture_1.png,0,"[11.733433509789462, -11.733433509789466]",11.733433509789462,-11.733433509789464,images/picture_2.png,1,"[11.733433509789464, 11.733433509789462]",11.733433509789464,11.733433509789462,images/picture_3.png,2,"[-11.733433509789466, -11.733433509789462]",-11.733433509789464,-11.733433509789462,0,1,1,1.0143758838938273,2.0143758838938277,0.9856241161061728,3,1,1.7643758838938273,0,4,0,4,0,0,3,3,5,,,,,,,,,,,,,,,,,,,,,200002,006,2023-03-16_16h25.32.893,DMS_BEST_eyetracking_DAN_base_12-36_looped_10minWORKING,2022.2.4,None,
41,PRED,12,1.0143758838938273,0,images/picture_1.png,images/picture_1.png,0,"[11.733433509789462, -11.733433509789466]",11.733433509789462,-11.733433509789464,images/picture_2.png,1,"[11.733433509789464, 11.733433509789462]",11.733433509789464,11.733433509789462,images/picture_3.png,2,"[-11.733433509789466, -11.733433509789462]",-11.733433509789464,-11.733433509789462,0,1,1,1.0143758838938273,2.0143758838938277,0.9856241161061728,3,1,1.7643758838938273,0,4,0,4,0,0,3,3,5,,,,,,,0.0015078750438988209,277.462086457992,277.462086457992,278.4637304159696,279.22902366600465,279.4624195829965,279.4624195829965,279.4624195829965,280.4625428749714,280.4625428749714,280.4625428749714,280.4625428749714,3.996780541026965,281.4625005410053,200002,006,2023-03-16_16h25.32.893,DMS_BEST_eyetracking_DAN_base_12-36_looped_10minWORKING,2022.2.4,None,
43,PRED,12,0.9015099572689644,0,images/picture_1.png,images/picture_1.png,0,"[-11.733433509789466, -11.733433509789462]",-11.733433509789464,-11.733433509789462,images/picture_2.png,1,"[-11.733433509789462, 11.733433509789464]",-11.733433509789462,11.733433509789464,images/picture_3.png,2,"[11.733433509789462, -11.733433509789466]",11.733433509789462,-11.733433509789464,0,1,1,0.9015099572689644,1.9015099572689644,1.0984900427310356,3,1,1.6515099572689644,0,4,0,4,0,0,4,4,7,,,,,,,,,,,,,,,,,,,,,200002,006,2023-03-16_16h25.32.893,DMS_BEST_eyetracking_DAN_base_12-36_looped_10minWORKING,2022.2.4,None,
43,PRED,12,0.9015099572689644,0,images/picture_1.png,images/picture_1.png,0,"[-11.733433509789466, -11.733433509789462]",-11.733433509789464,-11.733433509789462,images/picture_2.png,1,"[-11.733433509789462, 11.733433509789464]",-11.733433509789462,11.733433509789464,images/picture_3.png,2,"[11.733433509789462, -11.733433509789466]",11.733433509789462,-11.733433509789464,0,1,1,0.9015099572689644,1.9015099572689644,1.0984900427310356,3,1,1.6515099572689644,0,4,0,4,0,0,4,4,7,,,,,,,0.0014693749835714698,281.4625005410053,281.4625005410053,282.46223075001035,283.11655712500215,283.36216237500776,283.36216237500776,283.36216237500776,284.4626590000116,284.4626590000116,284.4626590000116,284.4626590000116,3.9977924170088954,285.4621095409966,200002,006,2023-03-16_16h25.32.893,DMS_BEST_eyetracking_DAN_base_12-36_looped_10minWORKING,2022.2.4,None,
44,PRED,12,0.8098582499586091,0,images/picture_1.png,images/picture_1.png,0,"[11.733433509789464, 11.733433509789462]",11.733433509789464,11.733433509789462,images/picture_2.png,1,"[-11.733433509789466, -11.733433509789462]",-11.733433509789464,-11.733433509789462,images/picture_3.png,2,"[-11.733433509789462, 11.733433509789464]",-11.733433509789462,11.733433509789464,0,1,1,0.8098582499586091,1.809858249958609,1.190141750041391,3,1,1.559858249958609,0,4,0,4,0,0,5,5,8,,,,,,,,,,,,,,,,,,,,,200002,006,2023-03-16_16h25.32.893,DMS_BEST_eyetracking_DAN_base_12-36_looped_10minWORKING,2022.2.4,None,
44,PRED,12,0.8098582499586091,0,images/picture_1.png,images/picture_1.png,0,"[11.733433509789464, 11.733433509789462]",11.733433509789464,11.733433509789462,images/picture_2.png,1,"[-11.733433509789466, -11.733433509789462]",-11.733433509789464,-11.733433509789462,images/picture_3.png,2,"[-11.733433509789462, 11.733433509789464]",-11.733433509789462,11.733433509789464,0,1,1,0.8098582499586091,1.809858249958609,1.190141750041391,3,1,1.559858249958609,0,4,0,4,0,0,5,5,8,,,,,,,0.0013887090026400983,285.4621095409966,285.4621095409966,286.4622795410105,287.02919687499525,287.2621379159973,287.2621379159973,287.2621379159973,288.4623786659795,288.4623786659795,288.4623786659795,288.4623786659795,3.9987950840150006,289.46202641597483,200002,006,2023-03-16_16h25.32.893,DMS_BEST_eyetracking_DAN_base_12-36_looped_10minWORKING,2022.2.4,None,
38,PRED,12,1.168064482476349,0,images/picture_1.png,images/picture_1.png,0,"[-11.733433509789462, 11.733433509789464]",-11.733433509789462,11.733433509789464,images/picture_2.png,1,"[11.733433509789464, 11.733433509789462]",11.733433509789464,11.733433509789462,images/picture_3.png,2,"[-11.733433509789466, -11.733433509789462]",-11.733433509789464,-11.733433509789462,0,1,1,1.168064482476349,2.1680644824763493,0.8319355175236509,3,1,1.9180644824763489,0,4,0,4,0,0,6,6,2,,,,,,,,,,,,,,,,,,,,,200002,006,2023-03-16_16h25.32.893,DMS_BEST_eyetracking_DAN_base_12-36_looped_10minWORKING,2022.2.4,None,
38,PRED,12,1.168064482476349,0,images/picture_1.png,images/picture_1.png,0,"[-11.733433509789462, 11.733433509789464]",-11.733433509789462,11.733433509789464,images/picture_2.png,1,"[11.733433509789464, 11.733433509789462]",11.733433509789464,11.733433509789462,images/picture_3.png,2,"[-11.733433509789466, -11.733433509789462]",-11.733433509789464,-11.733433509789462,0,1,1,1.168064482476349,2.1680644824763493,0.8319355175236509,3,1,1.9180644824763489,0,4,0,4,0,0,6,6,2,,,,,,,0.0014395000180229545,289.46202641597483,289.46202641597483,290.4623414159869,291.39574762497796,291.6289292079746,291.6289292079746,291.6289292079746,292.46346175001236,292.46346175001236,292.46346175001236,292.46346175001236,3.9984630420221947,293.4621699160198,200002,006,2023-03-16_16h25.32.893,DMS_BEST_eyetracking_DAN_base_12-36_looped_10minWORKING,2022.2.4,None,
39,PRED,12,0.8464932128064824,0,images/picture_1.png,images/picture_1.png,0,"[11.733433509789464, 11.733433509789462]",11.733433509789464,11.733433509789462,images/picture_2.png,1,"[-11.733433509789462, 11.733433509789464]",-11.733433509789462,11.733433509789464,images/picture_3.png,2,"[11.733433509789462, -11.733433509789466]",11.733433509789462,-11.733433509789464,0,1,1,0.8464932128064824,1.8464932128064824,1.1535067871935176,3,1,1.5964932128064824,0,4,0,4,0,0,7,7,3,,,,,,,,,,,,,,,,,,,,,200002,006,2023-03-16_16h25.32.893,DMS_BEST_eyetracking_DAN_base_12-36_looped_10minWORKING,2022.2.4,None,
39,PRED,12,0.8464932128064824,0,images/picture_1.png,images/picture_1.png,0,"[11.733433509789464, 11.733433509789462]",11.733433509789464,11.733433509789462,images/picture_2.png,1,"[-11.733433509789462, 11.733433509789464]",-11.733433509789462,11.733433509789464,images/picture_3.png,2,"[11.733433509789462, -11.733433509789466]",11.733433509789462,-11.733433509789464,0,1,1,0.8464932128064824,1.8464932128064824,1.1535067871935176,3,1,1.5964932128064824,0,4,0,4,0,0,7,7,3,,,,,,,0.0014226249768398702,293.4621699160198,293.4621699160198,294.46208445797674,295.0624352499726,295.2955015000189,295.2955015000189,295.2955015000189,296.46206412499305,296.46206412499305,296.46206412499305,296.46206412499305,3.999005790974479,297.462523041002,200002,006,2023-03-16_16h25.32.893,DMS_BEST_eyetracking_DAN_base_12-36_looped_10minWORKING,2022.2.4,None,
37,PRED,12,0.5676011109451011,0,images/picture_1.png,images/picture_1.png,0,"[-11.733433509789466, -11.733433509789462]",-11.733433509789464,-11.733433509789462,images/picture_2.png,1,"[11.733433509789462, -11.733433509789466]",11.733433509789462,-11.733433509789464,images/picture_3.png,2,"[-11.733433509789462, 11.733433509789464]",-11.733433509789462,11.733433509789464,0,1,1,0.5676011109451011,1.5676011109451011,1.4323988890548989,3,1,1.3176011109451011,0,4,0,4,0,0,8,8,1,,,,,,,,,,,,,,,,,,,,,200002,006,2023-03-16_16h25.32.893,DMS_BEST_eyetracking_DAN_base_12-36_looped_10minWORKING,2022.2.4,None,
37,PRED,12,0.5676011109451011,0,images/picture_1.png,images/picture_1.png,0,"[-11.733433509789466, -11.733433509789462]",-11.733433509789464,-11.733433509789462,images/picture_2.png,1,"[11.733433509789462, -11.733433509789466]",11.733433509789462,-11.733433509789464,images/picture_3.png,2,"[-11.733433509789462, 11.733433509789464]",-11.733433509789462,11.733433509789464,0,1,1,0.5676011109451011,1.5676011109451011,1.4323988890548989,3,1,1.3176011109451011,0,4,0,4,0,0,8,8,1,,,,,,,0.0014212499954737723,297.462523041002,297.462523041002,298.46242454100866,298.7954033749993,299.02937387500424,299.02937387500424,299.02937387500424,300.4619363750098,300.4619363750098,300.4619363750098,300.4619363750098,3.9979023750056513,301.5047486249823,200002,006,2023-03-16_16h25.32.893,DMS_BEST_eyetracking_DAN_base_12-36_looped_10minWORKING,2022.2.4,None,
,,,,,,,,,,,,,,,,,,,,,,,,,,,,,,,4,0,4,0,,,,,,,,,301.5047486249823,313.5151804999914,,,,,,,,,,,,,,,200002,006,2023-03-16_16h25.32.893,DMS_BEST_eyetracking_DAN_base_12-36_looped_10minWORKING,2022.2.4,None,
51,UNPRED,12,1.1866765356901987,2,images/picture_3.png,images/picture_1.png,0,"[11.733433509789464, 11.733433509789462]",11.733433509789464,11.733433509789462,images/picture_2.png,1,"[11.733433509789462, -11.733433509789466]",11.733433509789462,-11.733433509789464,images/picture_3.png,2,"[-11.733433509789462, 11.733433509789464]",-11.733433509789462,11.733433509789464,0,1,1,1.1866765356901987,2.1866765356901987,0.8133234643098013,3,1,1.9366765356901987,0,5,0,5,0,0,0,0,6,,,,,,,,,,,,,,,,,,,,,200002,006,2023-03-16_16h25.32.893,DMS_BEST_eyetracking_DAN_base_12-36_looped_10minWORKING,2022.2.4,None,
51,UNPRED,12,1.1866765356901987,2,images/picture_3.png,images/picture_1.png,0,"[11.733433509789464, 11.733433509789462]",11.733433509789464,11.733433509789462,images/picture_2.png,1,"[11.733433509789462, -11.733433509789466]",11.733433509789462,-11.733433509789464,images/picture_3.png,2,"[-11.733433509789462, 11.733433509789464]",-11.733433509789462,11.733433509789464,0,1,1,1.1866765356901987,2.1866765356901987,0.8133234643098013,3,1,1.9366765356901987,0,5,0,5,0,0,0,0,6,,,,,,,0.001993625017348677,313.5151804999914,313.5151804999914,314.52839429100277,315.46287845802726,315.6949992500013,315.6949992500013,315.6949992500013,316.51427250000415,316.51427250000415,316.51427250000415,316.51427250000415,4.008095292025246,317.5280405000085,200002,006,2023-03-16_16h25.32.893,DMS_BEST_eyetracking_DAN_base_12-36_looped_10minWORKING,2022.2.4,None,
50,UNPRED,12,0.5505844331070597,1,images/picture_2.png,images/picture_1.png,0,"[11.733433509789462, -11.733433509789466]",11.733433509789462,-11.733433509789464,images/picture_2.png,1,"[-11.733433509789462, 11.733433509789464]",-11.733433509789462,11.733433509789464,images/picture_3.png,2,"[11.733433509789464, 11.733433509789462]",11.733433509789464,11.733433509789462,0,1,1,0.5505844331070597,1.5505844331070595,1.4494155668929405,3,1,1.3005844331070595,0,5,0,5,0,0,1,1,5,,,,,,,,,,,,,,,,,,,,,200002,006,2023-03-16_16h25.32.893,DMS_BEST_eyetracking_DAN_base_12-36_looped_10minWORKING,2022.2.4,None,
50,UNPRED,12,0.5505844331070597,1,images/picture_2.png,images/picture_1.png,0,"[11.733433509789462, -11.733433509789466]",11.733433509789462,-11.733433509789464,images/picture_2.png,1,"[-11.733433509789462, 11.733433509789464]",-11.733433509789462,11.733433509789464,images/picture_3.png,2,"[11.733433509789464, 11.733433509789462]",11.733433509789464,11.733433509789462,0,1,1,0.5505844331070597,1.5505844331070595,1.4494155668929405,3,1,1.3005844331070595,0,5,0,5,0,0,1,1,5,,,,,,,0.0030782080139033496,317.5280405000085,317.5280405000085,318.52830666600494,318.82827029097825,319.0806370829814,319.0806370829814,319.0806370829814,320.5282743329881,320.5282743329881,320.5282743329881,320.5282743329881,3.9982002500328235,321.5282228330034,200002,006,2023-03-16_16h25.32.893,DMS_BEST_eyetracking_DAN_base_12-36_looped_10minWORKING,2022.2.4,None,
48,UNPRED,12,1.1932323530234206,1,images/picture_2.png,images/picture_1.png,0,"[11.733433509789464, 11.733433509789462]",11.733433509789464,11.733433509789462,images/picture_2.png,1,"[11.733433509789462, -11.733433509789466]",11.733433509789462,-11.733433509789464,images/picture_3.png,2,"[-11.733433509789466, -11.733433509789462]",-11.733433509789464,-11.733433509789462,0,1,1,1.1932323530234206,2.1932323530234203,0.8067676469765794,3,1,1.9432323530234203,0,5,0,5,0,0,2,2,3,,,,,,,,,,,,,,,,,,,,,200002,006,2023-03-16_16h25.32.893,DMS_BEST_eyetracking_DAN_base_12-36_looped_10minWORKING,2022.2.4,None,
48,UNPRED,12,1.1932323530234206,1,images/picture_2.png,images/picture_1.png,0,"[11.733433509789464, 11.733433509789462]",11.733433509789464,11.733433509789462,images/picture_2.png,1,"[11.733433509789462, -11.733433509789466]",11.733433509789462,-11.733433509789464,images/picture_3.png,2,"[-11.733433509789466, -11.733433509789462]",-11.733433509789464,-11.733433509789462,0,1,1,1.1932323530234206,2.1932323530234203,0.8067676469765794,3,1,1.9432323530234203,0,5,0,5,0,0,2,2,3,,,,,,,0.0019337090197950602,321.5282228330034,321.5282228330034,322.5284238749882,323.4808547499706,323.7138890409842,323.7138890409842,323.7138890409842,324.52833333297167,324.52833333297167,324.52833333297167,324.52833333297167,3.9986382920178585,325.5283360410249,200002,006,2023-03-16_16h25.32.893,DMS_BEST_eyetracking_DAN_base_12-36_looped_10minWORKING,2022.2.4,None,
49,UNPRED,12,1.1012619555330274,0,images/picture_1.png,images/picture_1.png,0,"[-11.733433509789466, -11.733433509789462]",-11.733433509789464,-11.733433509789462,images/picture_2.png,1,"[-11.733433509789462, 11.733433509789464]",-11.733433509789462,11.733433509789464,images/picture_3.png,2,"[11.733433509789464, 11.733433509789462]",11.733433509789464,11.733433509789462,0,1,1,1.1012619555330274,2.1012619555330274,0.8987380444669726,3,1,1.8512619555330276,0,5,0,5,0,0,3,3,4,,,,,,,,,,,,,,,,,,,,,200002,006,2023-03-16_16h25.32.893,DMS_BEST_eyetracking_DAN_base_12-36_looped_10minWORKING,2022.2.4,None,
49,UNPRED,12,1.1012619555330274,0,images/picture_1.png,images/picture_1.png,0,"[-11.733433509789466, -11.733433509789462]",-11.733433509789464,-11.733433509789462,images/picture_2.png,1,"[-11.733433509789462, 11.733433509789464]",-11.733433509789462,11.733433509789464,images/picture_3.png,2,"[11.733433509789464, 11.733433509789462]",11.733433509789464,11.733433509789462,0,1,1,1.1012619555330274,2.1012619555330274,0.8987380444669726,3,1,1.8512619555330276,0,5,0,5,0,0,3,3,4,,,,,,,0.002331207972019911,325.5283360410249,325.5283360410249,326.5283188329777,327.381014625018,327.6287742080167,327.6287742080167,327.6287742080167,328.528260416002,328.528260416002,328.528260416002,328.528260416002,3.9959272500127554,329.5279382499866,200002,006,2023-03-16_16h25.32.893,DMS_BEST_eyetracking_DAN_base_12-36_looped_10minWORKING,2022.2.4,None,
46,UNPRED,12,0.5693659508927391,0,images/picture_1.png,images/picture_1.png,0,"[-11.733433509789466, -11.733433509789462]",-11.733433509789464,-11.733433509789462,images/picture_2.png,1,"[-11.733433509789462, 11.733433509789464]",-11.733433509789462,11.733433509789464,images/picture_3.png,2,"[11.733433509789464, 11.733433509789462]",11.733433509789464,11.733433509789462,0,1,1,0.5693659508927391,1.5693659508927391,1.4306340491072609,3,1,1.3193659508927391,0,5,0,5,0,0,4,4,1,,,,,,,,,,,,,,,,,,,,,200002,006,2023-03-16_16h25.32.893,DMS_BEST_eyetracking_DAN_base_12-36_looped_10minWORKING,2022.2.4,None,
46,UNPRED,12,0.5693659508927391,0,images/picture_1.png,images/picture_1.png,0,"[-11.733433509789466, -11.733433509789462]",-11.733433509789464,-11.733433509789462,images/picture_2.png,1,"[-11.733433509789462, 11.733433509789464]",-11.733433509789462,11.733433509789464,images/picture_3.png,2,"[11.733433509789464, 11.733433509789462]",11.733433509789464,11.733433509789462,0,1,1,0.5693659508927391,1.5693659508927391,1.4306340491072609,3,1,1.3193659508927391,0,5,0,5,0,0,4,4,1,,,,,,,0.0015027920017018914,329.5279382499866,329.5279382499866,330.52811229100917,330.86147558299126,331.09469479101244,331.09469479101244,331.09469479101244,332.5280673329835,332.5280673329835,332.5280673329835,332.5280673329835,3.9966993749840185,333.528129082988,200002,006,2023-03-16_16h25.32.893,DMS_BEST_eyetracking_DAN_base_12-36_looped_10minWORKING,2022.2.4,None,
47,UNPRED,12,0.8093169320796803,2,images/picture_3.png,images/picture_1.png,0,"[11.733433509789462, -11.733433509789466]",11.733433509789462,-11.733433509789464,images/picture_2.png,1,"[11.733433509789464, 11.733433509789462]",11.733433509789464,11.733433509789462,images/picture_3.png,2,"[-11.733433509789466, -11.733433509789462]",-11.733433509789464,-11.733433509789462,0,1,1,0.8093169320796803,1.8093169320796805,1.1906830679203195,3,1,1.5593169320796805,0,5,0,5,0,0,5,5,2,,,,,,,,,,,,,,,,,,,,,200002,006,2023-03-16_16h25.32.893,DMS_BEST_eyetracking_DAN_base_12-36_looped_10minWORKING,2022.2.4,None,
47,UNPRED,12,0.8093169320796803,2,images/picture_3.png,images/picture_1.png,0,"[11.733433509789462, -11.733433509789466]",11.733433509789462,-11.733433509789464,images/picture_2.png,1,"[11.733433509789464, 11.733433509789462]",11.733433509789464,11.733433509789462,images/picture_3.png,2,"[-11.733433509789466, -11.733433509789462]",-11.733433509789464,-11.733433509789462,0,1,1,0.8093169320796803,1.8093169320796805,1.1906830679203195,3,1,1.5593169320796805,0,5,0,5,0,0,5,5,2,,,,,,,0.0026779589825309813,333.528129082988,333.528129082988,334.5284552910016,335.0950035409769,335.32815900002606,335.32815900002606,335.32815900002606,336.5280137080117,336.5280137080117,336.5280137080117,336.5280137080117,3.998691292013973,337.5274054579786,200002,006,2023-03-16_16h25.32.893,DMS_BEST_eyetracking_DAN_base_12-36_looped_10minWORKING,2022.2.4,None,
53,UNPRED,12,0.5081598657379808,1,images/picture_2.png,images/picture_1.png,0,"[-11.733433509789466, -11.733433509789462]",-11.733433509789464,-11.733433509789462,images/picture_2.png,1,"[11.733433509789462, -11.733433509789466]",11.733433509789462,-11.733433509789464,images/picture_3.png,2,"[-11.733433509789462, 11.733433509789464]",-11.733433509789462,11.733433509789464,0,1,1,0.5081598657379808,1.5081598657379809,1.4918401342620191,3,1,1.2581598657379809,0,5,0,5,0,0,6,6,8,,,,,,,,,,,,,,,,,,,,,200002,006,2023-03-16_16h25.32.893,DMS_BEST_eyetracking_DAN_base_12-36_looped_10minWORKING,2022.2.4,None,
53,UNPRED,12,0.5081598657379808,1,images/picture_2.png,images/picture_1.png,0,"[-11.733433509789466, -11.733433509789462]",-11.733433509789464,-11.733433509789462,images/picture_2.png,1,"[11.733433509789462, -11.733433509789466]",11.733433509789462,-11.733433509789464,images/picture_3.png,2,"[-11.733433509789462, 11.733433509789464]",-11.733433509789462,11.733433509789464,0,1,1,0.5081598657379808,1.5081598657379809,1.4918401342620191,3,1,1.2581598657379809,0,5,0,5,0,0,6,6,8,,,,,,,0.003252208000048995,337.5274054579786,337.5274054579786,338.52803433302324,338.79487195797265,339.0278904159786,339.0278904159786,339.0278904159786,340.52790587500203,340.52790587500203,340.52790587500203,340.52790587500203,3.99654558300972,341.52859349997016,200002,006,2023-03-16_16h25.32.893,DMS_BEST_eyetracking_DAN_base_12-36_looped_10minWORKING,2022.2.4,None,
45,UNPRED,12,0.7440522611932376,2,images/picture_3.png,images/picture_1.png,0,"[-11.733433509789462, 11.733433509789464]",-11.733433509789462,11.733433509789464,images/picture_2.png,1,"[-11.733433509789466, -11.733433509789462]",-11.733433509789464,-11.733433509789462,images/picture_3.png,2,"[11.733433509789462, -11.733433509789466]",11.733433509789462,-11.733433509789464,0,1,1,0.7440522611932376,1.7440522611932376,1.2559477388067624,3,1,1.4940522611932376,0,5,0,5,0,0,7,7,0,,,,,,,,,,,,,,,,,,,,,200002,006,2023-03-16_16h25.32.893,DMS_BEST_eyetracking_DAN_base_12-36_looped_10minWORKING,2022.2.4,None,
45,UNPRED,12,0.7440522611932376,2,images/picture_3.png,images/picture_1.png,0,"[-11.733433509789462, 11.733433509789464]",-11.733433509789462,11.733433509789464,images/picture_2.png,1,"[-11.733433509789466, -11.733433509789462]",-11.733433509789464,-11.733433509789462,images/picture_3.png,2,"[11.733433509789462, -11.733433509789466]",11.733433509789462,-11.733433509789464,0,1,1,0.7440522611932376,1.7440522611932376,1.2559477388067624,3,1,1.4940522611932376,0,5,0,5,0,0,7,7,0,,,,,,,0.0014310419792309403,341.52859349997016,341.52859349997016,342.5278867500019,343.0278506249888,343.26232066599187,343.26232066599187,343.26232066599187,344.5282905829954,344.5282905829954,344.5282905829954,344.5282905829954,3.9981144999619573,345.52685854100855,200002,006,2023-03-16_16h25.32.893,DMS_BEST_eyetracking_DAN_base_12-36_looped_10minWORKING,2022.2.4,None,
52,UNPRED,12,0.9609615412869772,0,images/picture_1.png,images/picture_1.png,0,"[-11.733433509789466, -11.733433509789462]",-11.733433509789464,-11.733433509789462,images/picture_2.png,1,"[11.733433509789464, 11.733433509789462]",11.733433509789464,11.733433509789462,images/picture_3.png,2,"[-11.733433509789462, 11.733433509789464]",-11.733433509789462,11.733433509789464,0,1,1,0.9609615412869772,1.9609615412869768,1.0390384587130228,3,1,1.7109615412869772,0,5,0,5,0,0,8,8,7,,,,,,,,,,,,,,,,,,,,,200002,006,2023-03-16_16h25.32.893,DMS_BEST_eyetracking_DAN_base_12-36_looped_10minWORKING,2022.2.4,None,
52,UNPRED,12,0.9609615412869772,0,images/picture_1.png,images/picture_1.png,0,"[-11.733433509789466, -11.733433509789462]",-11.733433509789464,-11.733433509789462,images/picture_2.png,1,"[11.733433509789464, 11.733433509789462]",11.733433509789464,11.733433509789462,images/picture_3.png,2,"[-11.733433509789462, 11.733433509789464]",-11.733433509789462,11.733433509789464,0,1,1,0.9609615412869772,1.9609615412869768,1.0390384587130228,3,1,1.7109615412869772,0,5,0,5,0,0,8,8,7,,,,,,,0.00301220896653831,345.52685854100855,345.52685854100855,346.52786754100816,347.24705158302095,347.48012062499765,347.48012062499765,347.48012062499765,348.52797679102514,348.52797679102514,348.52797679102514,348.52797679102514,3.9965755000011995,349.57857399998466,200002,006,2023-03-16_16h25.32.893,DMS_BEST_eyetracking_DAN_base_12-36_looped_10minWORKING,2022.2.4,None,
,,,,,,,,,,,,,,,,,,,,,,,,,,,,,,,5,0,5,0,,,,,,,,,349.57857399998466,361.58282929100096,,,,,,,,,,,,,,,200002,006,2023-03-16_16h25.32.893,DMS_BEST_eyetracking_DAN_base_12-36_looped_10minWORKING,2022.2.4,None,
61,PRED,12,0.5192723564353893,0,images/picture_1.png,images/picture_1.png,0,"[-11.733433509789462, 11.733433509789464]",-11.733433509789462,11.733433509789464,images/picture_2.png,1,"[11.733433509789462, -11.733433509789466]",11.733433509789462,-11.733433509789464,images/picture_3.png,2,"[11.733433509789464, 11.733433509789462]",11.733433509789464,11.733433509789462,0,1,1,0.5192723564353893,1.5192723564353892,1.4807276435646108,3,1,1.2692723564353892,0,6,0,6,0,0,0,0,7,,,,,,,,,,,,,,,,,,,,,200002,006,2023-03-16_16h25.32.893,DMS_BEST_eyetracking_DAN_base_12-36_looped_10minWORKING,2022.2.4,None,
61,PRED,12,0.5192723564353893,0,images/picture_1.png,images/picture_1.png,0,"[-11.733433509789462, 11.733433509789464]",-11.733433509789462,11.733433509789464,images/picture_2.png,1,"[11.733433509789462, -11.733433509789466]",11.733433509789462,-11.733433509789464,images/picture_3.png,2,"[11.733433509789464, 11.733433509789462]",11.733433509789464,11.733433509789462,0,1,1,0.5192723564353893,1.5192723564353892,1.4807276435646108,3,1,1.2692723564353892,0,6,0,6,0,0,0,0,7,,,,,,,0.00194583396660164,361.58282929100096,361.58282929100096,362.5941342500155,362.86160950001795,363.0941589580034,363.0941589580034,363.0941589580034,364.5797937500174,364.5797937500174,364.5797937500174,364.5797937500174,4.006580792018212,365.5945387079846,200002,006,2023-03-16_16h25.32.893,DMS_BEST_eyetracking_DAN_base_12-36_looped_10minWORKING,2022.2.4,None,
56,PRED,12,0.8346604687137401,0,images/picture_1.png,images/picture_1.png,0,"[11.733433509789464, 11.733433509789462]",11.733433509789464,11.733433509789462,images/picture_2.png,1,"[-11.733433509789466, -11.733433509789462]",-11.733433509789464,-11.733433509789462,images/picture_3.png,2,"[11.733433509789462, -11.733433509789466]",11.733433509789462,-11.733433509789464,0,1,1,0.8346604687137401,1.83466046871374,1.1653395312862598,3,1,1.5846604687137402,0,6,0,6,0,0,1,1,2,,,,,,,,,,,,,,,,,,,,,200002,006,2023-03-16_16h25.32.893,DMS_BEST_eyetracking_DAN_base_12-36_looped_10minWORKING,2022.2.4,None,
56,PRED,12,0.8346604687137401,0,images/picture_1.png,images/picture_1.png,0,"[11.733433509789464, 11.733433509789462]",11.733433509789464,11.733433509789462,images/picture_2.png,1,"[-11.733433509789466, -11.733433509789462]",-11.733433509789464,-11.733433509789462,images/picture_3.png,2,"[11.733433509789462, -11.733433509789466]",11.733433509789462,-11.733433509789464,0,1,1,0.8346604687137401,1.83466046871374,1.1653395312862598,3,1,1.5846604687137402,0,6,0,6,0,0,1,1,2,,,,,,,0.0015605840017087758,365.5945387079846,365.5945387079846,366.5942952079931,367.17979216598906,367.5059310409706,367.5059310409706,367.5059310409706,368.6800567500177,368.6800567500177,368.6800567500177,368.5940787079744,3.9963178749894723,369.59378479100997,200002,006,2023-03-16_16h25.32.893,DMS_BEST_eyetracking_DAN_base_12-36_looped_10minWORKING,2022.2.4,None,
55,PRED,12,0.9468148996011244,0,images/picture_1.png,images/picture_1.png,0,"[11.733433509789462, -11.733433509789466]",11.733433509789462,-11.733433509789464,images/picture_2.png,1,"[-11.733433509789462, 11.733433509789464]",-11.733433509789462,11.733433509789464,images/picture_3.png,2,"[11.733433509789464, 11.733433509789462]",11.733433509789464,11.733433509789462,0,1,1,0.9468148996011244,1.9468148996011243,1.0531851003988757,3,1,1.6968148996011243,0,6,0,6,0,0,2,2,1,,,,,,,,,,,,,,,,,,,,,200002,006,2023-03-16_16h25.32.893,DMS_BEST_eyetracking_DAN_base_12-36_looped_10minWORKING,2022.2.4,None,
55,PRED,12,0.9468148996011244,0,images/picture_1.png,images/picture_1.png,0,"[11.733433509789462, -11.733433509789466]",11.733433509789462,-11.733433509789464,images/picture_2.png,1,"[-11.733433509789462, 11.733433509789464]",-11.733433509789462,11.733433509789464,images/picture_3.png,2,"[11.733433509789464, 11.733433509789462]",11.733433509789464,11.733433509789462,0,1,1,0.9468148996011244,1.9468148996011243,1.0531851003988757,3,1,1.6968148996011243,0,6,0,6,0,0,2,2,1,,,,,,,0.0015327499713748693,369.59378479100997,369.59378479100997,370.5940880830167,371.2940442910185,371.52731287502684,371.52731287502684,371.52731287502684,372.5940534999827,372.5940534999827,372.5940534999827,372.5940534999827,3.9966342499828897,373.59392520796973,200002,006,2023-03-16_16h25.32.893,DMS_BEST_eyetracking_DAN_base_12-36_looped_10minWORKING,2022.2.4,None,
60,PRED,12,0.7011332530889937,0,images/picture_1.png,images/picture_1.png,0,"[-11.733433509789466, -11.733433509789462]",-11.733433509789464,-11.733433509789462,images/picture_2.png,1,"[-11.733433509789462, 11.733433509789464]",-11.733433509789462,11.733433509789464,images/picture_3.png,2,"[11.733433509789464, 11.733433509789462]",11.733433509789464,11.733433509789462,0,1,1,0.7011332530889937,1.7011332530889938,1.2988667469110062,3,1,1.4511332530889938,0,6,0,6,0,0,3,3,6,,,,,,,,,,,,,,,,,,,,,200002,006,2023-03-16_16h25.32.893,DMS_BEST_eyetracking_DAN_base_12-36_looped_10minWORKING,2022.2.4,None,
60,PRED,12,0.7011332530889937,0,images/picture_1.png,images/picture_1.png,0,"[-11.733433509789466, -11.733433509789462]",-11.733433509789464,-11.733433509789462,images/picture_2.png,1,"[-11.733433509789462, 11.733433509789464]",-11.733433509789462,11.733433509789464,images/picture_3.png,2,"[11.733433509789464, 11.733433509789462]",11.733433509789464,11.733433509789462,0,1,1,0.7011332530889937,1.7011332530889938,1.2988667469110062,3,1,1.4511332530889938,0,6,0,6,0,0,3,3,6,,,,,,,0.0013881250051781535,373.59392520796973,373.59392520796973,374.5940540829906,375.0611222499865,375.29399408301106,375.29399408301106,375.29399408301106,376.59478137502447,376.59478137502447,376.59478137502447,376.59478137502447,3.9982468750094995,377.59422416600864,200002,006,2023-03-16_16h25.32.893,DMS_BEST_eyetracking_DAN_base_12-36_looped_10minWORKING,2022.2.4,None,
57,PRED,12,1.1513763607601746,0,images/picture_1.png,images/picture_1.png,0,"[-11.733433509789466, -11.733433509789462]",-11.733433509789464,-11.733433509789462,images/picture_2.png,1,"[11.733433509789462, -11.733433509789466]",11.733433509789462,-11.733433509789464,images/picture_3.png,2,"[11.733433509789464, 11.733433509789462]",11.733433509789464,11.733433509789462,0,1,1,1.1513763607601746,2.1513763607601746,0.8486236392398254,3,1,1.9013763607601744,0,6,0,6,0,0,4,4,3,,,,,,,,,,,,,,,,,,,,,200002,006,2023-03-16_16h25.32.893,DMS_BEST_eyetracking_DAN_base_12-36_looped_10minWORKING,2022.2.4,None,
57,PRED,12,1.1513763607601746,0,images/picture_1.png,images/picture_1.png,0,"[-11.733433509789466, -11.733433509789462]",-11.733433509789464,-11.733433509789462,images/picture_2.png,1,"[11.733433509789462, -11.733433509789466]",11.733433509789462,-11.733433509789464,images/picture_3.png,2,"[11.733433509789464, 11.733433509789462]",11.733433509789464,11.733433509789462,0,1,1,1.1513763607601746,2.1513763607601746,0.8486236392398254,3,1,1.9013763607601744,0,6,0,6,0,0,4,4,3,,,,,,,0.0014257910079322755,377.59422416600864,377.59422416600864,378.59395112498896,379.49395845801337,379.7461909999838,379.7461909999838,379.7461909999838,380.59393929102225,380.59393929102225,380.59393929102225,380.59393929102225,3.9989659580169246,381.5939267909853,200002,006,2023-03-16_16h25.32.893,DMS_BEST_eyetracking_DAN_base_12-36_looped_10minWORKING,2022.2.4,None,
58,PRED,12,1.1119094820626876,0,images/picture_1.png,images/picture_1.png,0,"[11.733433509789464, 11.733433509789462]",11.733433509789464,11.733433509789462,images/picture_2.png,1,"[11.733433509789462, -11.733433509789466]",11.733433509789462,-11.733433509789464,images/picture_3.png,2,"[-11.733433509789466, -11.733433509789462]",-11.733433509789464,-11.733433509789462,0,1,1,1.1119094820626876,2.111909482062688,0.8880905179373124,3,1,1.8619094820626876,0,6,0,6,0,0,5,5,4,,,,,,,,,,,,,,,,,,,,,200002,006,2023-03-16_16h25.32.893,DMS_BEST_eyetracking_DAN_base_12-36_looped_10minWORKING,2022.2.4,None,
58,PRED,12,1.1119094820626876,0,images/picture_1.png,images/picture_1.png,0,"[11.733433509789464, 11.733433509789462]",11.733433509789464,11.733433509789462,images/picture_2.png,1,"[11.733433509789462, -11.733433509789466]",11.733433509789462,-11.733433509789464,images/picture_3.png,2,"[-11.733433509789466, -11.733433509789462]",-11.733433509789464,-11.733433509789462,0,1,1,1.1119094820626876,2.111909482062688,0.8880905179373124,3,1,1.8619094820626876,0,6,0,6,0,0,5,5,4,,,,,,,0.0015700410003773868,381.5939267909853,381.5939267909853,382.5939045830164,383.4609245409956,383.69378733297344,383.69378733297344,383.69378733297344,384.5938445830252,384.5938445830252,384.5938445830252,384.5938445830252,3.995695791032631,385.59373924997635,200002,006,2023-03-16_16h25.32.893,DMS_BEST_eyetracking_DAN_base_12-36_looped_10minWORKING,2022.2.4,None,
54,PRED,12,0.5317336139565562,0,images/picture_1.png,images/picture_1.png,0,"[-11.733433509789466, -11.733433509789462]",-11.733433509789464,-11.733433509789462,images/picture_2.png,1,"[11.733433509789462, -11.733433509789466]",11.733433509789462,-11.733433509789464,images/picture_3.png,2,"[11.733433509789464, 11.733433509789462]",11.733433509789464,11.733433509789462,0,1,1,0.5317336139565562,1.5317336139565565,1.4682663860434435,3,1,1.2817336139565565,0,6,0,6,0,0,6,6,0,,,,,,,,,,,,,,,,,,,,,200002,006,2023-03-16_16h25.32.893,DMS_BEST_eyetracking_DAN_base_12-36_looped_10minWORKING,2022.2.4,None,
54,PRED,12,0.5317336139565562,0,images/picture_1.png,images/picture_1.png,0,"[-11.733433509789466, -11.733433509789462]",-11.733433509789464,-11.733433509789462,images/picture_2.png,1,"[11.733433509789462, -11.733433509789466]",11.733433509789462,-11.733433509789464,images/picture_3.png,2,"[11.733433509789464, 11.733433509789462]",11.733433509789464,11.733433509789462,0,1,1,0.5317336139565562,1.5317336139565565,1.4682663860434435,3,1,1.2817336139565565,0,6,0,6,0,0,6,6,0,,,,,,,0.0014163749874569476,385.59373924997635,385.59373924997635,386.5937495409744,386.87957145797554,387.12718225002754,387.12718225002754,387.12718225002754,388.59402558300644,388.59402558300644,388.59402558300644,388.59402558300644,3.998640332953073,389.59370899997884,200002,006,2023-03-16_16h25.32.893,DMS_BEST_eyetracking_DAN_base_12-36_looped_10minWORKING,2022.2.4,None,
62,PRED,12,0.9814342767514146,0,images/picture_1.png,images/picture_1.png,0,"[-11.733433509789462, 11.733433509789464]",-11.733433509789462,11.733433509789464,images/picture_2.png,1,"[11.733433509789464, 11.733433509789462]",11.733433509789464,11.733433509789462,images/picture_3.png,2,"[-11.733433509789466, -11.733433509789462]",-11.733433509789464,-11.733433509789462,0,1,1,0.9814342767514146,1.9814342767514144,1.0185657232485854,3,1,1.7314342767514146,0,6,0,6,0,0,7,7,8,,,,,,,,,,,,,,,,,,,,,200002,006,2023-03-16_16h25.32.893,DMS_BEST_eyetracking_DAN_base_12-36_looped_10minWORKING,2022.2.4,None,
62,PRED,12,0.9814342767514146,0,images/picture_1.png,images/picture_1.png,0,"[-11.733433509789462, 11.733433509789464]",-11.733433509789462,11.733433509789464,images/picture_2.png,1,"[11.733433509789464, 11.733433509789462]",11.733433509789464,11.733433509789462,images/picture_3.png,2,"[-11.733433509789466, -11.733433509789462]",-11.733433509789464,-11.733433509789462,0,1,1,0.9814342767514146,1.9814342767514144,1.0185657232485854,3,1,1.7314342767514146,0,6,0,6,0,0,7,7,8,,,,,,,0.0016363750328309834,389.59370899997884,389.59370899997884,390.59382025001105,391.3271042910055,391.5604398329742,391.5604398329742,391.5604398329742,392.5939839159837,392.5939839159837,392.5939839159837,392.5939839159837,3.9973464580252767,393.5938699580147,200002,006,2023-03-16_16h25.32.893,DMS_BEST_eyetracking_DAN_base_12-36_looped_10minWORKING,2022.2.4,None,
59,PRED,12,1.0277587543780533,0,images/picture_1.png,images/picture_1.png,0,"[-11.733433509789462, 11.733433509789464]",-11.733433509789462,11.733433509789464,images/picture_2.png,1,"[11.733433509789462, -11.733433509789466]",11.733433509789462,-11.733433509789464,images/picture_3.png,2,"[11.733433509789464, 11.733433509789462]",11.733433509789464,11.733433509789462,0,1,1,1.0277587543780533,2.0277587543780533,0.9722412456219468,3,1,1.7777587543780533,0,6,0,6,0,0,8,8,5,,,,,,,,,,,,,,,,,,,,,200002,006,2023-03-16_16h25.32.893,DMS_BEST_eyetracking_DAN_base_12-36_looped_10minWORKING,2022.2.4,None,
59,PRED,12,1.0277587543780533,0,images/picture_1.png,images/picture_1.png,0,"[-11.733433509789462, 11.733433509789464]",-11.733433509789462,11.733433509789464,images/picture_2.png,1,"[11.733433509789462, -11.733433509789466]",11.733433509789462,-11.733433509789464,images/picture_3.png,2,"[11.733433509789464, 11.733433509789462]",11.733433509789464,11.733433509789462,0,1,1,1.0277587543780533,2.0277587543780533,0.9722412456219468,3,1,1.7777587543780533,0,6,0,6,0,0,8,8,5,,,,,,,0.001439209037926048,393.5938699580147,393.5938699580147,394.5937330829911,395.3793776250095,395.61321033298736,395.61321033298736,395.61321033298736,396.5935642499826,396.5935642499826,396.5935642499826,396.5935642499826,3.9984200420440175,397.6522966250195,200002,006,2023-03-16_16h25.32.893,DMS_BEST_eyetracking_DAN_base_12-36_looped_10minWORKING,2022.2.4,None,
,,,,,,,,,,,,,,,,,,,,,,,,,,,,,,,6,0,6,0,,,,,,,,,397.6522966250195,409.678944541025,,,,,,,,,,,,,,,200002,006,2023-03-16_16h25.32.893,DMS_BEST_eyetracking_DAN_base_12-36_looped_10minWORKING,2022.2.4,None,
67,UNPRED,12,1.1820005317521076,2,images/picture_3.png,images/picture_1.png,0,"[11.733433509789462, -11.733433509789466]",11.733433509789462,-11.733433509789464,images/picture_2.png,1,"[-11.733433509789466, -11.733433509789462]",-11.733433509789464,-11.733433509789462,images/picture_3.png,2,"[-11.733433509789462, 11.733433509789464]",-11.733433509789462,11.733433509789464,0,1,1,1.1820005317521076,2.182000531752108,0.8179994682478924,3,1,1.932000531752108,0,7,0,7,0,0,0,0,4,,,,,,,,,,,,,,,,,,,,,200002,006,2023-03-16_16h25.32.893,DMS_BEST_eyetracking_DAN_base_12-36_looped_10minWORKING,2022.2.4,None,
67,UNPRED,12,1.1820005317521076,2,images/picture_3.png,images/picture_1.png,0,"[11.733433509789462, -11.733433509789466]",11.733433509789462,-11.733433509789464,images/picture_2.png,1,"[-11.733433509789466, -11.733433509789462]",-11.733433509789464,-11.733433509789462,images/picture_3.png,2,"[-11.733433509789462, 11.733433509789464]",-11.733433509789462,11.733433509789464,0,1,1,1.1820005317521076,2.182000531752108,0.8179994682478924,3,1,1.932000531752108,0,7,0,7,0,0,0,0,4,,,,,,,0.0021552079706452787,409.678944541025,409.678944541025,410.6941655409755,411.61250316601945,411.8458235830185,411.8458235830185,411.8458235830185,412.6788930409821,412.6788930409821,412.6788930409821,412.66038979100995,4.019791166996583,413.65990537498146,200002,006,2023-03-16_16h25.32.893,DMS_BEST_eyetracking_DAN_base_12-36_looped_10minWORKING,2022.2.4,None,
68,UNPRED,12,1.179376977541102,0,images/picture_1.png,images/picture_1.png,0,"[-11.733433509789462, 11.733433509789464]",-11.733433509789462,11.733433509789464,images/picture_2.png,1,"[11.733433509789462, -11.733433509789466]",11.733433509789462,-11.733433509789464,images/picture_3.png,2,"[11.733433509789464, 11.733433509789462]",11.733433509789464,11.733433509789462,0,1,1,1.179376977541102,2.179376977541102,0.820623022458898,3,1,1.9293769775411016,0,7,0,7,0,0,1,1,5,,,,,,,,,,,,,,,,,,,,,200002,006,2023-03-16_16h25.32.893,DMS_BEST_eyetracking_DAN_base_12-36_looped_10minWORKING,2022.2.4,None,
68,UNPRED,12,1.179376977541102,0,images/picture_1.png,images/picture_1.png,0,"[-11.733433509789462, 11.733433509789464]",-11.733433509789462,11.733433509789464,images/picture_2.png,1,"[11.733433509789462, -11.733433509789466]",11.733433509789462,-11.733433509789464,images/picture_3.png,2,"[11.733433509789464, 11.733433509789462]",11.733433509789464,11.733433509789462,0,1,1,1.179376977541102,2.179376977541102,0.820623022458898,3,1,1.9293769775411016,0,7,0,7,0,0,1,1,5,,,,,,,0.002821124973706901,413.69316437497037,413.69316437497037,414.6934558749781,415.6263911249698,415.8598171659978,415.8598171659978,415.8598171659978,416.69306641601725,416.69306641601725,416.69306641601725,416.69306641601725,3.997938832966611,417.6928892909782,200002,006,2023-03-16_16h25.32.893,DMS_BEST_eyetracking_DAN_base_12-36_looped_10minWORKING,2022.2.4,None,
71,UNPRED,12,1.0801793877789936,0,images/picture_1.png,images/picture_1.png,0,"[-11.733433509789462, 11.733433509789464]",-11.733433509789462,11.733433509789464,images/picture_2.png,1,"[-11.733433509789466, -11.733433509789462]",-11.733433509789464,-11.733433509789462,images/picture_3.png,2,"[11.733433509789464, 11.733433509789462]",11.733433509789464,11.733433509789462,0,1,1,1.0801793877789936,2.0801793877789936,0.9198206122210064,3,1,1.8301793877789936,0,7,0,7,0,0,2,2,8,,,,,,,,,,,,,,,,,,,,,200002,006,2023-03-16_16h25.32.893,DMS_BEST_eyetracking_DAN_base_12-36_looped_10minWORKING,2022.2.4,None,
71,UNPRED,12,1.0801793877789936,0,images/picture_1.png,images/picture_1.png,0,"[-11.733433509789462, 11.733433509789464]",-11.733433509789462,11.733433509789464,images/picture_2.png,1,"[-11.733433509789466, -11.733433509789462]",-11.733433509789464,-11.733433509789462,images/picture_3.png,2,"[11.733433509789464, 11.733433509789462]",11.733433509789464,11.733433509789462,0,1,1,1.0801793877789936,2.0801793877789936,0.9198206122210064,3,1,1.8301793877789936,0,7,0,7,0,0,2,2,8,,,,,,,0.0014180829748511314,417.6928892909782,417.6928892909782,418.69314325001324,419.52651095797773,419.76000495802145,419.76000495802145,419.76000495802145,420.6931148750009,420.6931148750009,420.6931148750009,420.6931148750009,3.9985066250083037,421.6928227500175,200002,006,2023-03-16_16h25.32.893,DMS_BEST_eyetracking_DAN_base_12-36_looped_10minWORKING,2022.2.4,None,
69,UNPRED,12,1.0513287453321385,2,images/picture_3.png,images/picture_1.png,0,"[-11.733433509789466, -11.733433509789462]",-11.733433509789464,-11.733433509789462,images/picture_2.png,1,"[11.733433509789464, 11.733433509789462]",11.733433509789464,11.733433509789462,images/picture_3.png,2,"[11.733433509789462, -11.733433509789466]",11.733433509789462,-11.733433509789464,0,1,1,1.0513287453321385,2.0513287453321385,0.9486712546678616,3,1,1.8013287453321385,0,7,0,7,0,0,3,3,6,,,,,,,,,,,,,,,,,,,,,200002,006,2023-03-16_16h25.32.893,DMS_BEST_eyetracking_DAN_base_12-36_looped_10minWORKING,2022.2.4,None,
69,UNPRED,12,1.0513287453321385,2,images/picture_3.png,images/picture_1.png,0,"[-11.733433509789466, -11.733433509789462]",-11.733433509789464,-11.733433509789462,images/picture_2.png,1,"[11.733433509789464, 11.733433509789462]",11.733433509789464,11.733433509789462,images/picture_3.png,2,"[11.733433509789462, -11.733433509789466]",11.733433509789462,-11.733433509789464,0,1,1,1.0513287453321385,2.0513287453321385,0.9486712546678616,3,1,1.8013287453321385,0,7,0,7,0,0,3,3,6,,,,,,,0.0027324999682605267,421.6928227500175,421.6928227500175,422.69291599997086,423.49279104097513,423.74544866598444,423.74544866598444,423.74544866598444,424.6928469580016,424.6928469580016,424.6928469580016,424.6928469580016,3.9971320829936303,425.69268475001445,200002,006,2023-03-16_16h25.32.893,DMS_BEST_eyetracking_DAN_base_12-36_looped_10minWORKING,2022.2.4,None,
