trial_count,blockType,blockNum,delay_time,stimImage_i,stimImage,responseImage1,responseImage1_i,responseImage1_pos,responseImage1_X,responseImage1_Y,responseImage2,responseImage2_i,responseImage2_pos,responseImage2_X,responseImage2_Y,responseImage3,responseImage3_i,responseImage3_pos,responseImage3_X,responseImage3_Y,cue_onset,cue_dur,delay_onset,delay_dur,resp_onset,resp_dur,rest_onset,rest_dur,circle_dur,circle_onset,total_dur,cross_onset,cross_dur,delay_resp_period,blocks.thisRepN,blocks.thisTrialN,blocks.thisN,blocks.thisIndex,trials.thisRepN,trials.thisTrialN,trials.thisN,trials.thisIndex,key_resp.started,text.started,key_resp.keys,key_resp.rt,text_2.started,text_2.stopped,sample.started,Delay.started,sample.stopped,Delay.stopped,Response_1.started,Response_2.started,Response_3.started,polygon.started,Response_1.stopped,Response_2.stopped,Response_3.stopped,polygon.stopped,participant,session,date,expName,psychopyVersion,frameRate,
,,,,,,,,,,,,,,,,,,,,,,,,,,,,,,,,,,,,,,,,,,,92.53177520800091,92.53177520800091,t,67.437314625,,,,,,,,,,,,,,,200006,004,2023-04-07_11h15.09.209,DMS_et_12-36,2022.2.4,None,
6,PRED,12,1.0672096059898624,2,images/picture_3.png,images/picture_1.png,0,"[-11.733433509789466, -11.733433509789462]",-11.733433509789464,-11.733433509789462,images/picture_2.png,1,"[11.733433509789462, -11.733433509789466]",11.733433509789462,-11.733433509789464,images/picture_3.png,2,"[11.733433509789464, 11.733433509789462]",11.733433509789464,11.733433509789462,0,1,1,1.0672096059898624,2.0672096059898624,0.9327903940101376,3.0,1,1.8172096059898624,0,4.0,3.0,1,2,0,0,0,0,0,0,0,6,,,,,160.48634216700157,172.5288006250048,172.5288006250048,172.5288006250048,173.53174512500118,174.35093729200162,174.5835433329994,174.5835433329994,174.5835433329994,175.51717595800437,175.53162720800174,175.53162720800174,175.53162720800174,176.5503727500036,200006,004,2023-04-07_11h15.09.209,DMS_et_12-36,2022.2.4,None,
4,PRED,12,1.0672096059898624,2,images/picture_3.png,images/picture_1.png,0,"[11.733433509789462, -11.733433509789466]",11.733433509789462,-11.733433509789464,images/picture_2.png,1,"[-11.733433509789466, -11.733433509789462]",-11.733433509789464,-11.733433509789462,images/picture_3.png,2,"[11.733433509789464, 11.733433509789462]",11.733433509789464,11.733433509789462,0,1,1,1.0672096059898624,2.0672096059898624,0.9327903940101376,3.0,1,1.8172096059898624,0,4.0,3.0,1,2,0,0,0,0,0,1,1,4,,,,,,,176.5503727500036,176.5503727500036,177.56523066700174,178.36543375000474,178.59828708300483,178.59828708300483,178.59828708300483,179.53168737500528,179.53168737500528,179.53168737500528,179.53168737500528,180.55049449999933,200006,004,2023-04-07_11h15.09.209,DMS_et_12-36,2022.2.4,None,
1,PRED,12,1.0672096059898624,2,images/picture_3.png,images/picture_1.png,0,"[-11.733433509789466, -11.733433509789462]",-11.733433509789464,-11.733433509789462,images/picture_2.png,1,"[-11.733433509789462, 11.733433509789464]",-11.733433509789462,11.733433509789464,images/picture_3.png,2,"[11.733433509789462, -11.733433509789466]",11.733433509789462,-11.733433509789464,0,1,1,1.0672096059898624,2.0672096059898624,0.9327903940101376,3.0,1,1.8172096059898624,0,4.0,3.0,1,2,0,0,0,0,0,2,2,1,,,,,,,180.55049449999933,180.55049449999933,181.56501937500434,182.3650099170045,182.59852579200378,182.59852579200378,182.59852579200378,183.53197212500527,183.53197212500527,183.53197212500527,183.53197212500527,184.55113066700142,200006,004,2023-04-07_11h15.09.209,DMS_et_12-36,2022.2.4,None,
8,PRED,12,1.0672096059898624,2,images/picture_3.png,images/picture_1.png,0,"[11.733433509789462, -11.733433509789466]",11.733433509789462,-11.733433509789464,images/picture_2.png,1,"[-11.733433509789462, 11.733433509789464]",-11.733433509789462,11.733433509789464,images/picture_3.png,2,"[-11.733433509789466, -11.733433509789462]",-11.733433509789464,-11.733433509789462,0,1,1,1.0672096059898624,2.0672096059898624,0.9327903940101376,3.0,1,1.8172096059898624,0,4.0,3.0,1,2,0,0,0,0,0,3,3,8,,,,,,,184.55113066700142,184.55113066700142,185.56479608300288,186.36523579200002,186.5984896670052,186.5984896670052,186.5984896670052,187.53176162500313,187.53176162500313,187.53176162500313,187.53176162500313,188.551212958002,200006,004,2023-04-07_11h15.09.209,DMS_et_12-36,2022.2.4,None,
2,PRED,12,1.0672096059898624,2,images/picture_3.png,images/picture_1.png,0,"[-11.733433509789462, 11.733433509789464]",-11.733433509789462,11.733433509789464,images/picture_2.png,1,"[11.733433509789464, 11.733433509789462]",11.733433509789464,11.733433509789462,images/picture_3.png,2,"[-11.733433509789466, -11.733433509789462]",-11.733433509789464,-11.733433509789462,0,1,1,1.0672096059898624,2.0672096059898624,0.9327903940101376,3.0,1,1.8172096059898624,0,4.0,3.0,1,2,0,0,0,0,0,4,4,2,,,,,,,188.551212958002,188.551212958002,189.5650217500006,190.3651900420009,190.59848679200513,190.59848679200513,190.59848679200513,191.53196045799996,191.53196045799996,191.53196045799996,191.53196045799996,192.55056212500494,200006,004,2023-04-07_11h15.09.209,DMS_et_12-36,2022.2.4,None,
5,PRED,12,1.0672096059898624,2,images/picture_3.png,images/picture_1.png,0,"[11.733433509789462, -11.733433509789466]",11.733433509789462,-11.733433509789464,images/picture_2.png,1,"[11.733433509789464, 11.733433509789462]",11.733433509789464,11.733433509789462,images/picture_3.png,2,"[-11.733433509789462, 11.733433509789464]",-11.733433509789462,11.733433509789464,0,1,1,1.0672096059898624,2.0672096059898624,0.9327903940101376,3.0,1,1.8172096059898624,0,4.0,3.0,1,2,0,0,0,0,0,5,5,5,,,,,,,192.55056212500494,192.55056212500494,193.5651564170039,194.3652407920017,194.5984521249993,194.5984521249993,194.5984521249993,195.53145991700148,195.53145991700148,195.53145991700148,195.53145991700148,196.55103020800016,200006,004,2023-04-07_11h15.09.209,DMS_et_12-36,2022.2.4,None,
7,PRED,12,1.0672096059898624,2,images/picture_3.png,images/picture_1.png,0,"[11.733433509789464, 11.733433509789462]",11.733433509789464,11.733433509789462,images/picture_2.png,1,"[11.733433509789462, -11.733433509789466]",11.733433509789462,-11.733433509789464,images/picture_3.png,2,"[-11.733433509789466, -11.733433509789462]",-11.733433509789464,-11.733433509789462,0,1,1,1.0672096059898624,2.0672096059898624,0.9327903940101376,3.0,1,1.8172096059898624,0,4.0,3.0,1,2,0,0,0,0,0,6,6,7,,,,,,,196.55103020800016,196.55103020800016,197.56522970800143,198.36520245800057,198.59853125000518,198.59853125000518,198.59853125000518,199.5317565830046,199.5317565830046,199.5317565830046,199.5317565830046,200.55033012499916,200006,004,2023-04-07_11h15.09.209,DMS_et_12-36,2022.2.4,None,
0,PRED,12,1.0672096059898624,2,images/picture_3.png,images/picture_1.png,0,"[-11.733433509789466, -11.733433509789462]",-11.733433509789464,-11.733433509789462,images/picture_2.png,1,"[-11.733433509789462, 11.733433509789464]",-11.733433509789462,11.733433509789464,images/picture_3.png,2,"[11.733433509789464, 11.733433509789462]",11.733433509789464,11.733433509789462,0,1,1,1.0672096059898624,2.0672096059898624,0.9327903940101376,3.0,1,1.8172096059898624,0,4.0,3.0,1,2,0,0,0,0,0,7,7,0,,,,,,,200.55033012499916,200.55033012499916,201.565076167004,202.3652302920018,202.59846766700502,202.59846766700502,202.59846766700502,203.53179666700453,203.53179666700453,203.53179666700453,203.53179666700453,204.55082383300032,200006,004,2023-04-07_11h15.09.209,DMS_et_12-36,2022.2.4,None,
3,PRED,12,1.0672096059898624,2,images/picture_3.png,images/picture_1.png,0,"[-11.733433509789466, -11.733433509789462]",-11.733433509789464,-11.733433509789462,images/picture_2.png,1,"[11.733433509789464, 11.733433509789462]",11.733433509789464,11.733433509789462,images/picture_3.png,2,"[11.733433509789462, -11.733433509789466]",11.733433509789462,-11.733433509789464,0,1,1,1.0672096059898624,2.0672096059898624,0.9327903940101376,3.0,1,1.8172096059898624,0,4.0,3.0,1,2,0,0,0,0,0,8,8,3,,,,,,,204.55082383300032,204.55082383300032,205.56486583300284,206.36517466700025,206.59844945800432,206.59844945800432,206.59844945800432,207.5317774580035,207.5317774580035,207.5317774580035,207.5317774580035,208.550852417,200006,004,2023-04-07_11h15.09.209,DMS_et_12-36,2022.2.4,None,
,,,,,,,,,,,,,,,,,,,,,,,,,,,,,,,,,,,0,0,0,0,,,,,,,,,208.550852417,220.58380933300214,,,,,,,,,,,,,200006,004,2023-04-07_11h15.09.209,DMS_et_12-36,2022.2.4,None,
12,UNPRED,12,1.0672096059898624,1,images/picture_2.png,images/picture_1.png,0,"[11.733433509789464, 11.733433509789462]",11.733433509789464,11.733433509789462,images/picture_2.png,1,"[-11.733433509789466, -11.733433509789462]",-11.733433509789464,-11.733433509789462,images/picture_3.png,2,"[11.733433509789462, -11.733433509789466]",11.733433509789462,-11.733433509789464,0,1,1,1.0672096059898624,2.0672096059898624,0.9327903940101376,3.0,1,1.8172096059898624,0,4.0,3.0,1,2,1,0,1,0,0,0,0,3,,,,,,,220.58380933300214,220.58380933300214,221.5985260420057,222.39849954200326,222.65130950000457,222.65130950000457,222.65130950000457,223.5845166670042,223.59847204200196,223.59847204200196,223.59847204200196,224.5985406250038,200006,004,2023-04-07_11h15.09.209,DMS_et_12-36,2022.2.4,None,
9,UNPRED,12,1.0672096059898624,1,images/picture_2.png,images/picture_1.png,0,"[11.733433509789462, -11.733433509789466]",11.733433509789462,-11.733433509789464,images/picture_2.png,1,"[11.733433509789464, 11.733433509789462]",11.733433509789464,11.733433509789462,images/picture_3.png,2,"[-11.733433509789462, 11.733433509789464]",-11.733433509789462,11.733433509789464,0,1,1,1.0672096059898624,2.0672096059898624,0.9327903940101376,3.0,1,1.8172096059898624,0,4.0,3.0,1,2,1,0,1,0,0,1,1,0,,,,,,,224.5985406250038,224.5985406250038,225.59851945799892,226.41700887500338,226.66488541700528,226.66488541700528,226.66488541700528,227.59851866700046,227.59851866700046,227.59851866700046,227.59851866700046,228.59811700000137,200006,004,2023-04-07_11h15.09.209,DMS_et_12-36,2022.2.4,None,
15,UNPRED,12,1.0672096059898624,1,images/picture_2.png,images/picture_1.png,0,"[11.733433509789464, 11.733433509789462]",11.733433509789464,11.733433509789462,images/picture_2.png,1,"[-11.733433509789462, 11.733433509789464]",-11.733433509789462,11.733433509789464,images/picture_3.png,2,"[11.733433509789462, -11.733433509789466]",11.733433509789462,-11.733433509789464,0,1,1,1.0672096059898624,2.0672096059898624,0.9327903940101376,3.0,1,1.8172096059898624,0,4.0,3.0,1,2,1,0,1,0,0,2,2,6,,,,,,,228.59811700000137,228.59811700000137,229.5984653330015,230.41778162500123,230.6652095419995,230.6652095419995,230.6652095419995,231.59867770800338,231.59867770800338,231.59867770800338,231.59867770800338,232.5980201670027,200006,004,2023-04-07_11h15.09.209,DMS_et_12-36,2022.2.4,None,
14,UNPRED,12,1.0672096059898624,1,images/picture_2.png,images/picture_1.png,0,"[11.733433509789464, 11.733433509789462]",11.733433509789464,11.733433509789462,images/picture_2.png,1,"[11.733433509789462, -11.733433509789466]",11.733433509789462,-11.733433509789464,images/picture_3.png,2,"[-11.733433509789462, 11.733433509789464]",-11.733433509789462,11.733433509789464,0,1,1,1.0672096059898624,2.0672096059898624,0.9327903940101376,3.0,1,1.8172096059898624,0,4.0,3.0,1,2,1,0,1,0,0,3,3,5,,,,,,,232.5980201670027,232.5980201670027,233.59853345800366,234.41769054200267,234.66521175000526,234.66521175000526,234.66521175000526,235.59851245800382,235.59851245800382,235.59851245800382,235.59851245800382,236.6169974170043,200006,004,2023-04-07_11h15.09.209,DMS_et_12-36,2022.2.4,None,
16,UNPRED,12,1.0672096059898624,2,images/picture_3.png,images/picture_1.png,0,"[11.733433509789464, 11.733433509789462]",11.733433509789464,11.733433509789462,images/picture_2.png,1,"[11.733433509789462, -11.733433509789466]",11.733433509789462,-11.733433509789464,images/picture_3.png,2,"[-11.733433509789462, 11.733433509789464]",-11.733433509789462,11.733433509789464,0,1,1,1.0672096059898624,2.0672096059898624,0.9327903940101376,3.0,1,1.8172096059898624,0,4.0,3.0,1,2,1,0,1,0,0,4,4,7,,,,,,,236.6169974170043,236.6169974170043,237.63178529200377,238.43191625000327,238.66525654200086,238.66525654200086,238.66525654200086,239.59848541700194,239.59848541700194,239.59848541700194,239.59848541700194,240.59941595800046,200006,004,2023-04-07_11h15.09.209,DMS_et_12-36,2022.2.4,None,
17,UNPRED,12,1.0672096059898624,1,images/picture_2.png,images/picture_1.png,0,"[-11.733433509789462, 11.733433509789464]",-11.733433509789462,11.733433509789464,images/picture_2.png,1,"[-11.733433509789466, -11.733433509789462]",-11.733433509789464,-11.733433509789462,images/picture_3.png,2,"[11.733433509789464, 11.733433509789462]",11.733433509789464,11.733433509789462,0,1,1,1.0672096059898624,2.0672096059898624,0.9327903940101376,3.0,1,1.8172096059898624,0,4.0,3.0,1,2,1,0,1,0,0,5,5,8,,,,,,,240.59941595800046,240.59941595800046,241.59850904199993,242.43177950000245,242.66526654200425,242.66526654200425,242.66526654200425,243.5985460830052,243.5985460830052,243.5985460830052,243.5985460830052,244.61700012499932,200006,004,2023-04-07_11h15.09.209,DMS_et_12-36,2022.2.4,None,
13,UNPRED,12,1.0672096059898624,2,images/picture_3.png,images/picture_1.png,0,"[11.733433509789462, -11.733433509789466]",11.733433509789462,-11.733433509789464,images/picture_2.png,1,"[-11.733433509789466, -11.733433509789462]",-11.733433509789464,-11.733433509789462,images/picture_3.png,2,"[-11.733433509789462, 11.733433509789464]",-11.733433509789462,11.733433509789464,0,1,1,1.0672096059898624,2.0672096059898624,0.9327903940101376,3.0,1,1.8172096059898624,0,4.0,3.0,1,2,1,0,1,0,0,6,6,4,,,,,,,244.61700012499932,244.61700012499932,245.63193241700355,246.43160479200014,246.66483104200597,246.66483104200597,246.66483104200597,247.59852191700338,247.59852191700338,247.59852191700338,247.59852191700338,248.59819195800083,200006,004,2023-04-07_11h15.09.209,DMS_et_12-36,2022.2.4,None,
11,UNPRED,12,1.0672096059898624,1,images/picture_2.png,images/picture_1.png,0,"[-11.733433509789462, 11.733433509789464]",-11.733433509789462,11.733433509789464,images/picture_2.png,1,"[11.733433509789462, -11.733433509789466]",11.733433509789462,-11.733433509789464,images/picture_3.png,2,"[11.733433509789464, 11.733433509789462]",11.733433509789464,11.733433509789462,0,1,1,1.0672096059898624,2.0672096059898624,0.9327903940101376,3.0,1,1.8172096059898624,0,4.0,3.0,1,2,1,0,1,0,0,7,7,2,,,,,,,248.59819195800083,248.59819195800083,249.59849433300406,250.41801387500163,250.66519070800132,250.66519070800132,250.66519070800132,251.5985173750014,251.5985173750014,251.5985173750014,251.5985173750014,252.5979756250017,200006,004,2023-04-07_11h15.09.209,DMS_et_12-36,2022.2.4,None,
10,UNPRED,12,1.0672096059898624,1,images/picture_2.png,images/picture_1.png,0,"[-11.733433509789466, -11.733433509789462]",-11.733433509789464,-11.733433509789462,images/picture_2.png,1,"[-11.733433509789462, 11.733433509789464]",-11.733433509789462,11.733433509789464,images/picture_3.png,2,"[11.733433509789464, 11.733433509789462]",11.733433509789464,11.733433509789462,0,1,1,1.0672096059898624,2.0672096059898624,0.9327903940101376,3.0,1,1.8172096059898624,0,4.0,3.0,1,2,1,0,1,0,0,8,8,1,,,,,,,252.5979756250017,252.5979756250017,253.59864191700035,254.41831737499888,254.66520879200107,254.66520879200107,254.66520879200107,255.59856212500017,255.59856212500017,255.59856212500017,255.59856212500017,256.61706408300233,200006,004,2023-04-07_11h15.09.209,DMS_et_12-36,2022.2.4,None,
,,,,,,,,,,,,,,,,,,,,,,,,,,,,,,,,,,,1,0,1,0,,,,,,,,,256.61706408300233,268.65118662500026,,,,,,,,,,,,,200006,004,2023-04-07_11h15.09.209,DMS_et_12-36,2022.2.4,None,
21,PRED,12,1.0672096059898624,1,images/picture_2.png,images/picture_1.png,0,"[11.733433509789464, 11.733433509789462]",11.733433509789464,11.733433509789462,images/picture_2.png,1,"[11.733433509789462, -11.733433509789466]",11.733433509789462,-11.733433509789464,images/picture_3.png,2,"[-11.733433509789462, 11.733433509789464]",-11.733433509789462,11.733433509789464,0,1,1,1.0672096059898624,2.0672096059898624,0.9327903940101376,3.0,1,1.8172096059898624,0,4.0,3.0,1,2,2,0,2,0,0,0,0,3,,,,,,,268.65118662500026,268.65118662500026,269.6652445,270.465238583005,270.7177214580006,270.7177214580006,270.7177214580006,271.65118316699954,271.66517900000326,271.66517900000326,271.66517900000326,272.6646593750047,200006,004,2023-04-07_11h15.09.209,DMS_et_12-36,2022.2.4,None,
19,PRED,12,1.0672096059898624,1,images/picture_2.png,images/picture_1.png,0,"[11.733433509789462, -11.733433509789466]",11.733433509789462,-11.733433509789464,images/picture_2.png,1,"[-11.733433509789462, 11.733433509789464]",-11.733433509789462,11.733433509789464,images/picture_3.png,2,"[-11.733433509789466, -11.733433509789462]",-11.733433509789464,-11.733433509789462,0,1,1,1.0672096059898624,2.0672096059898624,0.9327903940101376,3.0,1,1.8172096059898624,0,4.0,3.0,1,2,2,0,2,0,0,1,1,1,,,,,,,272.6646593750047,272.6646593750047,273.6652500830023,274.4842792080017,274.7319420000058,274.7319420000058,274.7319420000058,275.6652565830009,275.6652565830009,275.6652565830009,275.6652565830009,276.6646937080004,200006,004,2023-04-07_11h15.09.209,DMS_et_12-36,2022.2.4,None,
18,PRED,12,1.0672096059898624,1,images/picture_2.png,images/picture_1.png,0,"[-11.733433509789462, 11.733433509789464]",-11.733433509789462,11.733433509789464,images/picture_2.png,1,"[11.733433509789464, 11.733433509789462]",11.733433509789464,11.733433509789462,images/picture_3.png,2,"[-11.733433509789466, -11.733433509789462]",-11.733433509789464,-11.733433509789462,0,1,1,1.0672096059898624,2.0672096059898624,0.9327903940101376,3.0,1,1.8172096059898624,0,4.0,3.0,1,2,2,0,2,0,0,2,2,0,,,,,,,276.6646937080004,276.6646937080004,277.6649404580021,278.48418908299936,278.73194612500083,278.73194612500083,278.73194612500083,279.6652632920013,279.6652632920013,279.6652632920013,279.6652632920013,280.66480683300324,200006,004,2023-04-07_11h15.09.209,DMS_et_12-36,2022.2.4,None,
23,PRED,12,1.0672096059898624,1,images/picture_2.png,images/picture_1.png,0,"[-11.733433509789466, -11.733433509789462]",-11.733433509789464,-11.733433509789462,images/picture_2.png,1,"[11.733433509789464, 11.733433509789462]",11.733433509789464,11.733433509789462,images/picture_3.png,2,"[-11.733433509789462, 11.733433509789464]",-11.733433509789462,11.733433509789464,0,1,1,1.0672096059898624,2.0672096059898624,0.9327903940101376,3.0,1,1.8172096059898624,0,4.0,3.0,1,2,2,0,2,0,0,3,3,5,,,,,,,280.66480683300324,280.66480683300324,281.6649629169988,282.4844867080028,282.7319786250009,282.7319786250009,282.7319786250009,283.66519620799954,283.66519620799954,283.66519620799954,283.66519620799954,284.66460079199896,200006,004,2023-04-07_11h15.09.209,DMS_et_12-36,2022.2.4,None,
22,PRED,12,1.0672096059898624,1,images/picture_2.png,images/picture_1.png,0,"[-11.733433509789462, 11.733433509789464]",-11.733433509789462,11.733433509789464,images/picture_2.png,1,"[11.733433509789464, 11.733433509789462]",11.733433509789464,11.733433509789462,images/picture_3.png,2,"[11.733433509789462, -11.733433509789466]",11.733433509789462,-11.733433509789464,0,1,1,1.0672096059898624,2.0672096059898624,0.9327903940101376,3.0,1,1.8172096059898624,0,4.0,3.0,1,2,2,0,2,0,0,4,4,4,,,,,,,284.66460079199896,284.66460079199896,285.66522762500244,286.4841858330037,286.7319160000043,286.7319160000043,286.7319160000043,287.6650189170032,287.6650189170032,287.6650189170032,287.6650189170032,288.66437079200114,200006,004,2023-04-07_11h15.09.209,DMS_et_12-36,2022.2.4,None,
26,PRED,12,1.0672096059898624,1,images/picture_2.png,images/picture_1.png,0,"[11.733433509789462, -11.733433509789466]",11.733433509789462,-11.733433509789464,images/picture_2.png,1,"[-11.733433509789466, -11.733433509789462]",-11.733433509789464,-11.733433509789462,images/picture_3.png,2,"[11.733433509789464, 11.733433509789462]",11.733433509789464,11.733433509789462,0,1,1,1.0672096059898624,2.0672096059898624,0.9327903940101376,3.0,1,1.8172096059898624,0,4.0,3.0,1,2,2,0,2,0,0,5,5,8,,,,,,,288.66437079200114,288.66437079200114,289.6652461670019,290.4847714580028,290.732082292001,290.732082292001,290.732082292001,291.6652652080011,291.6652652080011,291.6652652080011,291.6652652080011,292.6647349170016,200006,004,2023-04-07_11h15.09.209,DMS_et_12-36,2022.2.4,None,
24,PRED,12,1.0672096059898624,1,images/picture_2.png,images/picture_1.png,0,"[-11.733433509789466, -11.733433509789462]",-11.733433509789464,-11.733433509789462,images/picture_2.png,1,"[-11.733433509789462, 11.733433509789464]",-11.733433509789462,11.733433509789464,images/picture_3.png,2,"[11.733433509789462, -11.733433509789466]",11.733433509789462,-11.733433509789464,0,1,1,1.0672096059898624,2.0672096059898624,0.9327903940101376,3.0,1,1.8172096059898624,0,4.0,3.0,1,2,2,0,2,0,0,6,6,6,,,,,,,292.6647349170016,292.6647349170016,293.66525333300524,294.4850205420007,294.7320445830046,294.7320445830046,294.7320445830046,295.6652290830025,295.6652290830025,295.6652290830025,295.6652290830025,296.6651905000035,200006,004,2023-04-07_11h15.09.209,DMS_et_12-36,2022.2.4,None,
25,PRED,12,1.0672096059898624,1,images/picture_2.png,images/picture_1.png,0,"[-11.733433509789462, 11.733433509789464]",-11.733433509789462,11.733433509789464,images/picture_2.png,1,"[11.733433509789464, 11.733433509789462]",11.733433509789464,11.733433509789462,images/picture_3.png,2,"[11.733433509789462, -11.733433509789466]",11.733433509789462,-11.733433509789464,0,1,1,1.0672096059898624,2.0672096059898624,0.9327903940101376,3.0,1,1.8172096059898624,0,4.0,3.0,1,2,2,0,2,0,0,7,7,7,,,,,,,296.6651905000035,296.6651905000035,297.6650078330058,298.4839159580006,298.73199075000593,298.73199075000593,298.73199075000593,299.6652568749996,299.6652568749996,299.6652568749996,299.6652568749996,300.6647627499988,200006,004,2023-04-07_11h15.09.209,DMS_et_12-36,2022.2.4,None,
20,PRED,12,1.0672096059898624,1,images/picture_2.png,images/picture_1.png,0,"[11.733433509789464, 11.733433509789462]",11.733433509789464,11.733433509789462,images/picture_2.png,1,"[-11.733433509789466, -11.733433509789462]",-11.733433509789464,-11.733433509789462,images/picture_3.png,2,"[11.733433509789462, -11.733433509789466]",11.733433509789462,-11.733433509789464,0,1,1,1.0672096059898624,2.0672096059898624,0.9327903940101376,3.0,1,1.8172096059898624,0,4.0,3.0,1,2,2,0,2,0,0,8,8,2,,,,,,,300.6647627499988,300.6647627499988,301.66522008299944,302.485071957999,302.7319349169993,302.7319349169993,302.7319349169993,303.66524537499936,303.66524537499936,303.66524537499936,303.66524537499936,304.70570512500126,200006,004,2023-04-07_11h15.09.209,DMS_et_12-36,2022.2.4,None,
,,,,,,,,,,,,,,,,,,,,,,,,,,,,,,,,,,,2,0,2,0,,,,,,,,,304.70570512500126,316.7324274999992,,,,,,,,,,,,,200006,004,2023-04-07_11h15.09.209,DMS_et_12-36,2022.2.4,None,
33,UNPRED,12,1.0672096059898624,0,images/picture_1.png,images/picture_1.png,0,"[11.733433509789462, -11.733433509789466]",11.733433509789462,-11.733433509789464,images/picture_2.png,1,"[-11.733433509789466, -11.733433509789462]",-11.733433509789464,-11.733433509789462,images/picture_3.png,2,"[-11.733433509789462, 11.733433509789464]",-11.733433509789462,11.733433509789464,0,1,1,1.0672096059898624,2.0672096059898624,0.9327903940101376,3.0,1,1.8172096059898624,0,4.0,3.0,1,2,3,0,3,0,0,0,0,6,,,,,,,316.7324274999992,316.7324274999992,317.7319788329987,318.56499870800326,318.79841541700443,318.79841541700443,318.79841541700443,319.7319658330016,319.7319658330016,319.7319658330016,319.7319658330016,320.7313729170055,200006,004,2023-04-07_11h15.09.209,DMS_et_12-36,2022.2.4,None,
32,UNPRED,12,1.0672096059898624,0,images/picture_1.png,images/picture_1.png,0,"[-11.733433509789462, 11.733433509789464]",-11.733433509789462,11.733433509789464,images/picture_2.png,1,"[-11.733433509789466, -11.733433509789462]",-11.733433509789464,-11.733433509789462,images/picture_3.png,2,"[11.733433509789462, -11.733433509789466]",11.733433509789462,-11.733433509789464,0,1,1,1.0672096059898624,2.0672096059898624,0.9327903940101376,3.0,1,1.8172096059898624,0,4.0,3.0,1,2,3,0,3,0,0,1,1,5,,,,,,,320.7313729170055,320.7313729170055,321.73198375000356,322.55136066699924,322.79856779200054,322.79856779200054,322.79856779200054,323.73196662500413,323.73196662500413,323.73196662500413,323.73196662500413,324.73123945800035,200006,004,2023-04-07_11h15.09.209,DMS_et_12-36,2022.2.4,None,
34,UNPRED,12,1.0672096059898624,1,images/picture_2.png,images/picture_1.png,0,"[-11.733433509789466, -11.733433509789462]",-11.733433509789464,-11.733433509789462,images/picture_2.png,1,"[11.733433509789464, 11.733433509789462]",11.733433509789464,11.733433509789462,images/picture_3.png,2,"[11.733433509789462, -11.733433509789466]",11.733433509789462,-11.733433509789464,0,1,1,1.0672096059898624,2.0672096059898624,0.9327903940101376,3.0,1,1.8172096059898624,0,4.0,3.0,1,2,3,0,3,0,0,2,2,7,,,,,,,324.73123945800035,324.73123945800035,325.7319573749992,326.55119529199874,326.79872158299986,326.79872158299986,326.79872158299986,327.73206216700055,327.73206216700055,327.73206216700055,327.73206216700055,328.7503712079997,200006,004,2023-04-07_11h15.09.209,DMS_et_12-36,2022.2.4,None,
31,UNPRED,12,1.0672096059898624,2,images/picture_3.png,images/picture_1.png,0,"[-11.733433509789466, -11.733433509789462]",-11.733433509789464,-11.733433509789462,images/picture_2.png,1,"[11.733433509789464, 11.733433509789462]",11.733433509789464,11.733433509789462,images/picture_3.png,2,"[-11.733433509789462, 11.733433509789464]",-11.733433509789462,11.733433509789464,0,1,1,1.0672096059898624,2.0672096059898624,0.9327903940101376,3.0,1,1.8172096059898624,0,4.0,3.0,1,2,3,0,3,0,0,3,3,4,,,,,,,328.7503712079997,328.7503712079997,329.765236750005,330.56525754200266,330.7984639580027,330.7984639580027,330.7984639580027,331.7320273330042,331.7320273330042,331.7320273330042,331.7320273330042,332.7510536250047,200006,004,2023-04-07_11h15.09.209,DMS_et_12-36,2022.2.4,None,
29,UNPRED,12,1.0672096059898624,2,images/picture_3.png,images/picture_1.png,0,"[11.733433509789462, -11.733433509789466]",11.733433509789462,-11.733433509789464,images/picture_2.png,1,"[-11.733433509789466, -11.733433509789462]",-11.733433509789464,-11.733433509789462,images/picture_3.png,2,"[-11.733433509789462, 11.733433509789464]",-11.733433509789462,11.733433509789464,0,1,1,1.0672096059898624,2.0672096059898624,0.9327903940101376,3.0,1,1.8172096059898624,0,4.0,3.0,1,2,3,0,3,0,0,4,4,2,,,,,,,332.7510536250047,332.7510536250047,333.7652154169991,334.5652130830058,334.7987253329993,334.7987253329993,334.7987253329993,335.73203425000247,335.73203425000247,335.73203425000247,335.73203425000247,336.73103954199905,200006,004,2023-04-07_11h15.09.209,DMS_et_12-36,2022.2.4,None,
35,UNPRED,12,1.0672096059898624,0,images/picture_1.png,images/picture_1.png,0,"[11.733433509789464, 11.733433509789462]",11.733433509789464,11.733433509789462,images/picture_2.png,1,"[-11.733433509789462, 11.733433509789464]",-11.733433509789462,11.733433509789464,images/picture_3.png,2,"[-11.733433509789466, -11.733433509789462]",-11.733433509789464,-11.733433509789462,0,1,1,1.0672096059898624,2.0672096059898624,0.9327903940101376,3.0,1,1.8172096059898624,0,4.0,3.0,1,2,3,0,3,0,0,5,5,8,,,,,,,336.73103954199905,336.73103954199905,337.7320625420034,338.55054170800577,338.79836058300134,338.79836058300134,338.79836058300134,339.73189662500226,339.73189662500226,339.73189662500226,339.73189662500226,340.73147108300327,200006,004,2023-04-07_11h15.09.209,DMS_et_12-36,2022.2.4,None,
28,UNPRED,12,1.0672096059898624,0,images/picture_1.png,images/picture_1.png,0,"[11.733433509789464, 11.733433509789462]",11.733433509789464,11.733433509789462,images/picture_2.png,1,"[-11.733433509789462, 11.733433509789464]",-11.733433509789462,11.733433509789464,images/picture_3.png,2,"[-11.733433509789466, -11.733433509789462]",-11.733433509789464,-11.733433509789462,0,1,1,1.0672096059898624,2.0672096059898624,0.9327903940101376,3.0,1,1.8172096059898624,0,4.0,3.0,1,2,3,0,3,0,0,6,6,1,,,,,,,340.73147108300327,340.73147108300327,341.73202825000044,342.5513118750023,342.79872087500553,342.79872087500553,342.79872087500553,343.7320276669998,343.7320276669998,343.7320276669998,343.7320276669998,344.73144033300196,200006,004,2023-04-07_11h15.09.209,DMS_et_12-36,2022.2.4,None,
30,UNPRED,12,1.0672096059898624,0,images/picture_1.png,images/picture_1.png,0,"[11.733433509789464, 11.733433509789462]",11.733433509789464,11.733433509789462,images/picture_2.png,1,"[-11.733433509789462, 11.733433509789464]",-11.733433509789462,11.733433509789464,images/picture_3.png,2,"[11.733433509789462, -11.733433509789466]",11.733433509789462,-11.733433509789464,0,1,1,1.0672096059898624,2.0672096059898624,0.9327903940101376,3.0,1,1.8172096059898624,0,4.0,3.0,1,2,3,0,3,0,0,7,7,3,,,,,,,344.73144033300196,344.73144033300196,345.73194070799946,346.55150175000017,346.7987323330017,346.7987323330017,346.7987323330017,347.7319869999992,347.7319869999992,347.7319869999992,347.7319869999992,348.730948000004,200006,004,2023-04-07_11h15.09.209,DMS_et_12-36,2022.2.4,None,
27,UNPRED,12,1.0672096059898624,1,images/picture_2.png,images/picture_1.png,0,"[-11.733433509789462, 11.733433509789464]",-11.733433509789462,11.733433509789464,images/picture_2.png,1,"[11.733433509789462, -11.733433509789466]",11.733433509789462,-11.733433509789464,images/picture_3.png,2,"[-11.733433509789466, -11.733433509789462]",-11.733433509789464,-11.733433509789462,0,1,1,1.0672096059898624,2.0672096059898624,0.9327903940101376,3.0,1,1.8172096059898624,0,4.0,3.0,1,2,3,0,3,0,0,8,8,0,,,,,,,348.730948000004,348.730948000004,349.73174579199986,350.5513471670056,350.79871229200216,350.79871229200216,350.79871229200216,351.732019957999,351.732019957999,351.732019957999,351.732019957999,352.78351900000416,200006,004,2023-04-07_11h15.09.209,DMS_et_12-36,2022.2.4,None,
,,,,,,,,,,,,,,,,,,,,,,,,,,,,,,,,,,,3,0,3,0,,,,,,,,,352.78351900000416,364.81976058299915,,,,,,,,,,,,,200006,004,2023-04-07_11h15.09.209,DMS_et_12-36,2022.2.4,None,
41,PRED,12,1.0672096059898624,0,images/picture_1.png,images/picture_1.png,0,"[-11.733433509789462, 11.733433509789464]",-11.733433509789462,11.733433509789464,images/picture_2.png,1,"[11.733433509789462, -11.733433509789466]",11.733433509789462,-11.733433509789464,images/picture_3.png,2,"[-11.733433509789466, -11.733433509789462]",-11.733433509789464,-11.733433509789462,0,1,1,1.0672096059898624,2.0672096059898624,0.9327903940101376,3.0,1,1.8172096059898624,0,4.0,3.0,1,2,4,0,4,0,0,0,0,5,,,,,,,364.81976058299915,364.81976058299915,365.83204816700163,366.6320107499996,366.88472387500224,366.88472387500224,366.88472387500224,367.81777525000507,367.83204004200525,367.83204004200525,367.83204004200525,368.83147120800277,200006,004,2023-04-07_11h15.09.209,DMS_et_12-36,2022.2.4,None,
43,PRED,12,1.0672096059898624,0,images/picture_1.png,images/picture_1.png,0,"[-11.733433509789466, -11.733433509789462]",-11.733433509789464,-11.733433509789462,images/picture_2.png,1,"[11.733433509789464, 11.733433509789462]",11.733433509789464,11.733433509789462,images/picture_3.png,2,"[11.733433509789462, -11.733433509789466]",11.733433509789462,-11.733433509789464,0,1,1,1.0672096059898624,2.0672096059898624,0.9327903940101376,3.0,1,1.8172096059898624,0,4.0,3.0,1,2,4,0,4,0,0,1,1,7,,,,,,,368.83147120800277,368.83147120800277,369.83182662499894,370.6507888750057,370.89866345799965,370.89866345799965,370.89866345799965,371.83199183300167,371.83199183300167,371.83199183300167,371.83199183300167,372.83146658300393,200006,004,2023-04-07_11h15.09.209,DMS_et_12-36,2022.2.4,None,
38,PRED,12,1.0672096059898624,0,images/picture_1.png,images/picture_1.png,0,"[-11.733433509789466, -11.733433509789462]",-11.733433509789464,-11.733433509789462,images/picture_2.png,1,"[-11.733433509789462, 11.733433509789464]",-11.733433509789462,11.733433509789464,images/picture_3.png,2,"[11.733433509789464, 11.733433509789462]",11.733433509789464,11.733433509789462,0,1,1,1.0672096059898624,2.0672096059898624,0.9327903940101376,3.0,1,1.8172096059898624,0,4.0,3.0,1,2,4,0,4,0,0,2,2,2,,,,,,,372.83146658300393,372.83146658300393,373.8319894170054,374.65134879200195,374.8987807080048,374.8987807080048,374.8987807080048,375.8319832920024,375.8319832920024,375.8319832920024,375.8319832920024,376.83145158299885,200006,004,2023-04-07_11h15.09.209,DMS_et_12-36,2022.2.4,None,
37,PRED,12,1.0672096059898624,0,images/picture_1.png,images/picture_1.png,0,"[-11.733433509789462, 11.733433509789464]",-11.733433509789462,11.733433509789464,images/picture_2.png,1,"[11.733433509789464, 11.733433509789462]",11.733433509789464,11.733433509789462,images/picture_3.png,2,"[-11.733433509789466, -11.733433509789462]",-11.733433509789464,-11.733433509789462,0,1,1,1.0672096059898624,2.0672096059898624,0.9327903940101376,3.0,1,1.8172096059898624,0,4.0,3.0,1,2,4,0,4,0,0,3,3,1,,,,,,,376.83145158299885,376.83145158299885,377.83199270800105,378.6512249170046,378.8987946250054,378.8987946250054,378.8987946250054,379.8317460420003,379.8317460420003,379.8317460420003,379.8317460420003,380.8316602920022,200006,004,2023-04-07_11h15.09.209,DMS_et_12-36,2022.2.4,None,
42,PRED,12,1.0672096059898624,0,images/picture_1.png,images/picture_1.png,0,"[-11.733433509789466, -11.733433509789462]",-11.733433509789464,-11.733433509789462,images/picture_2.png,1,"[-11.733433509789462, 11.733433509789464]",-11.733433509789462,11.733433509789464,images/picture_3.png,2,"[11.733433509789464, 11.733433509789462]",11.733433509789464,11.733433509789462,0,1,1,1.0672096059898624,2.0672096059898624,0.9327903940101376,3.0,1,1.8172096059898624,0,4.0,3.0,1,2,4,0,4,0,0,4,4,6,,,,,,,380.8316602920022,380.8316602920022,381.831712625004,382.6513616250013,382.898646958005,382.898646958005,382.898646958005,383.83200016699993,383.83200016699993,383.83200016699993,383.83200016699993,384.8316268750059,200006,004,2023-04-07_11h15.09.209,DMS_et_12-36,2022.2.4,None,
36,PRED,12,1.0672096059898624,0,images/picture_1.png,images/picture_1.png,0,"[-11.733433509789466, -11.733433509789462]",-11.733433509789464,-11.733433509789462,images/picture_2.png,1,"[11.733433509789462, -11.733433509789466]",11.733433509789462,-11.733433509789464,images/picture_3.png,2,"[11.733433509789464, 11.733433509789462]",11.733433509789464,11.733433509789462,0,1,1,1.0672096059898624,2.0672096059898624,0.9327903940101376,3.0,1,1.8172096059898624,0,4.0,3.0,1,2,4,0,4,0,0,5,5,0,,,,,,,384.8316268750059,384.8316268750059,385.83196795800177,386.6513083329992,386.8986668330035,386.8986668330035,386.8986668330035,387.8319896250032,387.8319896250032,387.8319896250032,387.8319896250032,388.83154879200447,200006,004,2023-04-07_11h15.09.209,DMS_et_12-36,2022.2.4,None,
44,PRED,12,1.0672096059898624,0,images/picture_1.png,images/picture_1.png,0,"[11.733433509789464, 11.733433509789462]",11.733433509789464,11.733433509789462,images/picture_2.png,1,"[-11.733433509789462, 11.733433509789464]",-11.733433509789462,11.733433509789464,images/picture_3.png,2,"[-11.733433509789466, -11.733433509789462]",-11.733433509789464,-11.733433509789462,0,1,1,1.0672096059898624,2.0672096059898624,0.9327903940101376,3.0,1,1.8172096059898624,0,4.0,3.0,1,2,4,0,4,0,0,6,6,8,,,,,,,388.83154879200447,388.83154879200447,389.83209912500024,390.65054149999924,390.8984145830036,390.8984145830036,390.8984145830036,391.8321443750028,391.8321443750028,391.8321443750028,391.8321443750028,392.8314767920019,200006,004,2023-04-07_11h15.09.209,DMS_et_12-36,2022.2.4,None,
39,PRED,12,1.0672096059898624,0,images/picture_1.png,images/picture_1.png,0,"[-11.733433509789462, 11.733433509789464]",-11.733433509789462,11.733433509789464,images/picture_2.png,1,"[-11.733433509789466, -11.733433509789462]",-11.733433509789464,-11.733433509789462,images/picture_3.png,2,"[11.733433509789464, 11.733433509789462]",11.733433509789464,11.733433509789462,0,1,1,1.0672096059898624,2.0672096059898624,0.9327903940101376,3.0,1,1.8172096059898624,0,4.0,3.0,1,2,4,0,4,0,0,7,7,3,,,,,,,392.8314767920019,392.8314767920019,393.8320146250044,394.6512918330045,394.89871625000524,394.89871625000524,394.89871625000524,395.83200587500323,395.83200587500323,395.83200587500323,395.83200587500323,396.83156104200316,200006,004,2023-04-07_11h15.09.209,DMS_et_12-36,2022.2.4,None,
40,PRED,12,1.0672096059898624,0,images/picture_1.png,images/picture_1.png,0,"[11.733433509789462, -11.733433509789466]",11.733433509789462,-11.733433509789464,images/picture_2.png,1,"[-11.733433509789466, -11.733433509789462]",-11.733433509789464,-11.733433509789462,images/picture_3.png,2,"[-11.733433509789462, 11.733433509789464]",-11.733433509789462,11.733433509789464,0,1,1,1.0672096059898624,2.0672096059898624,0.9327903940101376,3.0,1,1.8172096059898624,0,4.0,3.0,1,2,4,0,4,0,0,8,8,4,,,,,,,396.83156104200316,396.83156104200316,397.83200975000364,398.6511835000056,398.89873108300526,398.89873108300526,398.89873108300526,399.83199729199987,399.83199729199987,399.83199729199987,399.83199729199987,400.92976795800496,200006,004,2023-04-07_11h15.09.209,DMS_et_12-36,2022.2.4,None,
,,,,,,,,,,,,,,,,,,,,,,,,,,,,,,,,,,,4,0,4,0,,,,,,,,,400.92976795800496,412.9517874170051,,,,,,,,,,,,,200006,004,2023-04-07_11h15.09.209,DMS_et_12-36,2022.2.4,None,
46,UNPRED,12,1.0672096059898624,0,images/picture_1.png,images/picture_1.png,0,"[-11.733433509789462, 11.733433509789464]",-11.733433509789462,11.733433509789464,images/picture_2.png,1,"[11.733433509789464, 11.733433509789462]",11.733433509789464,11.733433509789462,images/picture_3.png,2,"[11.733433509789462, -11.733433509789466]",11.733433509789462,-11.733433509789464,0,1,1,1.0672096059898624,2.0672096059898624,0.9327903940101376,3.0,1,1.8172096059898624,0,4.0,3.0,1,2,5,0,5,0,0,0,0,1,,,,,,,412.9517874170051,412.9517874170051,413.9654683330009,414.7654937500047,415.0178340000057,415.0178340000057,415.0178340000057,415.9511873330048,415.9654369580021,415.9654369580021,415.9654369580021,416.9656707500035,200006,004,2023-04-07_11h15.09.209,DMS_et_12-36,2022.2.4,None,
51,UNPRED,12,1.0672096059898624,1,images/picture_2.png,images/picture_1.png,0,"[11.733433509789462, -11.733433509789466]",11.733433509789462,-11.733433509789464,images/picture_2.png,1,"[-11.733433509789466, -11.733433509789462]",-11.733433509789464,-11.733433509789462,images/picture_3.png,2,"[-11.733433509789462, 11.733433509789464]",-11.733433509789462,11.733433509789464,0,1,1,1.0672096059898624,2.0672096059898624,0.9327903940101376,3.0,1,1.8172096059898624,0,4.0,3.0,1,2,5,0,5,0,0,1,1,6,,,,,,,416.9656707500035,416.9656707500035,417.9654892920007,418.784495042004,419.03209983299894,419.03209983299894,419.03209983299894,419.96547483299946,419.96547483299946,419.96547483299946,419.96547483299946,420.983884375004,200006,004,2023-04-07_11h15.09.209,DMS_et_12-36,2022.2.4,None,
52,UNPRED,12,1.0672096059898624,2,images/picture_3.png,images/picture_1.png,0,"[11.733433509789464, 11.733433509789462]",11.733433509789464,11.733433509789462,images/picture_2.png,1,"[-11.733433509789462, 11.733433509789464]",-11.733433509789462,11.733433509789464,images/picture_3.png,2,"[-11.733433509789466, -11.733433509789462]",-11.733433509789464,-11.733433509789462,0,1,1,1.0672096059898624,2.0672096059898624,0.9327903940101376,3.0,1,1.8172096059898624,0,4.0,3.0,1,2,5,0,5,0,0,2,2,7,,,,,,,420.983884375004,420.983884375004,421.99881508300314,422.7987951250034,423.03202666700236,423.03202666700236,423.03202666700236,423.96546370800206,423.96546370800206,423.96546370800206,423.96546370800206,424.9652387080059,200006,004,2023-04-07_11h15.09.209,DMS_et_12-36,2022.2.4,None,
45,UNPRED,12,1.0672096059898624,0,images/picture_1.png,images/picture_1.png,0,"[11.733433509789462, -11.733433509789466]",11.733433509789462,-11.733433509789464,images/picture_2.png,1,"[11.733433509789464, 11.733433509789462]",11.733433509789464,11.733433509789462,images/picture_3.png,2,"[-11.733433509789462, 11.733433509789464]",-11.733433509789462,11.733433509789464,0,1,1,1.0672096059898624,2.0672096059898624,0.9327903940101376,3.0,1,1.8172096059898624,0,4.0,3.0,1,2,5,0,5,0,0,3,3,0,,,,,,,424.9652387080059,424.9652387080059,425.9654375829996,426.78451612500066,427.0320303330009,427.0320303330009,427.0320303330009,427.96548237500247,427.96548237500247,427.96548237500247,427.96548237500247,428.96486325000296,200006,004,2023-04-07_11h15.09.209,DMS_et_12-36,2022.2.4,None,
50,UNPRED,12,1.0672096059898624,0,images/picture_1.png,images/picture_1.png,0,"[-11.733433509789466, -11.733433509789462]",-11.733433509789464,-11.733433509789462,images/picture_2.png,1,"[-11.733433509789462, 11.733433509789464]",-11.733433509789462,11.733433509789464,images/picture_3.png,2,"[11.733433509789462, -11.733433509789466]",11.733433509789462,-11.733433509789464,0,1,1,1.0672096059898624,2.0672096059898624,0.9327903940101376,3.0,1,1.8172096059898624,0,4.0,3.0,1,2,5,0,5,0,0,4,4,5,,,,,,,428.96486325000296,428.96486325000296,429.96545916700416,430.78454887500266,431.0317760420003,431.0317760420003,431.0317760420003,431.96531491700443,431.96531491700443,431.96531491700443,431.96531491700443,432.9659541250003,200006,004,2023-04-07_11h15.09.209,DMS_et_12-36,2022.2.4,None,
53,UNPRED,12,1.0672096059898624,0,images/picture_1.png,images/picture_1.png,0,"[11.733433509789464, 11.733433509789462]",11.733433509789464,11.733433509789462,images/picture_2.png,1,"[-11.733433509789462, 11.733433509789464]",-11.733433509789462,11.733433509789464,images/picture_3.png,2,"[-11.733433509789466, -11.733433509789462]",-11.733433509789464,-11.733433509789462,0,1,1,1.0672096059898624,2.0672096059898624,0.9327903940101376,3.0,1,1.8172096059898624,0,4.0,3.0,1,2,5,0,5,0,0,5,5,8,,,,,,,432.9659541250003,432.9659541250003,433.965474042001,434.79875025000365,435.0320152080021,435.0320152080021,435.0320152080021,435.96533925000404,435.96533925000404,435.96533925000404,435.96533925000404,436.964851458004,200006,004,2023-04-07_11h15.09.209,DMS_et_12-36,2022.2.4,None,
47,UNPRED,12,1.0672096059898624,0,images/picture_1.png,images/picture_1.png,0,"[-11.733433509789466, -11.733433509789462]",-11.733433509789464,-11.733433509789462,images/picture_2.png,1,"[11.733433509789462, -11.733433509789466]",11.733433509789462,-11.733433509789464,images/picture_3.png,2,"[11.733433509789464, 11.733433509789462]",11.733433509789464,11.733433509789462,0,1,1,1.0672096059898624,2.0672096059898624,0.9327903940101376,3.0,1,1.8172096059898624,0,4.0,3.0,1,2,5,0,5,0,0,6,6,2,,,,,,,436.964851458004,436.964851458004,437.96544433300005,438.78489554200496,439.0320205829994,439.0320205829994,439.0320205829994,439.9653243749999,439.9653243749999,439.9653243749999,439.9653243749999,440.96483725000144,200006,004,2023-04-07_11h15.09.209,DMS_et_12-36,2022.2.4,None,
49,UNPRED,12,1.0672096059898624,1,images/picture_2.png,images/picture_1.png,0,"[-11.733433509789462, 11.733433509789464]",-11.733433509789462,11.733433509789464,images/picture_2.png,1,"[11.733433509789464, 11.733433509789462]",11.733433509789464,11.733433509789462,images/picture_3.png,2,"[11.733433509789462, -11.733433509789466]",11.733433509789462,-11.733433509789464,0,1,1,1.0672096059898624,2.0672096059898624,0.9327903940101376,3.0,1,1.8172096059898624,0,4.0,3.0,1,2,5,0,5,0,0,7,7,4,,,,,,,440.96483725000144,440.96483725000144,441.96520212500036,442.7852841249987,443.03201295799954,443.03201295799954,443.03201295799954,443.9655484169998,443.9655484169998,443.9655484169998,443.9655484169998,444.96574504200544,200006,004,2023-04-07_11h15.09.209,DMS_et_12-36,2022.2.4,None,
48,UNPRED,12,1.0672096059898624,0,images/picture_1.png,images/picture_1.png,0,"[-11.733433509789462, 11.733433509789464]",-11.733433509789462,11.733433509789464,images/picture_2.png,1,"[11.733433509789462, -11.733433509789466]",11.733433509789462,-11.733433509789464,images/picture_3.png,2,"[-11.733433509789466, -11.733433509789462]",-11.733433509789464,-11.733433509789462,0,1,1,1.0672096059898624,2.0672096059898624,0.9327903940101376,3.0,1,1.8172096059898624,0,4.0,3.0,1,2,5,0,5,0,0,8,8,3,,,,,,,444.96574504200544,444.96574504200544,445.96547570799885,446.7847375000056,447.03199775000394,447.03199775000394,447.03199775000394,447.9655191250058,447.9655191250058,447.9655191250058,447.9655191250058,449.036836416999,200006,004,2023-04-07_11h15.09.209,DMS_et_12-36,2022.2.4,None,
,,,,,,,,,,,,,,,,,,,,,,,,,,,,,,,,,,,5,0,5,0,,,,,,,,,449.036836416999,461.066112833003,,,,,,,,,,,,,200006,004,2023-04-07_11h15.09.209,DMS_et_12-36,2022.2.4,None,
61,PRED,12,1.0672096059898624,0,images/picture_1.png,images/picture_1.png,0,"[11.733433509789464, 11.733433509789462]",11.733433509789464,11.733433509789462,images/picture_2.png,1,"[-11.733433509789462, 11.733433509789464]",-11.733433509789462,11.733433509789464,images/picture_3.png,2,"[11.733433509789462, -11.733433509789466]",11.733433509789462,-11.733433509789464,0,1,1,1.0672096059898624,2.0672096059898624,0.9327903940101376,3.0,1,1.8172096059898624,0,4.0,3.0,1,2,6,0,6,0,0,0,0,7,,,,,,,461.066112833003,461.066112833003,462.0651516670041,462.898793291999,463.1321629170052,463.1321629170052,463.1321629170052,464.0654997080055,464.0654997080055,464.0654997080055,464.0654997080055,465.06486995800515,200006,004,2023-04-07_11h15.09.209,DMS_et_12-36,2022.2.4,None,
58,PRED,12,1.0672096059898624,0,images/picture_1.png,images/picture_1.png,0,"[11.733433509789462, -11.733433509789466]",11.733433509789462,-11.733433509789464,images/picture_2.png,1,"[-11.733433509789462, 11.733433509789464]",-11.733433509789462,11.733433509789464,images/picture_3.png,2,"[11.733433509789464, 11.733433509789462]",11.733433509789464,11.733433509789462,0,1,1,1.0672096059898624,2.0672096059898624,0.9327903940101376,3.0,1,1.8172096059898624,0,4.0,3.0,1,2,6,0,6,0,0,1,1,4,,,,,,,465.06486995800515,465.06486995800515,466.06546679200255,466.8847708750036,467.132220917003,467.132220917003,467.132220917003,468.06548404200294,468.06548404200294,468.06548404200294,468.06548404200294,469.0653039579993,200006,004,2023-04-07_11h15.09.209,DMS_et_12-36,2022.2.4,None,
54,PRED,12,1.0672096059898624,0,images/picture_1.png,images/picture_1.png,0,"[-11.733433509789466, -11.733433509789462]",-11.733433509789464,-11.733433509789462,images/picture_2.png,1,"[11.733433509789462, -11.733433509789466]",11.733433509789462,-11.733433509789464,images/picture_3.png,2,"[11.733433509789464, 11.733433509789462]",11.733433509789464,11.733433509789462,0,1,1,1.0672096059898624,2.0672096059898624,0.9327903940101376,3.0,1,1.8172096059898624,0,4.0,3.0,1,2,6,0,6,0,0,2,2,0,,,,,,,469.0653039579993,469.0653039579993,470.0655153330008,470.88466041700303,471.132197458006,471.132197458006,471.132197458006,472.0650624170012,472.0650624170012,472.0650624170012,472.0650624170012,473.0654391670032,200006,004,2023-04-07_11h15.09.209,DMS_et_12-36,2022.2.4,None,
62,PRED,12,1.0672096059898624,0,images/picture_1.png,images/picture_1.png,0,"[11.733433509789464, 11.733433509789462]",11.733433509789464,11.733433509789462,images/picture_2.png,1,"[-11.733433509789462, 11.733433509789464]",-11.733433509789462,11.733433509789464,images/picture_3.png,2,"[11.733433509789462, -11.733433509789466]",11.733433509789462,-11.733433509789464,0,1,1,1.0672096059898624,2.0672096059898624,0.9327903940101376,3.0,1,1.8172096059898624,0,4.0,3.0,1,2,6,0,6,0,0,3,3,8,,,,,,,473.0654391670032,473.0654391670032,474.06549749999976,474.88469070800056,475.1320250420031,475.1320250420031,475.1320250420031,476.0654782920028,476.0654782920028,476.0654782920028,476.0654782920028,477.0649102919997,200006,004,2023-04-07_11h15.09.209,DMS_et_12-36,2022.2.4,None,
56,PRED,12,1.0672096059898624,0,images/picture_1.png,images/picture_1.png,0,"[11.733433509789464, 11.733433509789462]",11.733433509789464,11.733433509789462,images/picture_2.png,1,"[-11.733433509789462, 11.733433509789464]",-11.733433509789462,11.733433509789464,images/picture_3.png,2,"[-11.733433509789466, -11.733433509789462]",-11.733433509789464,-11.733433509789462,0,1,1,1.0672096059898624,2.0672096059898624,0.9327903940101376,3.0,1,1.8172096059898624,0,4.0,3.0,1,2,6,0,6,0,0,4,4,2,,,,,,,477.0649102919997,477.0649102919997,478.06543245800276,478.88482258300064,479.13222395800403,479.13222395800403,479.13222395800403,480.0654619170018,480.0654619170018,480.0654619170018,480.0654619170018,481.0652722080049,200006,004,2023-04-07_11h15.09.209,DMS_et_12-36,2022.2.4,None,
60,PRED,12,1.0672096059898624,0,images/picture_1.png,images/picture_1.png,0,"[11.733433509789464, 11.733433509789462]",11.733433509789464,11.733433509789462,images/picture_2.png,1,"[-11.733433509789462, 11.733433509789464]",-11.733433509789462,11.733433509789464,images/picture_3.png,2,"[11.733433509789462, -11.733433509789466]",11.733433509789462,-11.733433509789464,0,1,1,1.0672096059898624,2.0672096059898624,0.9327903940101376,3.0,1,1.8172096059898624,0,4.0,3.0,1,2,6,0,6,0,0,5,5,6,,,,,,,481.0652722080049,481.0652722080049,482.0651963749988,482.8870800420045,483.1320245419993,483.1320245419993,483.1320245419993,484.0654147919995,484.0654147919995,484.0654147919995,484.0654147919995,485.06515675000264,200006,004,2023-04-07_11h15.09.209,DMS_et_12-36,2022.2.4,None,
57,PRED,12,1.0672096059898624,0,images/picture_1.png,images/picture_1.png,0,"[11.733433509789464, 11.733433509789462]",11.733433509789464,11.733433509789462,images/picture_2.png,1,"[11.733433509789462, -11.733433509789466]",11.733433509789462,-11.733433509789464,images/picture_3.png,2,"[-11.733433509789462, 11.733433509789464]",-11.733433509789462,11.733433509789464,0,1,1,1.0672096059898624,2.0672096059898624,0.9327903940101376,3.0,1,1.8172096059898624,0,4.0,3.0,1,2,6,0,6,0,0,6,6,3,,,,,,,485.06515675000264,485.06515675000264,486.06552908300364,486.88469454200094,487.13201633300196,487.13201633300196,487.13201633300196,488.0654559579998,488.0654559579998,488.0654559579998,488.0654559579998,489.0649135000058,200006,004,2023-04-07_11h15.09.209,DMS_et_12-36,2022.2.4,None,
55,PRED,12,1.0672096059898624,0,images/picture_1.png,images/picture_1.png,0,"[-11.733433509789462, 11.733433509789464]",-11.733433509789462,11.733433509789464,images/picture_2.png,1,"[11.733433509789462, -11.733433509789466]",11.733433509789462,-11.733433509789464,images/picture_3.png,2,"[11.733433509789464, 11.733433509789462]",11.733433509789464,11.733433509789462,0,1,1,1.0672096059898624,2.0672096059898624,0.9327903940101376,3.0,1,1.8172096059898624,0,4.0,3.0,1,2,6,0,6,0,0,7,7,1,,,,,,,489.0649135000058,489.0649135000058,490.0654505000057,490.8849169169989,491.1321911250052,491.1321911250052,491.1321911250052,492.06551975000184,492.06551975000184,492.06551975000184,492.06551975000184,493.0652870000049,200006,004,2023-04-07_11h15.09.209,DMS_et_12-36,2022.2.4,None,
59,PRED,12,1.0672096059898624,0,images/picture_1.png,images/picture_1.png,0,"[11.733433509789464, 11.733433509789462]",11.733433509789464,11.733433509789462,images/picture_2.png,1,"[11.733433509789462, -11.733433509789466]",11.733433509789462,-11.733433509789464,images/picture_3.png,2,"[-11.733433509789462, 11.733433509789464]",-11.733433509789462,11.733433509789464,0,1,1,1.0672096059898624,2.0672096059898624,0.9327903940101376,3.0,1,1.8172096059898624,0,4.0,3.0,1,2,6,0,6,0,0,8,8,5,,,,,,,493.0652870000049,493.0652870000049,494.0656952499994,494.88442575000226,495.1323494579992,495.1323494579992,495.1323494579992,496.06547970799875,496.06547970799875,496.06547970799875,496.06547970799875,497.1440679580046,200006,004,2023-04-07_11h15.09.209,DMS_et_12-36,2022.2.4,None,
,,,,,,,,,,,,,,,,,,,,,,,,,,,,,,,,,,,6,0,6,0,,,,,,,,,497.1440679580046,509.17608483300137,,,,,,,,,,,,,200006,004,2023-04-07_11h15.09.209,DMS_et_12-36,2022.2.4,None,
63,UNPRED,12,1.0672096059898624,2,images/picture_3.png,images/picture_1.png,0,"[-11.733433509789462, 11.733433509789464]",-11.733433509789462,11.733433509789464,images/picture_2.png,1,"[11.733433509789462, -11.733433509789466]",11.733433509789462,-11.733433509789464,images/picture_3.png,2,"[11.733433509789464, 11.733433509789462]",11.733433509789464,11.733433509789462,0,1,1,1.0672096059898624,2.0672096059898624,0.9327903940101376,3.0,1,1.8172096059898624,0,4.0,3.0,1,2,7,0,7,0,0,0,0,0,,,,,,,509.17608483300137,509.17608483300137,510.18411133300106,510.9987265000018,511.23224270799983,511.23224270799983,511.23224270799983,512.1654899999994,512.1654899999994,512.1654899999994,512.1654899999994,513.1663377500008,200006,004,2023-04-07_11h15.09.209,DMS_et_12-36,2022.2.4,None,
64,UNPRED,12,1.0672096059898624,2,images/picture_3.png,images/picture_1.png,0,"[-11.733433509789462, 11.733433509789464]",-11.733433509789462,11.733433509789464,images/picture_2.png,1,"[-11.733433509789466, -11.733433509789462]",-11.733433509789464,-11.733433509789462,images/picture_3.png,2,"[11.733433509789464, 11.733433509789462]",11.733433509789464,11.733433509789462,0,1,1,1.0672096059898624,2.0672096059898624,0.9327903940101376,3.0,1,1.8172096059898624,0,4.0,3.0,1,2,7,0,7,0,0,1,1,1,,,,,,,513.1663377500008,513.1663377500008,514.1654696250043,514.9987551670056,515.2322904579996,515.2322904579996,515.2322904579996,516.1655029169997,516.1655029169997,516.1655029169997,516.1655029169997,517.1841110829992,200006,004,2023-04-07_11h15.09.209,DMS_et_12-36,2022.2.4,None,
67,UNPRED,12,1.0672096059898624,2,images/picture_3.png,images/picture_1.png,0,"[-11.733433509789462, 11.733433509789464]",-11.733433509789462,11.733433509789464,images/picture_2.png,1,"[11.733433509789464, 11.733433509789462]",11.733433509789464,11.733433509789462,images/picture_3.png,2,"[-11.733433509789466, -11.733433509789462]",-11.733433509789464,-11.733433509789462,0,1,1,1.0672096059898624,2.0672096059898624,0.9327903940101376,3.0,1,1.8172096059898624,0,4.0,3.0,1,2,7,0,7,0,0,2,2,4,,,,,,,517.1841110829992,517.1841110829992,518.1988987920049,518.9989357080049,519.2323905830053,519.2323905830053,519.2323905830053,520.1654822500059,520.1654822500059,520.1654822500059,520.1654822500059,521.1656948330055,200006,004,2023-04-07_11h15.09.209,DMS_et_12-36,2022.2.4,None,
65,UNPRED,12,1.0672096059898624,0,images/picture_1.png,images/picture_1.png,0,"[-11.733433509789466, -11.733433509789462]",-11.733433509789464,-11.733433509789462,images/picture_2.png,1,"[-11.733433509789462, 11.733433509789464]",-11.733433509789462,11.733433509789464,images/picture_3.png,2,"[11.733433509789462, -11.733433509789466]",11.733433509789462,-11.733433509789464,0,1,1,1.0672096059898624,2.0672096059898624,0.9327903940101376,3.0,1,1.8172096059898624,0,4.0,3.0,1,2,7,0,7,0,0,3,3,2,,,,,,,521.1656948330055,521.1656948330055,522.1654966249989,522.9848849170012,523.2319970829994,523.2319970829994,523.2319970829994,524.1654174170035,524.1654174170035,524.1654174170035,524.1654174170035,525.1660437500032,200006,004,2023-04-07_11h15.09.209,DMS_et_12-36,2022.2.4,None,
68,UNPRED,12,1.0672096059898624,1,images/picture_2.png,images/picture_1.png,0,"[11.733433509789462, -11.733433509789466]",11.733433509789462,-11.733433509789464,images/picture_2.png,1,"[11.733433509789464, 11.733433509789462]",11.733433509789464,11.733433509789462,images/picture_3.png,2,"[-11.733433509789466, -11.733433509789462]",-11.733433509789464,-11.733433509789462,0,1,1,1.0672096059898624,2.0672096059898624,0.9327903940101376,3.0,1,1.8172096059898624,0,4.0,3.0,1,2,7,0,7,0,0,4,4,5,,,,,,,525.1660437500032,525.1660437500032,526.1655089170017,526.9989771670007,527.2322384580038,527.2322384580038,527.2322384580038,528.1657353330011,528.1657353330011,528.1657353330011,528.1657353330011,529.1650747919994,200006,004,2023-04-07_11h15.09.209,DMS_et_12-36,2022.2.4,None,
69,UNPRED,12,1.0672096059898624,1,images/picture_2.png,images/picture_1.png,0,"[-11.733433509789466, -11.733433509789462]",-11.733433509789464,-11.733433509789462,images/picture_2.png,1,"[11.733433509789462, -11.733433509789466]",11.733433509789462,-11.733433509789464,images/picture_3.png,2,"[11.733433509789464, 11.733433509789462]",11.733433509789464,11.733433509789462,0,1,1,1.0672096059898624,2.0672096059898624,0.9327903940101376,3.0,1,1.8172096059898624,0,4.0,3.0,1,2,7,0,7,0,0,5,5,6,,,,,,,529.1650747919994,529.1650747919994,530.1657075420007,530.9848574580028,531.232244167004,531.232244167004,531.232244167004,532.165525000004,532.165525000004,532.165525000004,532.165525000004,533.1843105000007,200006,004,2023-04-07_11h15.09.209,DMS_et_12-36,2022.2.4,None,
66,UNPRED,12,1.0672096059898624,2,images/picture_3.png,images/picture_1.png,0,"[-11.733433509789466, -11.733433509789462]",-11.733433509789464,-11.733433509789462,images/picture_2.png,1,"[11.733433509789464, 11.733433509789462]",11.733433509789464,11.733433509789462,images/picture_3.png,2,"[-11.733433509789462, 11.733433509789464]",-11.733433509789462,11.733433509789464,0,1,1,1.0672096059898624,2.0672096059898624,0.9327903940101376,3.0,1,1.8172096059898624,0,4.0,3.0,1,2,7,0,7,0,0,6,6,3,,,,,,,533.1843105000007,533.1843105000007,534.1987309579999,534.9985955420052,535.2322050000002,535.2322050000002,535.2322050000002,536.1655237500017,536.1655237500017,536.1655237500017,536.1655237500017,537.164979000001,200006,004,2023-04-07_11h15.09.209,DMS_et_12-36,2022.2.4,None,
71,UNPRED,12,1.0672096059898624,0,images/picture_1.png,images/picture_1.png,0,"[-11.733433509789462, 11.733433509789464]",-11.733433509789462,11.733433509789464,images/picture_2.png,1,"[-11.733433509789466, -11.733433509789462]",-11.733433509789464,-11.733433509789462,images/picture_3.png,2,"[11.733433509789464, 11.733433509789462]",11.733433509789464,11.733433509789462,0,1,1,1.0672096059898624,2.0672096059898624,0.9327903940101376,3.0,1,1.8172096059898624,0,4.0,3.0,1,2,7,0,7,0,0,7,7,8,,,,,,,537.164979000001,537.164979000001,538.1656930000026,538.9847290000034,539.2322499580041,539.2322499580041,539.2322499580041,540.1655975829999,540.1655975829999,540.1655975829999,540.1655975829999,541.1652606670032,200006,004,2023-04-07_11h15.09.209,DMS_et_12-36,2022.2.4,None,
70,UNPRED,12,1.0672096059898624,0,images/picture_1.png,images/picture_1.png,0,"[-11.733433509789466, -11.733433509789462]",-11.733433509789464,-11.733433509789462,images/picture_2.png,1,"[11.733433509789464, 11.733433509789462]",11.733433509789464,11.733433509789462,images/picture_3.png,2,"[-11.733433509789462, 11.733433509789464]",-11.733433509789462,11.733433509789464,0,1,1,1.0672096059898624,2.0672096059898624,0.9327903940101376,3.0,1,1.8172096059898624,0,4.0,3.0,1,2,7,0,7,0,0,8,8,7,,,,,,,541.1652606670032,541.1652606670032,542.1655664999998,542.984757875005,543.2322502500028,543.2322502500028,543.2322502500028,544.1653139580012,544.1653139580012,544.1653139580012,544.1653139580012,545.2529373750003,200006,004,2023-04-07_11h15.09.209,DMS_et_12-36,2022.2.4,None,
,,,,,,,,,,,,,,,,,,,,,,,,,,,,,,,,,,,7,0,7,0,,,,,,,,,545.2529373750003,557.2981550830009,,,,,,,,,,,,,200006,004,2023-04-07_11h15.09.209,DMS_et_12-36,2022.2.4,None,
72,PRED,12,1.0672096059898624,2,images/picture_3.png,images/picture_1.png,0,"[-11.733433509789466, -11.733433509789462]",-11.733433509789464,-11.733433509789462,images/picture_2.png,1,"[11.733433509789462, -11.733433509789466]",11.733433509789462,-11.733433509789464,images/picture_3.png,2,"[11.733433509789464, 11.733433509789462]",11.733433509789464,11.733433509789462,0,1,1,1.0672096059898624,2.0672096059898624,0.9327903940101376,3.0,1,1.8172096059898624,0,4.0,3.0,1,2,8,0,8,0,0,0,0,0,,,,,,,557.2981550830009,557.2981550830009,558.2988573750044,559.1180354579992,559.3545330000052,559.3545330000052,559.3545330000052,560.284809458004,560.298997458005,560.298997458005,560.298997458005,561.3175095000042,200006,004,2023-04-07_11h15.09.209,DMS_et_12-36,2022.2.4,None,
76,PRED,12,1.0672096059898624,2,images/picture_3.png,images/picture_1.png,0,"[11.733433509789464, 11.733433509789462]",11.733433509789464,11.733433509789462,images/picture_2.png,1,"[11.733433509789462, -11.733433509789466]",11.733433509789462,-11.733433509789464,images/picture_3.png,2,"[-11.733433509789466, -11.733433509789462]",-11.733433509789464,-11.733433509789462,0,1,1,1.0672096059898624,2.0672096059898624,0.9327903940101376,3.0,1,1.8172096059898624,0,4.0,3.0,1,2,8,0,8,0,0,1,1,4,,,,,,,561.3175095000042,561.3175095000042,562.3323216249992,563.1324442080004,563.3657939580007,563.3657939580007,563.3657939580007,564.2986894170026,564.2986894170026,564.2986894170026,564.2986894170026,565.2995750830014,200006,004,2023-04-07_11h15.09.209,DMS_et_12-36,2022.2.4,None,
80,PRED,12,1.0672096059898624,2,images/picture_3.png,images/picture_1.png,0,"[-11.733433509789462, 11.733433509789464]",-11.733433509789462,11.733433509789464,images/picture_2.png,1,"[11.733433509789462, -11.733433509789466]",11.733433509789462,-11.733433509789464,images/picture_3.png,2,"[-11.733433509789466, -11.733433509789462]",-11.733433509789464,-11.733433509789462,0,1,1,1.0672096059898624,2.0672096059898624,0.9327903940101376,3.0,1,1.8172096059898624,0,4.0,3.0,1,2,8,0,8,0,0,2,2,8,,,,,,,565.2995750830014,565.2995750830014,566.299001667001,567.1322767500023,567.3655206250041,567.3655206250041,567.3655206250041,568.2990522079999,568.2990522079999,568.2990522079999,568.2990522079999,569.318175417,200006,004,2023-04-07_11h15.09.209,DMS_et_12-36,2022.2.4,None,
75,PRED,12,1.0672096059898624,2,images/picture_3.png,images/picture_1.png,0,"[-11.733433509789466, -11.733433509789462]",-11.733433509789464,-11.733433509789462,images/picture_2.png,1,"[11.733433509789464, 11.733433509789462]",11.733433509789464,11.733433509789462,images/picture_3.png,2,"[11.733433509789462, -11.733433509789466]",11.733433509789462,-11.733433509789464,0,1,1,1.0672096059898624,2.0672096059898624,0.9327903940101376,3.0,1,1.8172096059898624,0,4.0,3.0,1,2,8,0,8,0,0,3,3,3,,,,,,,569.318175417,569.318175417,570.3322751670057,571.132277208002,571.3654929580007,571.3654929580007,571.3654929580007,572.2989824169999,572.2989824169999,572.2989824169999,572.2989824169999,573.3178016250022,200006,004,2023-04-07_11h15.09.209,DMS_et_12-36,2022.2.4,None,
77,PRED,12,1.0672096059898624,2,images/picture_3.png,images/picture_1.png,0,"[-11.733433509789462, 11.733433509789464]",-11.733433509789462,11.733433509789464,images/picture_2.png,1,"[11.733433509789464, 11.733433509789462]",11.733433509789464,11.733433509789462,images/picture_3.png,2,"[-11.733433509789466, -11.733433509789462]",-11.733433509789464,-11.733433509789462,0,1,1,1.0672096059898624,2.0672096059898624,0.9327903940101376,3.0,1,1.8172096059898624,0,4.0,3.0,1,2,8,0,8,0,0,4,4,5,,,,,,,573.3178016250022,573.3178016250022,574.3324680830046,575.1321234170027,575.3652864579999,575.3652864579999,575.3652864579999,576.2989384169996,576.2989384169996,576.2989384169996,576.2989384169996,577.3175370000026,200006,004,2023-04-07_11h15.09.209,DMS_et_12-36,2022.2.4,None,
79,PRED,12,1.0672096059898624,2,images/picture_3.png,images/picture_1.png,0,"[-11.733433509789466, -11.733433509789462]",-11.733433509789464,-11.733433509789462,images/picture_2.png,1,"[11.733433509789462, -11.733433509789466]",11.733433509789462,-11.733433509789464,images/picture_3.png,2,"[11.733433509789464, 11.733433509789462]",11.733433509789464,11.733433509789462,0,1,1,1.0672096059898624,2.0672096059898624,0.9327903940101376,3.0,1,1.8172096059898624,0,4.0,3.0,1,2,8,0,8,0,0,5,5,7,,,,,,,577.3175370000026,577.3175370000026,578.3322586670038,579.1323194580036,579.3655128750033,579.3655128750033,579.3655128750033,580.2989924170033,580.2989924170033,580.2989924170033,580.2989924170033,581.3182101250059,200006,004,2023-04-07_11h15.09.209,DMS_et_12-36,2022.2.4,None,
73,PRED,12,1.0672096059898624,2,images/picture_3.png,images/picture_1.png,0,"[-11.733433509789466, -11.733433509789462]",-11.733433509789464,-11.733433509789462,images/picture_2.png,1,"[11.733433509789464, 11.733433509789462]",11.733433509789464,11.733433509789462,images/picture_3.png,2,"[-11.733433509789462, 11.733433509789464]",-11.733433509789462,11.733433509789464,0,1,1,1.0672096059898624,2.0672096059898624,0.9327903940101376,3.0,1,1.8172096059898624,0,4.0,3.0,1,2,8,0,8,0,0,6,6,1,,,,,,,581.3182101250059,581.3182101250059,582.3322669580011,583.1322650830043,583.3657291250056,583.3657291250056,583.3657291250056,584.2991685830057,584.2991685830057,584.2991685830057,584.2991685830057,585.2996574999997,200006,004,2023-04-07_11h15.09.209,DMS_et_12-36,2022.2.4,None,
74,PRED,12,1.0672096059898624,2,images/picture_3.png,images/picture_1.png,0,"[-11.733433509789462, 11.733433509789464]",-11.733433509789462,11.733433509789464,images/picture_2.png,1,"[-11.733433509789466, -11.733433509789462]",-11.733433509789464,-11.733433509789462,images/picture_3.png,2,"[11.733433509789462, -11.733433509789466]",11.733433509789462,-11.733433509789464,0,1,1,1.0672096059898624,2.0672096059898624,0.9327903940101376,3.0,1,1.8172096059898624,0,4.0,3.0,1,2,8,0,8,0,0,7,7,2,,,,,,,585.2996574999997,585.2996574999997,586.2989797080008,587.1322766670055,587.3657273749996,587.3657273749996,587.3657273749996,588.2989892920014,588.2989892920014,588.2989892920014,588.2989892920014,589.3174984170037,200006,004,2023-04-07_11h15.09.209,DMS_et_12-36,2022.2.4,None,
78,PRED,12,1.0672096059898624,2,images/picture_3.png,images/picture_1.png,0,"[11.733433509789462, -11.733433509789466]",11.733433509789462,-11.733433509789464,images/picture_2.png,1,"[-11.733433509789466, -11.733433509789462]",-11.733433509789464,-11.733433509789462,images/picture_3.png,2,"[-11.733433509789462, 11.733433509789464]",-11.733433509789462,11.733433509789464,0,1,1,1.0672096059898624,2.0672096059898624,0.9327903940101376,3.0,1,1.8172096059898624,0,4.0,3.0,1,2,8,0,8,0,0,8,8,6,,,,,,,589.3174984170037,589.3174984170037,590.3322655830052,591.1322806250027,591.365542917003,591.365542917003,591.365542917003,592.2989832500025,592.2989832500025,592.2989832500025,592.2989832500025,593.3924398330055,200006,004,2023-04-07_11h15.09.209,DMS_et_12-36,2022.2.4,None,
,,,,,,,,,,,,,,,,,,,,,,,,,,,,,,,,,,,8,0,8,0,,,,,,,,,593.3924398330055,605.4174275000041,,,,,,,,,,,,,200006,004,2023-04-07_11h15.09.209,DMS_et_12-36,2022.2.4,None,
86,UNPRED,12,1.0672096059898624,0,images/picture_1.png,images/picture_1.png,0,"[-11.733433509789466, -11.733433509789462]",-11.733433509789464,-11.733433509789462,images/picture_2.png,1,"[-11.733433509789462, 11.733433509789464]",-11.733433509789462,11.733433509789464,images/picture_3.png,2,"[11.733433509789462, -11.733433509789466]",11.733433509789462,-11.733433509789464,0,1,1,1.0672096059898624,2.0672096059898624,0.9327903940101376,3.0,1,1.8172096059898624,0,4.0,3.0,1,2,9,0,9,0,0,0,0,5,,,,,,,605.4174275000041,605.4174275000041,606.4320062080005,607.2322762080003,607.4658157500016,607.4658157500016,607.4658157500016,608.3990589169989,608.3990589169989,608.3990589169989,608.3990589169989,609.3990586670043,200006,004,2023-04-07_11h15.09.209,DMS_et_12-36,2022.2.4,None,
81,UNPRED,12,1.0672096059898624,1,images/picture_2.png,images/picture_1.png,0,"[11.733433509789462, -11.733433509789466]",11.733433509789462,-11.733433509789464,images/picture_2.png,1,"[11.733433509789464, 11.733433509789462]",11.733433509789464,11.733433509789462,images/picture_3.png,2,"[-11.733433509789462, 11.733433509789464]",-11.733433509789462,11.733433509789464,0,1,1,1.0672096059898624,2.0672096059898624,0.9327903940101376,3.0,1,1.8172096059898624,0,4.0,3.0,1,2,9,0,9,0,0,1,1,0,,,,,,,609.3990586670043,609.3990586670043,610.3990231249991,611.218130250003,611.4656843330013,611.4656843330013,611.4656843330013,612.3989646670016,612.3989646670016,612.3989646670016,612.3989646670016,613.3984883330049,200006,004,2023-04-07_11h15.09.209,DMS_et_12-36,2022.2.4,None,
84,UNPRED,12,1.0672096059898624,1,images/picture_2.png,images/picture_1.png,0,"[-11.733433509789466, -11.733433509789462]",-11.733433509789464,-11.733433509789462,images/picture_2.png,1,"[-11.733433509789462, 11.733433509789464]",-11.733433509789462,11.733433509789464,images/picture_3.png,2,"[11.733433509789462, -11.733433509789466]",11.733433509789462,-11.733433509789464,0,1,1,1.0672096059898624,2.0672096059898624,0.9327903940101376,3.0,1,1.8172096059898624,0,4.0,3.0,1,2,9,0,9,0,0,2,2,3,,,,,,,613.3984883330049,613.3984883330049,614.3990269999995,615.2181842080026,615.4655752079998,615.4655752079998,615.4655752079998,616.3986708750017,616.3986708750017,616.3986708750017,616.3986708750017,617.3981416669994,200006,004,2023-04-07_11h15.09.209,DMS_et_12-36,2022.2.4,None,
88,UNPRED,12,1.0672096059898624,1,images/picture_2.png,images/picture_1.png,0,"[-11.733433509789466, -11.733433509789462]",-11.733433509789464,-11.733433509789462,images/picture_2.png,1,"[-11.733433509789462, 11.733433509789464]",-11.733433509789462,11.733433509789464,images/picture_3.png,2,"[11.733433509789464, 11.733433509789462]",11.733433509789464,11.733433509789462,0,1,1,1.0672096059898624,2.0672096059898624,0.9327903940101376,3.0,1,1.8172096059898624,0,4.0,3.0,1,2,9,0,9,0,0,3,3,7,,,,,,,617.3981416669994,617.3981416669994,618.399020249999,619.2182583329995,619.4657468750011,619.4657468750011,619.4657468750011,620.3992080419994,620.3992080419994,620.3992080419994,620.3992080419994,621.417844167001,200006,004,2023-04-07_11h15.09.209,DMS_et_12-36,2022.2.4,None,
83,UNPRED,12,1.0672096059898624,2,images/picture_3.png,images/picture_1.png,0,"[-11.733433509789466, -11.733433509789462]",-11.733433509789464,-11.733433509789462,images/picture_2.png,1,"[-11.733433509789462, 11.733433509789464]",-11.733433509789462,11.733433509789464,images/picture_3.png,2,"[11.733433509789464, 11.733433509789462]",11.733433509789464,11.733433509789462,0,1,1,1.0672096059898624,2.0672096059898624,0.9327903940101376,3.0,1,1.8172096059898624,0,4.0,3.0,1,2,9,0,9,0,0,4,4,2,,,,,,,621.417844167001,621.417844167001,622.432578167005,623.2324977079988,623.4657215830011,623.4657215830011,623.4657215830011,624.399041292003,624.399041292003,624.399041292003,624.399041292003,625.4174159169997,200006,004,2023-04-07_11h15.09.209,DMS_et_12-36,2022.2.4,None,
87,UNPRED,12,1.0672096059898624,2,images/picture_3.png,images/picture_1.png,0,"[-11.733433509789462, 11.733433509789464]",-11.733433509789462,11.733433509789464,images/picture_2.png,1,"[11.733433509789462, -11.733433509789466]",11.733433509789462,-11.733433509789464,images/picture_3.png,2,"[-11.733433509789466, -11.733433509789462]",-11.733433509789464,-11.733433509789462,0,1,1,1.0672096059898624,2.0672096059898624,0.9327903940101376,3.0,1,1.8172096059898624,0,4.0,3.0,1,2,9,0,9,0,0,5,5,6,,,,,,,625.4174159169997,625.4174159169997,626.4323891250024,627.2323630000028,627.4657437920032,627.4657437920032,627.4657437920032,628.3990188750031,628.3990188750031,628.3990188750031,628.3990188750031,629.3986159580018,200006,004,2023-04-07_11h15.09.209,DMS_et_12-36,2022.2.4,None,
85,UNPRED,12,1.0672096059898624,0,images/picture_1.png,images/picture_1.png,0,"[11.733433509789462, -11.733433509789466]",11.733433509789462,-11.733433509789464,images/picture_2.png,1,"[-11.733433509789462, 11.733433509789464]",-11.733433509789462,11.733433509789464,images/picture_3.png,2,"[-11.733433509789466, -11.733433509789462]",-11.733433509789464,-11.733433509789462,0,1,1,1.0672096059898624,2.0672096059898624,0.9327903940101376,3.0,1,1.8172096059898624,0,4.0,3.0,1,2,9,0,9,0,0,6,6,4,,,,,,,629.3986159580018,629.3986159580018,630.3989815419991,631.2188295420056,631.4657032079995,631.4657032079995,631.4657032079995,632.3989738750024,632.3989738750024,632.3989738750024,632.3989738750024,633.3986547500026,200006,004,2023-04-07_11h15.09.209,DMS_et_12-36,2022.2.4,None,
82,UNPRED,12,1.0672096059898624,0,images/picture_1.png,images/picture_1.png,0,"[11.733433509789462, -11.733433509789466]",11.733433509789462,-11.733433509789464,images/picture_2.png,1,"[-11.733433509789462, 11.733433509789464]",-11.733433509789462,11.733433509789464,images/picture_3.png,2,"[-11.733433509789466, -11.733433509789462]",-11.733433509789464,-11.733433509789462,0,1,1,1.0672096059898624,2.0672096059898624,0.9327903940101376,3.0,1,1.8172096059898624,0,4.0,3.0,1,2,9,0,9,0,0,7,7,1,,,,,,,633.3986547500026,633.3986547500026,634.3991038330059,635.2183717920052,635.465768083006,635.465768083006,635.465768083006,636.3986778750041,636.3986778750041,636.3986778750041,636.3986778750041,637.4175010000035,200006,004,2023-04-07_11h15.09.209,DMS_et_12-36,2022.2.4,None,
89,UNPRED,12,1.0672096059898624,2,images/picture_3.png,images/picture_1.png,0,"[11.733433509789462, -11.733433509789466]",11.733433509789462,-11.733433509789464,images/picture_2.png,1,"[-11.733433509789462, 11.733433509789464]",-11.733433509789462,11.733433509789464,images/picture_3.png,2,"[-11.733433509789466, -11.733433509789462]",-11.733433509789464,-11.733433509789462,0,1,1,1.0672096059898624,2.0672096059898624,0.9327903940101376,3.0,1,1.8172096059898624,0,4.0,3.0,1,2,9,0,9,0,0,8,8,8,,,,,,,637.4175010000035,637.4175010000035,638.4324913750024,639.2324592920049,639.4657242500034,639.4657242500034,639.4657242500034,640.3990253330048,640.3990253330048,640.3990253330048,640.3990253330048,641.5031015000059,200006,004,2023-04-07_11h15.09.209,DMS_et_12-36,2022.2.4,None,
,,,,,,,,,,,,,,,,,,,,,,,,,,,,,,,,,,,9,0,9,0,,,,,,,,,641.5031015000059,653.5407075000039,,,,,,,,,,,,,200006,004,2023-04-07_11h15.09.209,DMS_et_12-36,2022.2.4,None,
96,PRED,12,1.0672096059898624,1,images/picture_2.png,images/picture_1.png,0,"[-11.733433509789462, 11.733433509789464]",-11.733433509789462,11.733433509789464,images/picture_2.png,1,"[11.733433509789462, -11.733433509789466]",11.733433509789462,-11.733433509789464,images/picture_3.png,2,"[11.733433509789464, 11.733433509789462]",11.733433509789464,11.733433509789462,0,1,1,1.0672096059898624,2.0672096059898624,0.9327903940101376,3.0,1,1.8172096059898624,0,4.0,3.0,1,2,10,0,10,0,0,0,0,6,,,,,,,653.5407075000039,653.5407075000039,654.5522246670007,655.3657307500034,655.5989528330028,655.5989528330028,655.5989528330028,656.5321172500044,656.5321172500044,656.5321172500044,656.5321172500044,657.5320619170016,200006,004,2023-04-07_11h15.09.209,DMS_et_12-36,2022.2.4,None,
98,PRED,12,1.0672096059898624,1,images/picture_2.png,images/picture_1.png,0,"[11.733433509789464, 11.733433509789462]",11.733433509789464,11.733433509789462,images/picture_2.png,1,"[-11.733433509789466, -11.733433509789462]",-11.733433509789464,-11.733433509789462,images/picture_3.png,2,"[11.733433509789462, -11.733433509789466]",11.733433509789462,-11.733433509789464,0,1,1,1.0672096059898624,2.0672096059898624,0.9327903940101376,3.0,1,1.8172096059898624,0,4.0,3.0,1,2,10,0,10,0,0,1,1,8,,,,,,,657.5320619170016,657.5320619170016,658.5323124999995,659.3515148750012,659.5990042920021,659.5990042920021,659.5990042920021,660.5324605420028,660.5324605420028,660.5324605420028,660.5324605420028,661.5314546250011,200006,004,2023-04-07_11h15.09.209,DMS_et_12-36,2022.2.4,None,
94,PRED,12,1.0672096059898624,1,images/picture_2.png,images/picture_1.png,0,"[-11.733433509789462, 11.733433509789464]",-11.733433509789462,11.733433509789464,images/picture_2.png,1,"[11.733433509789462, -11.733433509789466]",11.733433509789462,-11.733433509789464,images/picture_3.png,2,"[-11.733433509789466, -11.733433509789462]",-11.733433509789464,-11.733433509789462,0,1,1,1.0672096059898624,2.0672096059898624,0.9327903940101376,3.0,1,1.8172096059898624,0,4.0,3.0,1,2,10,0,10,0,0,2,2,4,,,,,,,661.5314546250011,661.5314546250011,662.5324532500017,663.3517691250017,663.5992529580035,663.5992529580035,663.5992529580035,664.5323301250028,664.5323301250028,664.5323301250028,664.5323301250028,665.5312639170006,200006,004,2023-04-07_11h15.09.209,DMS_et_12-36,2022.2.4,None,
90,PRED,12,1.0672096059898624,1,images/picture_2.png,images/picture_1.png,0,"[11.733433509789462, -11.733433509789466]",11.733433509789462,-11.733433509789464,images/picture_2.png,1,"[-11.733433509789462, 11.733433509789464]",-11.733433509789462,11.733433509789464,images/picture_3.png,2,"[-11.733433509789466, -11.733433509789462]",-11.733433509789464,-11.733433509789462,0,1,1,1.0672096059898624,2.0672096059898624,0.9327903940101376,3.0,1,1.8172096059898624,0,4.0,3.0,1,2,10,0,10,0,0,3,3,0,,,,,,,665.5312639170006,665.5312639170006,666.5325148750053,667.3510308330006,667.5987957920006,667.5987957920006,667.5987957920006,668.5324686250024,668.5324686250024,668.5324686250024,668.5324686250024,669.5323465420006,200006,004,2023-04-07_11h15.09.209,DMS_et_12-36,2022.2.4,None,
97,PRED,12,1.0672096059898624,1,images/picture_2.png,images/picture_1.png,0,"[11.733433509789462, -11.733433509789466]",11.733433509789462,-11.733433509789464,images/picture_2.png,1,"[-11.733433509789466, -11.733433509789462]",-11.733433509789464,-11.733433509789462,images/picture_3.png,2,"[11.733433509789464, 11.733433509789462]",11.733433509789464,11.733433509789462,0,1,1,1.0672096059898624,2.0672096059898624,0.9327903940101376,3.0,1,1.8172096059898624,0,4.0,3.0,1,2,10,0,10,0,0,4,4,7,,,,,,,669.5323465420006,669.5323465420006,670.5322373330055,671.3513860419989,671.5991831249994,671.5991831249994,671.5991831249994,672.5324756670016,672.5324756670016,672.5324756670016,672.5324756670016,673.5318357080032,200006,004,2023-04-07_11h15.09.209,DMS_et_12-36,2022.2.4,None,
95,PRED,12,1.0672096059898624,1,images/picture_2.png,images/picture_1.png,0,"[11.733433509789462, -11.733433509789466]",11.733433509789462,-11.733433509789464,images/picture_2.png,1,"[-11.733433509789462, 11.733433509789464]",-11.733433509789462,11.733433509789464,images/picture_3.png,2,"[-11.733433509789466, -11.733433509789462]",-11.733433509789464,-11.733433509789462,0,1,1,1.0672096059898624,2.0672096059898624,0.9327903940101376,3.0,1,1.8172096059898624,0,4.0,3.0,1,2,10,0,10,0,0,5,5,5,,,,,,,673.5318357080032,673.5318357080032,674.5324413330018,675.3522969580008,675.5989715420001,675.5989715420001,675.5989715420001,676.5325421670059,676.5325421670059,676.5325421670059,676.5325421670059,677.5321017500028,200006,004,2023-04-07_11h15.09.209,DMS_et_12-36,2022.2.4,None,
91,PRED,12,1.0672096059898624,1,images/picture_2.png,images/picture_1.png,0,"[11.733433509789462, -11.733433509789466]",11.733433509789462,-11.733433509789464,images/picture_2.png,1,"[11.733433509789464, 11.733433509789462]",11.733433509789464,11.733433509789462,images/picture_3.png,2,"[-11.733433509789466, -11.733433509789462]",-11.733433509789464,-11.733433509789462,0,1,1,1.0672096059898624,2.0672096059898624,0.9327903940101376,3.0,1,1.8172096059898624,0,4.0,3.0,1,2,10,0,10,0,0,6,6,1,,,,,,,677.5321017500028,677.5321017500028,678.5324658329992,679.352261167005,679.5990032920017,679.5990032920017,679.5990032920017,680.5325639580042,680.5325639580042,680.5325639580042,680.5325639580042,681.532245500006,200006,004,2023-04-07_11h15.09.209,DMS_et_12-36,2022.2.4,None,
93,PRED,12,1.0672096059898624,1,images/picture_2.png,images/picture_1.png,0,"[11.733433509789462, -11.733433509789466]",11.733433509789462,-11.733433509789464,images/picture_2.png,1,"[-11.733433509789466, -11.733433509789462]",-11.733433509789464,-11.733433509789462,images/picture_3.png,2,"[11.733433509789464, 11.733433509789462]",11.733433509789464,11.733433509789462,0,1,1,1.0672096059898624,2.0672096059898624,0.9327903940101376,3.0,1,1.8172096059898624,0,4.0,3.0,1,2,10,0,10,0,0,7,7,3,,,,,,,681.532245500006,681.532245500006,682.532463167001,683.351445291999,683.5990347920015,683.5990347920015,683.5990347920015,684.5324502080039,684.5324502080039,684.5324502080039,684.5324502080039,685.531859708004,200006,004,2023-04-07_11h15.09.209,DMS_et_12-36,2022.2.4,None,
92,PRED,12,1.0672096059898624,1,images/picture_2.png,images/picture_1.png,0,"[-11.733433509789466, -11.733433509789462]",-11.733433509789464,-11.733433509789462,images/picture_2.png,1,"[11.733433509789464, 11.733433509789462]",11.733433509789464,11.733433509789462,images/picture_3.png,2,"[11.733433509789462, -11.733433509789466]",11.733433509789462,-11.733433509789464,0,1,1,1.0672096059898624,2.0672096059898624,0.9327903940101376,3.0,1,1.8172096059898624,0,4.0,3.0,1,2,10,0,10,0,0,8,8,2,,,,,,,685.531859708004,685.531859708004,686.5324508750055,687.3513248750023,687.5987582080052,687.5987582080052,687.5987582080052,688.5322745000012,688.5322745000012,688.5322745000012,688.5322745000012,689.6459589170045,200006,004,2023-04-07_11h15.09.209,DMS_et_12-36,2022.2.4,None,
,,,,,,,,,,,,,,,,,,,,,,,,,,,,,,,,,,,10,0,10,0,,,,,,,,,689.6459589170045,701.6724868330057,,,,,,,,,,,,,200006,004,2023-04-07_11h15.09.209,DMS_et_12-36,2022.2.4,None,
107,UNPRED,12,1.0672096059898624,0,images/picture_1.png,images/picture_1.png,0,"[11.733433509789464, 11.733433509789462]",11.733433509789464,11.733433509789462,images/picture_2.png,1,"[-11.733433509789462, 11.733433509789464]",-11.733433509789462,11.733433509789464,images/picture_3.png,2,"[-11.733433509789466, -11.733433509789462]",-11.733433509789464,-11.733433509789462,0,1,1,1.0672096059898624,2.0672096059898624,0.9327903940101376,3.0,1,1.8172096059898624,0,4.0,3.0,1,2,11,0,11,0,0,0,0,8,,,,,,,701.6724868330057,701.6724868330057,702.6850686670005,703.4990343329991,703.7324280829998,703.7324280829998,703.7324280829998,704.6658417500003,704.6658417500003,704.6658417500003,704.6658417500003,705.6646979580037,200006,004,2023-04-07_11h15.09.209,DMS_et_12-36,2022.2.4,None,
104,UNPRED,12,1.0672096059898624,1,images/picture_2.png,images/picture_1.png,0,"[11.733433509789464, 11.733433509789462]",11.733433509789464,11.733433509789462,images/picture_2.png,1,"[-11.733433509789466, -11.733433509789462]",-11.733433509789464,-11.733433509789462,images/picture_3.png,2,"[-11.733433509789462, 11.733433509789464]",-11.733433509789462,11.733433509789464,0,1,1,1.0672096059898624,2.0672096059898624,0.9327903940101376,3.0,1,1.8172096059898624,0,4.0,3.0,1,2,11,0,11,0,0,1,1,5,,,,,,,705.6646979580037,705.6646979580037,706.6657806250005,707.4851672500008,707.7324829999998,707.7324829999998,707.7324829999998,708.6655612079994,708.6655612079994,708.6655612079994,708.6655612079994,709.6843102920029,200006,004,2023-04-07_11h15.09.209,DMS_et_12-36,2022.2.4,None,
106,UNPRED,12,1.0672096059898624,2,images/picture_3.png,images/picture_1.png,0,"[-11.733433509789462, 11.733433509789464]",-11.733433509789462,11.733433509789464,images/picture_2.png,1,"[-11.733433509789466, -11.733433509789462]",-11.733433509789464,-11.733433509789462,images/picture_3.png,2,"[11.733433509789464, 11.733433509789462]",11.733433509789464,11.733433509789462,0,1,1,1.0672096059898624,2.0672096059898624,0.9327903940101376,3.0,1,1.8172096059898624,0,4.0,3.0,1,2,11,0,11,0,0,2,2,7,,,,,,,709.6843102920029,709.6843102920029,710.699051292002,711.4990453330029,711.7324870830053,711.7324870830053,711.7324870830053,712.6657337080032,712.6657337080032,712.6657337080032,712.6657337080032,713.6651289580041,200006,004,2023-04-07_11h15.09.209,DMS_et_12-36,2022.2.4,None,
102,UNPRED,12,1.0672096059898624,0,images/picture_1.png,images/picture_1.png,0,"[11.733433509789462, -11.733433509789466]",11.733433509789462,-11.733433509789464,images/picture_2.png,1,"[-11.733433509789462, 11.733433509789464]",-11.733433509789462,11.733433509789464,images/picture_3.png,2,"[11.733433509789464, 11.733433509789462]",11.733433509789464,11.733433509789462,0,1,1,1.0672096059898624,2.0672096059898624,0.9327903940101376,3.0,1,1.8172096059898624,0,4.0,3.0,1,2,11,0,11,0,0,3,3,3,,,,,,,713.6651289580041,713.6651289580041,714.6658821669989,715.4851950000011,715.7325102079994,715.7325102079994,715.7325102079994,716.6657472080042,716.6657472080042,716.6657472080042,716.6657472080042,717.6655172500032,200006,004,2023-04-07_11h15.09.209,DMS_et_12-36,2022.2.4,None,
99,UNPRED,12,1.0672096059898624,0,images/picture_1.png,images/picture_1.png,0,"[-11.733433509789462, 11.733433509789464]",-11.733433509789462,11.733433509789464,images/picture_2.png,1,"[-11.733433509789466, -11.733433509789462]",-11.733433509789464,-11.733433509789462,images/picture_3.png,2,"[11.733433509789462, -11.733433509789466]",11.733433509789462,-11.733433509789464,0,1,1,1.0672096059898624,2.0672096059898624,0.9327903940101376,3.0,1,1.8172096059898624,0,4.0,3.0,1,2,11,0,11,0,0,4,4,0,,,,,,,717.6655172500032,717.6655172500032,718.6655171250022,719.4849959999992,719.732477125006,719.732477125006,719.732477125006,720.6657568750015,720.6657568750015,720.6657568750015,720.6657568750015,721.6653929169988,200006,004,2023-04-07_11h15.09.209,DMS_et_12-36,2022.2.4,None,
105,UNPRED,12,1.0672096059898624,0,images/picture_1.png,images/picture_1.png,0,"[-11.733433509789466, -11.733433509789462]",-11.733433509789464,-11.733433509789462,images/picture_2.png,1,"[-11.733433509789462, 11.733433509789464]",-11.733433509789462,11.733433509789464,images/picture_3.png,2,"[11.733433509789464, 11.733433509789462]",11.733433509789464,11.733433509789462,0,1,1,1.0672096059898624,2.0672096059898624,0.9327903940101376,3.0,1,1.8172096059898624,0,4.0,3.0,1,2,11,0,11,0,0,5,5,6,,,,,,,721.6653929169988,721.6653929169988,722.6657683750018,723.4850565000015,723.7324952920026,723.7324952920026,723.7324952920026,724.665934042001,724.665934042001,724.665934042001,724.665934042001,725.6652255000008,200006,004,2023-04-07_11h15.09.209,DMS_et_12-36,2022.2.4,None,
103,UNPRED,12,1.0672096059898624,0,images/picture_1.png,images/picture_1.png,0,"[-11.733433509789462, 11.733433509789464]",-11.733433509789462,11.733433509789464,images/picture_2.png,1,"[11.733433509789464, 11.733433509789462]",11.733433509789464,11.733433509789462,images/picture_3.png,2,"[-11.733433509789466, -11.733433509789462]",-11.733433509789464,-11.733433509789462,0,1,1,1.0672096059898624,2.0672096059898624,0.9327903940101376,3.0,1,1.8172096059898624,0,4.0,3.0,1,2,11,0,11,0,0,6,6,4,,,,,,,725.6652255000008,725.6652255000008,726.6659836670005,727.4850866670022,727.7324579580018,727.7324579580018,727.7324579580018,728.6655533330049,728.6655533330049,728.6655533330049,728.6655533330049,729.684531167004,200006,004,2023-04-07_11h15.09.209,DMS_et_12-36,2022.2.4,None,
100,UNPRED,12,1.0672096059898624,2,images/picture_3.png,images/picture_1.png,0,"[-11.733433509789462, 11.733433509789464]",-11.733433509789462,11.733433509789464,images/picture_2.png,1,"[-11.733433509789466, -11.733433509789462]",-11.733433509789464,-11.733433509789462,images/picture_3.png,2,"[11.733433509789464, 11.733433509789462]",11.733433509789464,11.733433509789462,0,1,1,1.0672096059898624,2.0672096059898624,0.9327903940101376,3.0,1,1.8172096059898624,0,4.0,3.0,1,2,11,0,11,0,0,7,7,1,,,,,,,729.684531167004,729.684531167004,730.6989953750017,731.4991795419992,731.7326257080058,731.7326257080058,731.7326257080058,732.6659237499989,732.6659237499989,732.6659237499989,732.6659237499989,733.6657849170006,200006,004,2023-04-07_11h15.09.209,DMS_et_12-36,2022.2.4,None,
101,UNPRED,12,1.0672096059898624,0,images/picture_1.png,images/picture_1.png,0,"[11.733433509789464, 11.733433509789462]",11.733433509789464,11.733433509789462,images/picture_2.png,1,"[-11.733433509789466, -11.733433509789462]",-11.733433509789464,-11.733433509789462,images/picture_3.png,2,"[-11.733433509789462, 11.733433509789464]",-11.733433509789462,11.733433509789464,0,1,1,1.0672096059898624,2.0672096059898624,0.9327903940101376,3.0,1,1.8172096059898624,0,4.0,3.0,1,2,11,0,11,0,0,8,8,2,,,,,,,733.6657849170006,733.6657849170006,734.6659326670051,735.4855157080019,735.7324747500024,735.7324747500024,735.7324747500024,736.6658334169988,736.6658334169988,736.6658334169988,736.6658334169988,737.8331350830049,200006,004,2023-04-07_11h15.09.209,DMS_et_12-36,2022.2.4,None,
,,,,,,,,,,,,,,,,,,,,,,,,,,,,,,,,,,,11,0,11,0,,,,,,,,,737.8331350830049,749.9458311670023,,,,,,,,,,,,,200006,004,2023-04-07_11h15.09.209,DMS_et_12-36,2022.2.4,None,
,,,,,,,,,,,,,,,,,,,,,,,,,,,,,,,,,,,,,,,,,,,,,,,749.9458311670023,762.4759090830048,,,,,,,,,,,,,,,,,,,
