trial_count,blockType,blockNum,delay_time,stimImage_i,stimImage,responseImage1,responseImage1_i,responseImage1_pos,responseImage1_X,responseImage1_Y,responseImage2,responseImage2_i,responseImage2_pos,responseImage2_X,responseImage2_Y,responseImage3,responseImage3_i,responseImage3_pos,responseImage3_X,responseImage3_Y,cue_onset,cue_dur,delay_onset,delay_dur,resp_onset,resp_dur,rest_onset,rest_dur,circle_dur,circle_onset,blocks.thisRepN,blocks.thisTrialN,blocks.thisN,blocks.thisIndex,trials.thisRepN,trials.thisTrialN,trials.thisN,trials.thisIndex,key_resp.started,text.started,key_resp.keys,key_resp.rt,text_2.started,text_2.stopped,etRecord.started,sample.started,Delay.started,sample.stopped,Delay.stopped,Response_1.started,Response_2.started,Response_3.started,Response_1.stopped,Response_2.stopped,Response_3.stopped,polygon.started,etRecord.stopped,polygon.stopped,participant,session,date,expName,psychopyVersion,frameRate,
,,,,,,,,,,,,,,,,,,,,,,,,,,,,,,,,,,,,,,,17.8890152089989,17.8890152089989,t,67.05887804200029,,,,,,,,,,,,,,,,,200001,003,2023-03-10_12h17.03.266,DMS_BEST_eyetracking_DAN_base_12-36_looped_10minWORKING,2022.2.4,None,
1,PRED,12,1.1268820440687422,0,images/picture_1.png,images/picture_1.png,0,"[-11.733433509789466, -11.733433509789462]",-11.733433509789464,-11.733433509789462,images/picture_2.png,1,"[-11.733433509789462, 11.733433509789464]",-11.733433509789462,11.733433509789464,images/picture_3.png,2,"[11.733433509789464, 11.733433509789462]",11.733433509789464,11.733433509789462,0,1,1,1.1268820440687422,2.1268820440687417,0.8731179559312578,3,1,1.8768820440687424,0,0,0,0,0,0,0,0,1,,,,,84.9721701669987,97.00804799999969,,,,,,,,,,,,,,,200001,003,2023-03-10_12h17.03.266,DMS_BEST_eyetracking_DAN_base_12-36_looped_10minWORKING,2022.2.4,None,
1,PRED,12,1.1268820440687422,0,images/picture_1.png,images/picture_1.png,0,"[-11.733433509789466, -11.733433509789462]",-11.733433509789464,-11.733433509789462,images/picture_2.png,1,"[-11.733433509789462, 11.733433509789464]",-11.733433509789462,11.733433509789464,images/picture_3.png,2,"[11.733433509789464, 11.733433509789462]",11.733433509789464,11.733433509789462,0,1,1,1.1268820440687422,2.1268820440687417,0.8731179559312578,3,1,1.8768820440687424,0,0,0,0,0,0,0,0,1,,,,,,,0.004325666999648092,97.00804799999969,97.00804799999969,98.01933883400125,98.88591883399931,99.11897966700053,99.11897966700053,99.11897966700053,100.00480550000066,100.00480550000066,100.00480550000066,100.00480550000066,4.011696666999342,101.01965087500139,200001,003,2023-03-10_12h17.03.266,DMS_BEST_eyetracking_DAN_base_12-36_looped_10minWORKING,2022.2.4,None,
5,PRED,12,0.9649798793317153,0,images/picture_1.png,images/picture_1.png,0,"[-11.733433509789466, -11.733433509789462]",-11.733433509789464,-11.733433509789462,images/picture_2.png,1,"[11.733433509789462, -11.733433509789466]",11.733433509789462,-11.733433509789464,images/picture_3.png,2,"[-11.733433509789462, 11.733433509789464]",-11.733433509789462,11.733433509789464,0,1,1,0.9649798793317153,1.9649798793317157,1.0350201206682847,3,1,1.7149798793317153,0,0,0,0,0,0,1,1,5,,,,,,,,,,,,,,,,,,,,,200001,003,2023-03-10_12h17.03.266,DMS_BEST_eyetracking_DAN_base_12-36_looped_10minWORKING,2022.2.4,None,
5,PRED,12,0.9649798793317153,0,images/picture_1.png,images/picture_1.png,0,"[-11.733433509789466, -11.733433509789462]",-11.733433509789464,-11.733433509789462,images/picture_2.png,1,"[11.733433509789462, -11.733433509789466]",11.733433509789462,-11.733433509789464,images/picture_3.png,2,"[-11.733433509789462, 11.733433509789464]",-11.733433509789462,11.733433509789464,0,1,1,0.9649798793317153,1.9649798793317157,1.0350201206682847,3,1,1.7149798793317153,0,0,0,0,0,0,1,1,5,,,,,,,0.0034405420010443777,101.01965087500139,101.01965087500139,102.01932654200209,102.73865662499884,102.98558725000112,102.98558725000112,102.98558725000112,104.01902875000087,104.01902875000087,104.01902875000087,104.01902875000087,3.9969808340028976,105.0384985419987,200001,003,2023-03-10_12h17.03.266,DMS_BEST_eyetracking_DAN_base_12-36_looped_10minWORKING,2022.2.4,None,
7,PRED,12,0.8637979064490078,0,images/picture_1.png,images/picture_1.png,0,"[11.733433509789464, 11.733433509789462]",11.733433509789464,11.733433509789462,images/picture_2.png,1,"[-11.733433509789462, 11.733433509789464]",-11.733433509789462,11.733433509789464,images/picture_3.png,2,"[11.733433509789462, -11.733433509789466]",11.733433509789462,-11.733433509789464,0,1,1,0.8637979064490078,1.863797906449008,1.1362020935509922,3,1,1.6137979064490078,0,0,0,0,0,0,2,2,7,,,,,,,,,,,,,,,,,,,,,200001,003,2023-03-10_12h17.03.266,DMS_BEST_eyetracking_DAN_base_12-36_looped_10minWORKING,2022.2.4,None,
7,PRED,12,0.8637979064490078,0,images/picture_1.png,images/picture_1.png,0,"[11.733433509789464, 11.733433509789462]",11.733433509789464,11.733433509789462,images/picture_2.png,1,"[-11.733433509789462, 11.733433509789464]",-11.733433509789462,11.733433509789464,images/picture_3.png,2,"[11.733433509789462, -11.733433509789466]",11.733433509789462,-11.733433509789464,0,1,1,0.8637979064490078,1.863797906449008,1.1362020935509922,3,1,1.6137979064490078,0,0,0,0,0,0,2,2,7,,,,,,,0.0036637910015997477,105.0384985419987,105.0384985419987,106.05258520899952,106.65263195900116,106.88565412499884,106.88565412499884,106.88565412499884,108.01923504200022,108.01923504200022,108.01923504200022,108.01923504200022,4.029577083001641,109.01932866700008,200001,003,2023-03-10_12h17.03.266,DMS_BEST_eyetracking_DAN_base_12-36_looped_10minWORKING,2022.2.4,None,
6,PRED,12,0.9391885192793415,0,images/picture_1.png,images/picture_1.png,0,"[-11.733433509789466, -11.733433509789462]",-11.733433509789464,-11.733433509789462,images/picture_2.png,1,"[-11.733433509789462, 11.733433509789464]",-11.733433509789462,11.733433509789464,images/picture_3.png,2,"[11.733433509789462, -11.733433509789466]",11.733433509789462,-11.733433509789464,0,1,1,0.9391885192793415,1.9391885192793417,1.0608114807206583,3,1,1.6891885192793417,0,0,0,0,0,0,3,3,6,,,,,,,,,,,,,,,,,,,,,200001,003,2023-03-10_12h17.03.266,DMS_BEST_eyetracking_DAN_base_12-36_looped_10minWORKING,2022.2.4,None,
6,PRED,12,0.9391885192793415,0,images/picture_1.png,images/picture_1.png,0,"[-11.733433509789466, -11.733433509789462]",-11.733433509789464,-11.733433509789462,images/picture_2.png,1,"[-11.733433509789462, 11.733433509789464]",-11.733433509789462,11.733433509789464,images/picture_3.png,2,"[11.733433509789462, -11.733433509789466]",11.733433509789462,-11.733433509789464,0,1,1,0.9391885192793415,1.9391885192793417,1.0608114807206583,3,1,1.6891885192793417,0,0,0,0,0,0,3,3,6,,,,,,,0.0034474999993108213,109.05288987500171,109.05288987500171,110.05257695900218,110.75265879200015,110.98569495899937,110.98569495899937,110.98569495899937,112.05263462500079,112.05263462500079,112.05263462500079,112.05263462500079,3.9974755000002915,113.05322804200114,200001,003,2023-03-10_12h17.03.266,DMS_BEST_eyetracking_DAN_base_12-36_looped_10minWORKING,2022.2.4,None,
3,PRED,12,0.9657705631803548,0,images/picture_1.png,images/picture_1.png,0,"[-11.733433509789462, 11.733433509789464]",-11.733433509789462,11.733433509789464,images/picture_2.png,1,"[-11.733433509789466, -11.733433509789462]",-11.733433509789464,-11.733433509789462,images/picture_3.png,2,"[11.733433509789462, -11.733433509789466]",11.733433509789462,-11.733433509789464,0,1,1,0.9657705631803548,1.9657705631803548,1.0342294368196452,3,1,1.7157705631803548,0,0,0,0,0,0,4,4,3,,,,,,,,,,,,,,,,,,,,,200001,003,2023-03-10_12h17.03.266,DMS_BEST_eyetracking_DAN_base_12-36_looped_10minWORKING,2022.2.4,None,
3,PRED,12,0.9657705631803548,0,images/picture_1.png,images/picture_1.png,0,"[-11.733433509789462, 11.733433509789464]",-11.733433509789462,11.733433509789464,images/picture_2.png,1,"[-11.733433509789466, -11.733433509789462]",-11.733433509789464,-11.733433509789462,images/picture_3.png,2,"[11.733433509789462, -11.733433509789466]",11.733433509789462,-11.733433509789464,0,1,1,0.9657705631803548,1.9657705631803548,1.0342294368196452,3,1,1.7157705631803548,0,0,0,0,0,0,4,4,3,,,,,,,0.003257208001741674,113.05322804200114,113.05322804200114,114.05218458400122,114.77212745900033,115.0191639170007,115.0191639170007,115.0191639170007,116.05268279200027,116.05268279200027,116.05268279200027,116.05268279200027,3.99723300000187,117.0535358340021,200001,003,2023-03-10_12h17.03.266,DMS_BEST_eyetracking_DAN_base_12-36_looped_10minWORKING,2022.2.4,None,
2,PRED,12,1.1626523124273185,0,images/picture_1.png,images/picture_1.png,0,"[11.733433509789462, -11.733433509789466]",11.733433509789462,-11.733433509789464,images/picture_2.png,1,"[11.733433509789464, 11.733433509789462]",11.733433509789464,11.733433509789462,images/picture_3.png,2,"[-11.733433509789466, -11.733433509789462]",-11.733433509789464,-11.733433509789462,0,1,1,1.1626523124273185,2.1626523124273183,0.8373476875726817,3,1,1.9126523124273185,0,0,0,0,0,0,5,5,2,,,,,,,,,,,,,,,,,,,,,200001,003,2023-03-10_12h17.03.266,DMS_BEST_eyetracking_DAN_base_12-36_looped_10minWORKING,2022.2.4,None,
2,PRED,12,1.1626523124273185,0,images/picture_1.png,images/picture_1.png,0,"[11.733433509789462, -11.733433509789466]",11.733433509789462,-11.733433509789464,images/picture_2.png,1,"[11.733433509789464, 11.733433509789462]",11.733433509789464,11.733433509789462,images/picture_3.png,2,"[-11.733433509789466, -11.733433509789462]",-11.733433509789464,-11.733433509789462,0,1,1,1.1626523124273185,2.1626523124273183,0.8373476875726817,3,1,1.9126523124273185,0,0,0,0,0,0,5,5,2,,,,,,,0.0034618329991644714,117.0535358340021,117.0535358340021,118.05266245900202,118.97209374999875,119.21916029199929,119.21916029199929,119.21916029199929,120.07187183399947,120.07187183399947,120.07187183399947,120.05267612500029,3.9965633749998233,121.05273466699873,200001,003,2023-03-10_12h17.03.266,DMS_BEST_eyetracking_DAN_base_12-36_looped_10minWORKING,2022.2.4,None,
8,PRED,12,0.5743282389264767,0,images/picture_1.png,images/picture_1.png,0,"[11.733433509789464, 11.733433509789462]",11.733433509789464,11.733433509789462,images/picture_2.png,1,"[-11.733433509789466, -11.733433509789462]",-11.733433509789464,-11.733433509789462,images/picture_3.png,2,"[-11.733433509789462, 11.733433509789464]",-11.733433509789462,11.733433509789464,0,1,1,0.5743282389264767,1.5743282389264768,1.4256717610735232,3,1,1.3243282389264768,0,0,0,0,0,0,6,6,8,,,,,,,,,,,,,,,,,,,,,200001,003,2023-03-10_12h17.03.266,DMS_BEST_eyetracking_DAN_base_12-36_looped_10minWORKING,2022.2.4,None,
8,PRED,12,0.5743282389264767,0,images/picture_1.png,images/picture_1.png,0,"[11.733433509789464, 11.733433509789462]",11.733433509789464,11.733433509789462,images/picture_2.png,1,"[-11.733433509789466, -11.733433509789462]",-11.733433509789464,-11.733433509789462,images/picture_3.png,2,"[-11.733433509789462, 11.733433509789464]",-11.733433509789462,11.733433509789464,0,1,1,0.5743282389264767,1.5743282389264768,1.4256717610735232,3,1,1.3243282389264768,0,0,0,0,0,0,6,6,8,,,,,,,0.0033283749980910216,121.05273466699873,121.05273466699873,122.05260333399929,122.3862399589998,122.61912904199926,122.61912904199926,122.61912904199926,124.05232262500067,124.05232262500067,124.05232262500067,124.05232262500067,3.997544124998967,125.05368208399886,200001,003,2023-03-10_12h17.03.266,DMS_BEST_eyetracking_DAN_base_12-36_looped_10minWORKING,2022.2.4,None,
0,PRED,12,0.747739433260458,0,images/picture_1.png,images/picture_1.png,0,"[11.733433509789462, -11.733433509789466]",11.733433509789462,-11.733433509789464,images/picture_2.png,1,"[-11.733433509789466, -11.733433509789462]",-11.733433509789464,-11.733433509789462,images/picture_3.png,2,"[-11.733433509789462, 11.733433509789464]",-11.733433509789462,11.733433509789464,0,1,1,0.747739433260458,1.747739433260458,1.252260566739542,3,1,1.497739433260458,0,0,0,0,0,0,7,7,0,,,,,,,,,,,,,,,,,,,,,200001,003,2023-03-10_12h17.03.266,DMS_BEST_eyetracking_DAN_base_12-36_looped_10minWORKING,2022.2.4,None,
0,PRED,12,0.747739433260458,0,images/picture_1.png,images/picture_1.png,0,"[11.733433509789462, -11.733433509789466]",11.733433509789462,-11.733433509789464,images/picture_2.png,1,"[-11.733433509789466, -11.733433509789462]",-11.733433509789464,-11.733433509789462,images/picture_3.png,2,"[-11.733433509789462, 11.733433509789464]",-11.733433509789462,11.733433509789464,0,1,1,0.747739433260458,1.747739433260458,1.252260566739542,3,1,1.497739433260458,0,0,0,0,0,0,7,7,0,,,,,,,0.003526790998876095,125.05368208399886,125.05368208399886,126.05263837500024,126.55281708400071,126.785884334,126.785884334,126.785884334,128.05270162500165,128.05270162500165,128.05270162500165,128.05270162500165,3.9968469999985246,129.05368687499868,200001,003,2023-03-10_12h17.03.266,DMS_BEST_eyetracking_DAN_base_12-36_looped_10minWORKING,2022.2.4,None,
4,PRED,12,0.6981042648475821,0,images/picture_1.png,images/picture_1.png,0,"[11.733433509789464, 11.733433509789462]",11.733433509789464,11.733433509789462,images/picture_2.png,1,"[-11.733433509789466, -11.733433509789462]",-11.733433509789464,-11.733433509789462,images/picture_3.png,2,"[-11.733433509789462, 11.733433509789464]",-11.733433509789462,11.733433509789464,0,1,1,0.6981042648475821,1.698104264847582,1.301895735152418,3,1,1.448104264847582,0,0,0,0,0,0,8,8,4,,,,,,,,,,,,,,,,,,,,,200001,003,2023-03-10_12h17.03.266,DMS_BEST_eyetracking_DAN_base_12-36_looped_10minWORKING,2022.2.4,None,
4,PRED,12,0.6981042648475821,0,images/picture_1.png,images/picture_1.png,0,"[11.733433509789464, 11.733433509789462]",11.733433509789464,11.733433509789462,images/picture_2.png,1,"[-11.733433509789466, -11.733433509789462]",-11.733433509789464,-11.733433509789462,images/picture_3.png,2,"[-11.733433509789462, 11.733433509789464]",-11.733433509789462,11.733433509789464,0,1,1,0.6981042648475821,1.698104264847582,1.301895735152418,3,1,1.448104264847582,0,0,0,0,0,0,8,8,4,,,,,,,0.003505584001686657,129.05368687499868,129.05368687499868,130.05267529200137,130.50540170900058,130.7524006249987,130.7524006249987,130.7524006249987,132.05284716700044,132.05284716700044,132.05284716700044,132.05284716700044,3.9960702920034237,133.07700687499892,200001,003,2023-03-10_12h17.03.266,DMS_BEST_eyetracking_DAN_base_12-36_looped_10minWORKING,2022.2.4,None,
,,,,,,,,,,,,,,,,,,,,,,,,,,,,,,,0,0,0,0,,,,,,,,,133.07700687499892,145.10494791699966,,,,,,,,,,,,,,,200001,003,2023-03-10_12h17.03.266,DMS_BEST_eyetracking_DAN_base_12-36_looped_10minWORKING,2022.2.4,None,
16,UNPRED,12,0.9043500526671308,0,images/picture_1.png,images/picture_1.png,0,"[-11.733433509789466, -11.733433509789462]",-11.733433509789464,-11.733433509789462,images/picture_2.png,1,"[11.733433509789462, -11.733433509789466]",11.733433509789462,-11.733433509789464,images/picture_3.png,2,"[-11.733433509789462, 11.733433509789464]",-11.733433509789462,11.733433509789464,0,1,1,0.9043500526671308,1.9043500526671309,1.0956499473328691,3,1,1.6543500526671309,0,1,0,1,0,0,0,0,7,,,,,,,,,,,,,,,,,,,,,200001,003,2023-03-10_12h17.03.266,DMS_BEST_eyetracking_DAN_base_12-36_looped_10minWORKING,2022.2.4,None,
16,UNPRED,12,0.9043500526671308,0,images/picture_1.png,images/picture_1.png,0,"[-11.733433509789466, -11.733433509789462]",-11.733433509789464,-11.733433509789462,images/picture_2.png,1,"[11.733433509789462, -11.733433509789466]",11.733433509789462,-11.733433509789464,images/picture_3.png,2,"[-11.733433509789462, 11.733433509789464]",-11.733433509789462,11.733433509789464,0,1,1,0.9043500526671308,1.9043500526671309,1.0956499473328691,3,1,1.6543500526671309,0,1,0,1,0,0,0,0,7,,,,,,,0.002646666998771252,145.10494791699966,145.10494791699966,146.1193955000017,146.77214358399942,147.0059718750017,147.0059718750017,147.0059718750017,148.10532804200193,148.10532804200193,148.10532804200193,148.10532804200193,4.0131520420000015,149.13865133400031,200001,003,2023-03-10_12h17.03.266,DMS_BEST_eyetracking_DAN_base_12-36_looped_10minWORKING,2022.2.4,None,
13,UNPRED,12,1.1897052408797457,2,images/picture_3.png,images/picture_1.png,0,"[11.733433509789462, -11.733433509789466]",11.733433509789462,-11.733433509789464,images/picture_2.png,1,"[-11.733433509789466, -11.733433509789462]",-11.733433509789464,-11.733433509789462,images/picture_3.png,2,"[11.733433509789464, 11.733433509789462]",11.733433509789464,11.733433509789462,0,1,1,1.1897052408797457,2.189705240879746,0.8102947591202541,3,1,1.9397052408797457,0,1,0,1,0,0,1,1,4,,,,,,,,,,,,,,,,,,,,,200001,003,2023-03-10_12h17.03.266,DMS_BEST_eyetracking_DAN_base_12-36_looped_10minWORKING,2022.2.4,None,
13,UNPRED,12,1.1897052408797457,2,images/picture_3.png,images/picture_1.png,0,"[11.733433509789462, -11.733433509789466]",11.733433509789462,-11.733433509789464,images/picture_2.png,1,"[-11.733433509789466, -11.733433509789462]",-11.733433509789464,-11.733433509789462,images/picture_3.png,2,"[11.733433509789464, 11.733433509789462]",11.733433509789464,11.733433509789462,0,1,1,1.1897052408797457,2.189705240879746,0.8102947591202541,3,1,1.9397052408797457,0,1,0,1,0,0,1,1,4,,,,,,,0.004192958997009555,149.13865133400031,149.13865133400031,150.1528411670006,151.08618008399935,151.30581516700113,151.30581516700113,151.30581516700113,152.11955358400155,152.11955358400155,152.11955358400155,152.11955358400155,4.0295829589995265,153.11948595899958,200001,003,2023-03-10_12h17.03.266,DMS_BEST_eyetracking_DAN_base_12-36_looped_10minWORKING,2022.2.4,None,
11,UNPRED,12,1.1126416495805127,1,images/picture_2.png,images/picture_1.png,0,"[11.733433509789462, -11.733433509789466]",11.733433509789462,-11.733433509789464,images/picture_2.png,1,"[-11.733433509789462, 11.733433509789464]",-11.733433509789462,11.733433509789464,images/picture_3.png,2,"[-11.733433509789466, -11.733433509789462]",-11.733433509789464,-11.733433509789462,0,1,1,1.1126416495805127,2.1126416495805134,0.8873583504194873,3,1,1.8626416495805131,0,1,0,1,0,0,2,2,2,,,,,,,,,,,,,,,,,,,,,200001,003,2023-03-10_12h17.03.266,DMS_BEST_eyetracking_DAN_base_12-36_looped_10minWORKING,2022.2.4,None,
11,UNPRED,12,1.1126416495805127,1,images/picture_2.png,images/picture_1.png,0,"[11.733433509789462, -11.733433509789466]",11.733433509789462,-11.733433509789464,images/picture_2.png,1,"[-11.733433509789462, 11.733433509789464]",-11.733433509789462,11.733433509789464,images/picture_3.png,2,"[-11.733433509789466, -11.733433509789462]",-11.733433509789464,-11.733433509789462,0,1,1,1.1126416495805127,2.1126416495805134,0.8873583504194873,3,1,1.8626416495805131,0,1,0,1,0,0,2,2,2,,,,,,,0.004863874997681705,153.17213574999914,153.17213574999914,154.18572920899896,155.03862483400007,155.25264762500228,155.25264762500228,155.25264762500228,156.15286658400146,156.15286658400146,156.15286658400146,156.15286658400146,4.030722040999535,157.15285258400036,200001,003,2023-03-10_12h17.03.266,DMS_BEST_eyetracking_DAN_base_12-36_looped_10minWORKING,2022.2.4,None,
17,UNPRED,12,0.5555617015239435,1,images/picture_2.png,images/picture_1.png,0,"[11.733433509789464, 11.733433509789462]",11.733433509789464,11.733433509789462,images/picture_2.png,1,"[11.733433509789462, -11.733433509789466]",11.733433509789462,-11.733433509789464,images/picture_3.png,2,"[-11.733433509789466, -11.733433509789462]",-11.733433509789464,-11.733433509789462,0,1,1,0.5555617015239435,1.5555617015239434,1.4444382984760566,3,1,1.3055617015239434,0,1,0,1,0,0,3,3,8,,,,,,,,,,,,,,,,,,,,,200001,003,2023-03-10_12h17.03.266,DMS_BEST_eyetracking_DAN_base_12-36_looped_10minWORKING,2022.2.4,None,
17,UNPRED,12,0.5555617015239435,1,images/picture_2.png,images/picture_1.png,0,"[11.733433509789464, 11.733433509789462]",11.733433509789464,11.733433509789462,images/picture_2.png,1,"[11.733433509789462, -11.733433509789466]",11.733433509789462,-11.733433509789464,images/picture_3.png,2,"[-11.733433509789466, -11.733433509789462]",-11.733433509789464,-11.733433509789462,0,1,1,0.5555617015239435,1.5555617015239434,1.4444382984760566,3,1,1.3055617015239434,0,1,0,1,0,0,3,3,8,,,,,,,0.004954125000949716,157.20562966700163,157.20562966700163,158.2194117500003,158.5195989999993,158.73913695900046,158.73913695900046,158.73913695900046,160.18615212499935,160.18615212499935,160.18615212499935,160.18615212499935,4.029789874999551,161.18622012500055,200001,003,2023-03-10_12h17.03.266,DMS_BEST_eyetracking_DAN_base_12-36_looped_10minWORKING,2022.2.4,None,
15,UNPRED,12,1.0903051175538012,1,images/picture_2.png,images/picture_1.png,0,"[11.733433509789462, -11.733433509789466]",11.733433509789462,-11.733433509789464,images/picture_2.png,1,"[11.733433509789464, 11.733433509789462]",11.733433509789464,11.733433509789462,images/picture_3.png,2,"[-11.733433509789462, 11.733433509789464]",-11.733433509789462,11.733433509789464,0,1,1,1.0903051175538012,2.0903051175538008,0.9096948824461988,3,1,1.8403051175538008,0,1,0,1,0,0,4,4,6,,,,,,,,,,,,,,,,,,,,,200001,003,2023-03-10_12h17.03.266,DMS_BEST_eyetracking_DAN_base_12-36_looped_10minWORKING,2022.2.4,None,
15,UNPRED,12,1.0903051175538012,1,images/picture_2.png,images/picture_1.png,0,"[11.733433509789462, -11.733433509789466]",11.733433509789462,-11.733433509789464,images/picture_2.png,1,"[11.733433509789464, 11.733433509789462]",11.733433509789464,11.733433509789462,images/picture_3.png,2,"[-11.733433509789462, 11.733433509789464]",-11.733433509789462,11.733433509789464,0,1,1,1.0903051175538012,2.0903051175538008,0.9096948824461988,3,1,1.8403051175538008,0,1,0,1,0,0,4,4,6,,,,,,,0.0048484580001968425,161.2388248749994,161.2388248749994,162.25286916700134,163.0862175000002,163.30541295900184,163.30541295900184,163.30541295900184,164.21905600000173,164.21905600000173,164.21905600000173,164.21905600000173,4.02998325000226,165.2192938340013,200001,003,2023-03-10_12h17.03.266,DMS_BEST_eyetracking_DAN_base_12-36_looped_10minWORKING,2022.2.4,None,
9,UNPRED,12,0.5183656595915349,0,images/picture_1.png,images/picture_1.png,0,"[-11.733433509789466, -11.733433509789462]",-11.733433509789464,-11.733433509789462,images/picture_2.png,1,"[11.733433509789462, -11.733433509789466]",11.733433509789462,-11.733433509789464,images/picture_3.png,2,"[-11.733433509789462, 11.733433509789464]",-11.733433509789462,11.733433509789464,0,1,1,0.5183656595915349,1.5183656595915351,1.4816343404084649,3,1,1.268365659591535,0,1,0,1,0,0,5,5,0,,,,,,,,,,,,,,,,,,,,,200001,003,2023-03-10_12h17.03.266,DMS_BEST_eyetracking_DAN_base_12-36_looped_10minWORKING,2022.2.4,None,
9,UNPRED,12,0.5183656595915349,0,images/picture_1.png,images/picture_1.png,0,"[-11.733433509789466, -11.733433509789462]",-11.733433509789464,-11.733433509789462,images/picture_2.png,1,"[11.733433509789462, -11.733433509789466]",11.733433509789462,-11.733433509789464,images/picture_3.png,2,"[-11.733433509789462, 11.733433509789464]",-11.733433509789462,11.733433509789464,0,1,1,0.5183656595915349,1.5183656595915351,1.4816343404084649,3,1,1.268365659591535,0,1,0,1,0,0,5,5,0,,,,,,,0.004500667000684189,165.27131829200152,165.27131829200152,166.28625379200093,166.5528777090003,166.77219945899924,166.77219945899924,166.77219945899924,168.25280337500226,168.25280337500226,168.25280337500226,168.25280337500226,4.030202750000171,169.25286162500197,200001,003,2023-03-10_12h17.03.266,DMS_BEST_eyetracking_DAN_base_12-36_looped_10minWORKING,2022.2.4,None,
10,UNPRED,12,1.1562943404415258,1,images/picture_2.png,images/picture_1.png,0,"[11.733433509789462, -11.733433509789466]",11.733433509789462,-11.733433509789464,images/picture_2.png,1,"[11.733433509789464, 11.733433509789462]",11.733433509789464,11.733433509789462,images/picture_3.png,2,"[-11.733433509789466, -11.733433509789462]",-11.733433509789464,-11.733433509789462,0,1,1,1.1562943404415258,2.156294340441526,0.8437056595584741,3,1,1.9062943404415258,0,1,0,1,0,0,6,6,1,,,,,,,,,,,,,,,,,,,,,200001,003,2023-03-10_12h17.03.266,DMS_BEST_eyetracking_DAN_base_12-36_looped_10minWORKING,2022.2.4,None,
10,UNPRED,12,1.1562943404415258,1,images/picture_2.png,images/picture_1.png,0,"[11.733433509789462, -11.733433509789466]",11.733433509789462,-11.733433509789464,images/picture_2.png,1,"[11.733433509789464, 11.733433509789462]",11.733433509789464,11.733433509789462,images/picture_3.png,2,"[-11.733433509789466, -11.733433509789462]",-11.733433509789464,-11.733433509789462,0,1,1,1.1562943404415258,2.156294340441526,0.8437056595584741,3,1,1.9062943404415258,0,1,0,1,0,0,6,6,1,,,,,,,0.005914999997912673,169.305782792002,169.305782792002,170.31956820900086,171.21959916700143,171.4388528749987,171.4388528749987,171.4388528749987,172.28608120900026,172.28608120900026,172.28608120900026,172.28608120900026,4.030243417000747,173.28631700000187,200001,003,2023-03-10_12h17.03.266,DMS_BEST_eyetracking_DAN_base_12-36_looped_10minWORKING,2022.2.4,None,
12,UNPRED,12,0.5805313406676814,2,images/picture_3.png,images/picture_1.png,0,"[11.733433509789464, 11.733433509789462]",11.733433509789464,11.733433509789462,images/picture_2.png,1,"[-11.733433509789462, 11.733433509789464]",-11.733433509789462,11.733433509789464,images/picture_3.png,2,"[-11.733433509789466, -11.733433509789462]",-11.733433509789464,-11.733433509789462,0,1,1,0.5805313406676814,1.5805313406676813,1.4194686593323187,3,1,1.3305313406676813,0,1,0,1,0,0,7,7,3,,,,,,,,,,,,,,,,,,,,,200001,003,2023-03-10_12h17.03.266,DMS_BEST_eyetracking_DAN_base_12-36_looped_10minWORKING,2022.2.4,None,
12,UNPRED,12,0.5805313406676814,2,images/picture_3.png,images/picture_1.png,0,"[11.733433509789464, 11.733433509789462]",11.733433509789464,11.733433509789462,images/picture_2.png,1,"[-11.733433509789462, 11.733433509789464]",-11.733433509789462,11.733433509789464,images/picture_3.png,2,"[-11.733433509789466, -11.733433509789462]",-11.733433509789464,-11.733433509789462,0,1,1,0.5805313406676814,1.5805313406676813,1.4194686593323187,3,1,1.3305313406676813,0,1,0,1,0,0,7,7,3,,,,,,,0.0033795000017562415,173.3389778339988,173.3389778339988,174.3525135839991,174.67141766699933,174.90515241699904,174.90515241699904,174.90515241699904,176.33928858400031,176.33928858400031,176.33928858400031,176.31955195900082,4.029335250001168,177.31960933400114,200001,003,2023-03-10_12h17.03.266,DMS_BEST_eyetracking_DAN_base_12-36_looped_10minWORKING,2022.2.4,None,
14,UNPRED,12,0.5673521729708494,2,images/picture_3.png,images/picture_1.png,0,"[11.733433509789464, 11.733433509789462]",11.733433509789464,11.733433509789462,images/picture_2.png,1,"[11.733433509789462, -11.733433509789466]",11.733433509789462,-11.733433509789464,images/picture_3.png,2,"[-11.733433509789466, -11.733433509789462]",-11.733433509789464,-11.733433509789462,0,1,1,0.5673521729708494,1.5673521729708493,1.4326478270291507,3,1,1.3173521729708493,0,1,0,1,0,0,8,8,5,,,,,,,,,,,,,,,,,,,,,200001,003,2023-03-10_12h17.03.266,DMS_BEST_eyetracking_DAN_base_12-36_looped_10minWORKING,2022.2.4,None,
14,UNPRED,12,0.5673521729708494,2,images/picture_3.png,images/picture_1.png,0,"[11.733433509789464, 11.733433509789462]",11.733433509789464,11.733433509789462,images/picture_2.png,1,"[11.733433509789462, -11.733433509789466]",11.733433509789462,-11.733433509789464,images/picture_3.png,2,"[-11.733433509789466, -11.733433509789462]",-11.733433509789464,-11.733433509789462,0,1,1,0.5673521729708494,1.5673521729708493,1.4326478270291507,3,1,1.3173521729708493,0,1,0,1,0,0,8,8,5,,,,,,,0.0031573339983879123,177.3537928750011,177.3537928750011,178.35286650000126,178.6863492500015,178.9193971249988,178.9193971249988,178.9193971249988,180.3528327089989,180.3528327089989,180.3528327089989,180.3528327089989,3.996826124999643,181.39636012499977,200001,003,2023-03-10_12h17.03.266,DMS_BEST_eyetracking_DAN_base_12-36_looped_10minWORKING,2022.2.4,None,
,,,,,,,,,,,,,,,,,,,,,,,,,,,,,,,1,0,1,0,,,,,,,,,181.39636012499977,193.4217199170016,,,,,,,,,,,,,,,200001,003,2023-03-10_12h17.03.266,DMS_BEST_eyetracking_DAN_base_12-36_looped_10minWORKING,2022.2.4,None,
24,PRED,12,0.7547192444058348,0,images/picture_1.png,images/picture_1.png,0,"[11.733433509789464, 11.733433509789462]",11.733433509789464,11.733433509789462,images/picture_2.png,1,"[-11.733433509789462, 11.733433509789464]",-11.733433509789462,11.733433509789464,images/picture_3.png,2,"[-11.733433509789466, -11.733433509789462]",-11.733433509789464,-11.733433509789462,0,1,1,0.7547192444058348,1.7547192444058348,1.2452807555941652,3,1,1.5047192444058348,0,2,0,2,0,0,0,0,6,,,,,,,,,,,,,,,,,,,,,200001,003,2023-03-10_12h17.03.266,DMS_BEST_eyetracking_DAN_base_12-36_looped_10minWORKING,2022.2.4,None,
24,PRED,12,0.7547192444058348,0,images/picture_1.png,images/picture_1.png,0,"[11.733433509789464, 11.733433509789462]",11.733433509789464,11.733433509789462,images/picture_2.png,1,"[-11.733433509789462, 11.733433509789464]",-11.733433509789462,11.733433509789464,images/picture_3.png,2,"[-11.733433509789466, -11.733433509789462]",-11.733433509789464,-11.733433509789462,0,1,1,0.7547192444058348,1.7547192444058348,1.2452807555941652,3,1,1.5047192444058348,0,2,0,2,0,0,0,0,6,,,,,,,0.003909833001671359,193.4217199170016,193.4217199170016,194.41955037500156,194.9382422919989,195.17132862500148,195.17132862500148,195.17132862500148,196.41963466699963,196.41963466699963,196.41963466699963,196.41963466699963,3.9959207920001063,197.42021291700075,200001,003,2023-03-10_12h17.03.266,DMS_BEST_eyetracking_DAN_base_12-36_looped_10minWORKING,2022.2.4,None,
25,PRED,12,0.7982014179926729,0,images/picture_1.png,images/picture_1.png,0,"[-11.733433509789466, -11.733433509789462]",-11.733433509789464,-11.733433509789462,images/picture_2.png,1,"[-11.733433509789462, 11.733433509789464]",-11.733433509789462,11.733433509789464,images/picture_3.png,2,"[11.733433509789462, -11.733433509789466]",11.733433509789462,-11.733433509789464,0,1,1,0.7982014179926729,1.7982014179926729,1.2017985820073271,3,1,1.5482014179926729,0,2,0,2,0,0,1,1,7,,,,,,,,,,,,,,,,,,,,,200001,003,2023-03-10_12h17.03.266,DMS_BEST_eyetracking_DAN_base_12-36_looped_10minWORKING,2022.2.4,None,
25,PRED,12,0.7982014179926729,0,images/picture_1.png,images/picture_1.png,0,"[-11.733433509789466, -11.733433509789462]",-11.733433509789464,-11.733433509789462,images/picture_2.png,1,"[-11.733433509789462, 11.733433509789464]",-11.733433509789462,11.733433509789464,images/picture_3.png,2,"[11.733433509789462, -11.733433509789466]",11.733433509789462,-11.733433509789464,0,1,1,0.7982014179926729,1.7982014179926729,1.2017985820073271,3,1,1.5482014179926729,0,2,0,2,0,0,1,1,7,,,,,,,0.0035334580024937168,197.42021291700075,197.42021291700075,198.41960749999998,198.97264429200004,199.21935945899895,199.21935945899895,199.21935945899895,200.41965966700081,200.41965966700081,200.41965966700081,200.41965966700081,3.9969574580027256,201.42082208400097,200001,003,2023-03-10_12h17.03.266,DMS_BEST_eyetracking_DAN_base_12-36_looped_10minWORKING,2022.2.4,None,
23,PRED,12,1.1616440134001724,0,images/picture_1.png,images/picture_1.png,0,"[-11.733433509789466, -11.733433509789462]",-11.733433509789464,-11.733433509789462,images/picture_2.png,1,"[-11.733433509789462, 11.733433509789464]",-11.733433509789462,11.733433509789464,images/picture_3.png,2,"[11.733433509789462, -11.733433509789466]",11.733433509789462,-11.733433509789464,0,1,1,1.1616440134001724,2.1616440134001724,0.8383559865998276,3,1,1.9116440134001724,0,2,0,2,0,0,2,2,5,,,,,,,,,,,,,,,,,,,,,200001,003,2023-03-10_12h17.03.266,DMS_BEST_eyetracking_DAN_base_12-36_looped_10minWORKING,2022.2.4,None,
23,PRED,12,1.1616440134001724,0,images/picture_1.png,images/picture_1.png,0,"[-11.733433509789466, -11.733433509789462]",-11.733433509789464,-11.733433509789462,images/picture_2.png,1,"[-11.733433509789462, 11.733433509789464]",-11.733433509789462,11.733433509789464,images/picture_3.png,2,"[11.733433509789462, -11.733433509789466]",11.733433509789462,-11.733433509789464,0,1,1,1.1616440134001724,2.1616440134001724,0.8383559865998276,3,1,1.9116440134001724,0,2,0,2,0,0,2,2,5,,,,,,,0.003566249997675186,201.42082208400097,201.42082208400097,202.41963212500195,203.3391327499994,203.58615724999981,203.58615724999981,203.58615724999981,204.43904691699936,204.43904691699936,204.43904691699936,204.41964316699887,3.9961001249976107,205.41960920899874,200001,003,2023-03-10_12h17.03.266,DMS_BEST_eyetracking_DAN_base_12-36_looped_10minWORKING,2022.2.4,None,
18,PRED,12,0.7909648752540234,0,images/picture_1.png,images/picture_1.png,0,"[11.733433509789462, -11.733433509789466]",11.733433509789462,-11.733433509789464,images/picture_2.png,1,"[11.733433509789464, 11.733433509789462]",11.733433509789464,11.733433509789462,images/picture_3.png,2,"[-11.733433509789466, -11.733433509789462]",-11.733433509789464,-11.733433509789462,0,1,1,0.7909648752540234,1.7909648752540233,1.2090351247459767,3,1,1.5409648752540233,0,2,0,2,0,0,3,3,0,,,,,,,,,,,,,,,,,,,,,200001,003,2023-03-10_12h17.03.266,DMS_BEST_eyetracking_DAN_base_12-36_looped_10minWORKING,2022.2.4,None,
18,PRED,12,0.7909648752540234,0,images/picture_1.png,images/picture_1.png,0,"[11.733433509789462, -11.733433509789466]",11.733433509789462,-11.733433509789464,images/picture_2.png,1,"[11.733433509789464, 11.733433509789462]",11.733433509789464,11.733433509789462,images/picture_3.png,2,"[-11.733433509789466, -11.733433509789462]",-11.733433509789464,-11.733433509789462,0,1,1,0.7909648752540234,1.7909648752540233,1.2090351247459767,3,1,1.5409648752540233,0,2,0,2,0,0,3,3,0,,,,,,,0.0013661249977303669,205.41960920899874,205.41960920899874,206.41962579200117,206.97241170900088,207.20582208400083,207.20582208400083,207.20582208400083,208.41960633399867,208.41960633399867,208.41960633399867,208.41960633399867,3.997729957998672,209.42029808400184,200001,003,2023-03-10_12h17.03.266,DMS_BEST_eyetracking_DAN_base_12-36_looped_10minWORKING,2022.2.4,None,
22,PRED,12,0.6680564910035804,0,images/picture_1.png,images/picture_1.png,0,"[11.733433509789464, 11.733433509789462]",11.733433509789464,11.733433509789462,images/picture_2.png,1,"[-11.733433509789466, -11.733433509789462]",-11.733433509789464,-11.733433509789462,images/picture_3.png,2,"[-11.733433509789462, 11.733433509789464]",-11.733433509789462,11.733433509789464,0,1,1,0.6680564910035804,1.6680564910035804,1.3319435089964196,3,1,1.4180564910035804,0,2,0,2,0,0,4,4,4,,,,,,,,,,,,,,,,,,,,,200001,003,2023-03-10_12h17.03.266,DMS_BEST_eyetracking_DAN_base_12-36_looped_10minWORKING,2022.2.4,None,
22,PRED,12,0.6680564910035804,0,images/picture_1.png,images/picture_1.png,0,"[11.733433509789464, 11.733433509789462]",11.733433509789464,11.733433509789462,images/picture_2.png,1,"[-11.733433509789466, -11.733433509789462]",-11.733433509789464,-11.733433509789462,images/picture_3.png,2,"[-11.733433509789462, 11.733433509789464]",-11.733433509789462,11.733433509789464,0,1,1,0.6680564910035804,1.6680564910035804,1.3319435089964196,3,1,1.4180564910035804,0,2,0,2,0,0,4,4,4,,,,,,,0.0034543329966254532,209.42029808400184,209.42029808400184,210.41963662499984,210.85314262500106,211.08644845900199,211.08644845900199,211.08644845900199,212.41971654200097,212.41971654200097,212.41971654200097,212.41971654200097,3.996713082997303,213.420689958999,200001,003,2023-03-10_12h17.03.266,DMS_BEST_eyetracking_DAN_base_12-36_looped_10minWORKING,2022.2.4,None,
21,PRED,12,0.9631767970496564,0,images/picture_1.png,images/picture_1.png,0,"[11.733433509789462, -11.733433509789466]",11.733433509789462,-11.733433509789464,images/picture_2.png,1,"[-11.733433509789462, 11.733433509789464]",-11.733433509789462,11.733433509789464,images/picture_3.png,2,"[-11.733433509789466, -11.733433509789462]",-11.733433509789464,-11.733433509789462,0,1,1,0.9631767970496564,1.9631767970496563,1.0368232029503437,3,1,1.7131767970496563,0,2,0,2,0,0,5,5,3,,,,,,,,,,,,,,,,,,,,,200001,003,2023-03-10_12h17.03.266,DMS_BEST_eyetracking_DAN_base_12-36_looped_10minWORKING,2022.2.4,None,
21,PRED,12,0.9631767970496564,0,images/picture_1.png,images/picture_1.png,0,"[11.733433509789462, -11.733433509789466]",11.733433509789462,-11.733433509789464,images/picture_2.png,1,"[-11.733433509789462, 11.733433509789464]",-11.733433509789462,11.733433509789464,images/picture_3.png,2,"[-11.733433509789466, -11.733433509789462]",-11.733433509789464,-11.733433509789462,0,1,1,0.9631767970496564,1.9631767970496563,1.0368232029503437,3,1,1.7131767970496563,0,2,0,2,0,0,5,5,3,,,,,,,0.0034672500005399343,213.420689958999,213.420689958999,214.41966037499878,215.1387370420016,215.3859298339994,215.3859298339994,215.3859298339994,216.41984358400077,216.41984358400077,216.41984358400077,216.41984358400077,3.9969918749993667,217.43922100000054,200001,003,2023-03-10_12h17.03.266,DMS_BEST_eyetracking_DAN_base_12-36_looped_10minWORKING,2022.2.4,None,
20,PRED,12,0.709151930250239,0,images/picture_1.png,images/picture_1.png,0,"[11.733433509789462, -11.733433509789466]",11.733433509789462,-11.733433509789464,images/picture_2.png,1,"[-11.733433509789462, 11.733433509789464]",-11.733433509789462,11.733433509789464,images/picture_3.png,2,"[-11.733433509789466, -11.733433509789462]",-11.733433509789464,-11.733433509789462,0,1,1,0.709151930250239,1.7091519302502391,1.2908480697497609,3,1,1.4591519302502391,0,2,0,2,0,0,6,6,2,,,,,,,,,,,,,,,,,,,,,200001,003,2023-03-10_12h17.03.266,DMS_BEST_eyetracking_DAN_base_12-36_looped_10minWORKING,2022.2.4,None,
20,PRED,12,0.709151930250239,0,images/picture_1.png,images/picture_1.png,0,"[11.733433509789462, -11.733433509789466]",11.733433509789462,-11.733433509789464,images/picture_2.png,1,"[-11.733433509789462, 11.733433509789464]",-11.733433509789462,11.733433509789464,images/picture_3.png,2,"[-11.733433509789466, -11.733433509789462]",-11.733433509789464,-11.733433509789462,0,1,1,0.709151930250239,1.7091519302502391,1.2908480697497609,3,1,1.4591519302502391,0,2,0,2,0,0,6,6,2,,,,,,,0.003528458000801038,217.43922100000054,217.43922100000054,218.45312883400038,218.90620070899968,219.11934612500045,219.11934612500045,219.11934612500045,220.41972462500053,220.41972462500053,220.41972462500053,220.41972462500053,4.029754957999103,221.41983208400052,200001,003,2023-03-10_12h17.03.266,DMS_BEST_eyetracking_DAN_base_12-36_looped_10minWORKING,2022.2.4,None,
19,PRED,12,0.8475592701031845,0,images/picture_1.png,images/picture_1.png,0,"[-11.733433509789462, 11.733433509789464]",-11.733433509789462,11.733433509789464,images/picture_2.png,1,"[-11.733433509789466, -11.733433509789462]",-11.733433509789464,-11.733433509789462,images/picture_3.png,2,"[11.733433509789462, -11.733433509789466]",11.733433509789462,-11.733433509789464,0,1,1,0.8475592701031845,1.8475592701031849,1.1524407298968151,3,1,1.5975592701031849,0,2,0,2,0,0,7,7,1,,,,,,,,,,,,,,,,,,,,,200001,003,2023-03-10_12h17.03.266,DMS_BEST_eyetracking_DAN_base_12-36_looped_10minWORKING,2022.2.4,None,
19,PRED,12,0.8475592701031845,0,images/picture_1.png,images/picture_1.png,0,"[-11.733433509789462, 11.733433509789464]",-11.733433509789462,11.733433509789464,images/picture_2.png,1,"[-11.733433509789466, -11.733433509789462]",-11.733433509789464,-11.733433509789462,images/picture_3.png,2,"[11.733433509789462, -11.733433509789466]",11.733433509789462,-11.733433509789464,0,1,1,0.8475592701031845,1.8475592701031849,1.1524407298968151,3,1,1.5975592701031849,0,2,0,2,0,0,7,7,1,,,,,,,0.003466958998615155,221.4542939999992,221.4542939999992,222.45323666699915,223.05311120899933,223.2861531669987,223.2861531669987,223.2861531669987,224.45328712500122,224.45328712500122,224.45328712500122,224.45328712500122,3.996168083998782,225.4525136250013,200001,003,2023-03-10_12h17.03.266,DMS_BEST_eyetracking_DAN_base_12-36_looped_10minWORKING,2022.2.4,None,
26,PRED,12,1.1379005414061854,0,images/picture_1.png,images/picture_1.png,0,"[-11.733433509789462, 11.733433509789464]",-11.733433509789462,11.733433509789464,images/picture_2.png,1,"[11.733433509789462, -11.733433509789466]",11.733433509789462,-11.733433509789464,images/picture_3.png,2,"[11.733433509789464, 11.733433509789462]",11.733433509789464,11.733433509789462,0,1,1,1.1379005414061854,2.1379005414061854,0.8620994585938146,3,1,1.8879005414061851,0,2,0,2,0,0,8,8,8,,,,,,,,,,,,,,,,,,,,,200001,003,2023-03-10_12h17.03.266,DMS_BEST_eyetracking_DAN_base_12-36_looped_10minWORKING,2022.2.4,None,
26,PRED,12,1.1379005414061854,0,images/picture_1.png,images/picture_1.png,0,"[-11.733433509789462, 11.733433509789464]",-11.733433509789462,11.733433509789464,images/picture_2.png,1,"[11.733433509789462, -11.733433509789466]",11.733433509789462,-11.733433509789464,images/picture_3.png,2,"[11.733433509789464, 11.733433509789462]",11.733433509789464,11.733433509789462,0,1,1,1.1379005414061854,2.1379005414061854,0.8620994585938146,3,1,1.8879005414061851,0,2,0,2,0,0,8,8,8,,,,,,,0.0013210409997554962,225.4525136250013,225.4525136250013,226.45311199999924,227.35307504199955,227.58610891699936,227.58610891699936,227.58610891699936,228.4531492089991,228.4531492089991,228.4531492089991,228.4531492089991,3.997318040997925,229.50633508399915,200001,003,2023-03-10_12h17.03.266,DMS_BEST_eyetracking_DAN_base_12-36_looped_10minWORKING,2022.2.4,None,
,,,,,,,,,,,,,,,,,,,,,,,,,,,,,,,2,0,2,0,,,,,,,,,229.50633508399915,241.53909770899918,,,,,,,,,,,,,,,200001,003,2023-03-10_12h17.03.266,DMS_BEST_eyetracking_DAN_base_12-36_looped_10minWORKING,2022.2.4,None,
32,UNPRED,12,0.9064027421795268,0,images/picture_1.png,images/picture_1.png,0,"[11.733433509789464, 11.733433509789462]",11.733433509789464,11.733433509789462,images/picture_2.png,1,"[-11.733433509789462, 11.733433509789464]",-11.733433509789462,11.733433509789464,images/picture_3.png,2,"[11.733433509789462, -11.733433509789466]",11.733433509789462,-11.733433509789464,0,1,1,0.9064027421795268,1.9064027421795269,1.0935972578204731,3,1,1.6564027421795269,0,3,0,3,0,0,0,0,5,,,,,,,,,,,,,,,,,,,,,200001,003,2023-03-10_12h17.03.266,DMS_BEST_eyetracking_DAN_base_12-36_looped_10minWORKING,2022.2.4,None,
32,UNPRED,12,0.9064027421795268,0,images/picture_1.png,images/picture_1.png,0,"[11.733433509789464, 11.733433509789462]",11.733433509789464,11.733433509789462,images/picture_2.png,1,"[-11.733433509789462, 11.733433509789464]",-11.733433509789462,11.733433509789464,images/picture_3.png,2,"[11.733433509789462, -11.733433509789466]",11.733433509789462,-11.733433509789464,0,1,1,0.9064027421795268,1.9064027421795269,1.0935972578204731,3,1,1.6564027421795269,0,3,0,3,0,0,0,0,5,,,,,,,0.0028069159998267423,241.53909770899918,241.53909770899918,242.553113209,243.20586012499916,243.43913141699886,243.43913141699886,243.43913141699886,244.53936737500044,244.53936737500044,244.53936737500044,244.53936737500044,4.010966000001645,245.55261395900015,200001,003,2023-03-10_12h17.03.266,DMS_BEST_eyetracking_DAN_base_12-36_looped_10minWORKING,2022.2.4,None,
29,UNPRED,12,0.6639876216454652,1,images/picture_2.png,images/picture_1.png,0,"[-11.733433509789462, 11.733433509789464]",-11.733433509789462,11.733433509789464,images/picture_2.png,1,"[11.733433509789464, 11.733433509789462]",11.733433509789464,11.733433509789462,images/picture_3.png,2,"[-11.733433509789466, -11.733433509789462]",-11.733433509789464,-11.733433509789462,0,1,1,0.6639876216454652,1.6639876216454652,1.3360123783545348,3,1,1.4139876216454652,0,3,0,3,0,0,1,1,2,,,,,,,,,,,,,,,,,,,,,200001,003,2023-03-10_12h17.03.266,DMS_BEST_eyetracking_DAN_base_12-36_looped_10minWORKING,2022.2.4,None,
29,UNPRED,12,0.6639876216454652,1,images/picture_2.png,images/picture_1.png,0,"[-11.733433509789462, 11.733433509789464]",-11.733433509789462,11.733433509789464,images/picture_2.png,1,"[11.733433509789464, 11.733433509789462]",11.733433509789464,11.733433509789462,images/picture_3.png,2,"[-11.733433509789466, -11.733433509789462]",-11.733433509789464,-11.733433509789462,0,1,1,0.6639876216454652,1.6639876216454652,1.3360123783545348,3,1,1.4139876216454652,0,3,0,3,0,0,1,1,2,,,,,,,0.0024363749980693683,245.55261395900015,245.55261395900015,246.5527573750005,246.97235925000132,247.20579637500123,247.20579637500123,247.20579637500123,248.55311150000125,248.55311150000125,248.55311150000125,248.55311150000125,3.999175124998146,249.57250783400013,200001,003,2023-03-10_12h17.03.266,DMS_BEST_eyetracking_DAN_base_12-36_looped_10minWORKING,2022.2.4,None,
31,UNPRED,12,0.9076578711120142,0,images/picture_1.png,images/picture_1.png,0,"[-11.733433509789466, -11.733433509789462]",-11.733433509789464,-11.733433509789462,images/picture_2.png,1,"[11.733433509789464, 11.733433509789462]",11.733433509789464,11.733433509789462,images/picture_3.png,2,"[-11.733433509789462, 11.733433509789464]",-11.733433509789462,11.733433509789464,0,1,1,0.9076578711120142,1.9076578711120145,1.0923421288879858,3,1,1.6576578711120142,0,3,0,3,0,0,2,2,4,,,,,,,,,,,,,,,,,,,,,200001,003,2023-03-10_12h17.03.266,DMS_BEST_eyetracking_DAN_base_12-36_looped_10minWORKING,2022.2.4,None,
31,UNPRED,12,0.9076578711120142,0,images/picture_1.png,images/picture_1.png,0,"[-11.733433509789466, -11.733433509789462]",-11.733433509789464,-11.733433509789462,images/picture_2.png,1,"[11.733433509789464, 11.733433509789462]",11.733433509789464,11.733433509789462,images/picture_3.png,2,"[-11.733433509789462, 11.733433509789464]",-11.733433509789462,11.733433509789464,0,1,1,0.9076578711120142,1.9076578711120145,1.0923421288879858,3,1,1.6576578711120142,0,3,0,3,0,0,2,2,4,,,,,,,0.00474483400103054,249.57250783400013,249.57250783400013,250.5865870839989,251.23902200000157,251.45286633399883,251.45286633399883,251.45286633399883,252.55319079200126,252.55319079200126,252.55319079200126,252.55319079200126,4.029388459002803,253.5531728749993,200001,003,2023-03-10_12h17.03.266,DMS_BEST_eyetracking_DAN_base_12-36_looped_10minWORKING,2022.2.4,None,
30,UNPRED,12,0.8433944030311245,0,images/picture_1.png,images/picture_1.png,0,"[11.733433509789462, -11.733433509789466]",11.733433509789462,-11.733433509789464,images/picture_2.png,1,"[11.733433509789464, 11.733433509789462]",11.733433509789464,11.733433509789462,images/picture_3.png,2,"[-11.733433509789466, -11.733433509789462]",-11.733433509789464,-11.733433509789462,0,1,1,0.8433944030311245,1.8433944030311245,1.1566055969688755,3,1,1.5933944030311245,0,3,0,3,0,0,3,3,3,,,,,,,,,,,,,,,,,,,,,200001,003,2023-03-10_12h17.03.266,DMS_BEST_eyetracking_DAN_base_12-36_looped_10minWORKING,2022.2.4,None,
30,UNPRED,12,0.8433944030311245,0,images/picture_1.png,images/picture_1.png,0,"[11.733433509789462, -11.733433509789466]",11.733433509789462,-11.733433509789464,images/picture_2.png,1,"[11.733433509789464, 11.733433509789462]",11.733433509789464,11.733433509789462,images/picture_3.png,2,"[-11.733433509789466, -11.733433509789462]",-11.733433509789464,-11.733433509789462,0,1,1,0.8433944030311245,1.8433944030311245,1.1566055969688755,3,1,1.5933944030311245,0,3,0,3,0,0,3,3,3,,,,,,,0.0034082080019288696,253.58689674999914,253.58689674999914,254.58660166700065,255.18653129200175,255.41962691699882,255.41962691699882,255.41962691699882,256.58655945899955,256.58655945899955,256.58655945899955,256.58655945899955,3.9975092920030875,257.60600129199884,200001,003,2023-03-10_12h17.03.266,DMS_BEST_eyetracking_DAN_base_12-36_looped_10minWORKING,2022.2.4,None,
28,UNPRED,12,0.5837779936260122,2,images/picture_3.png,images/picture_1.png,0,"[11.733433509789464, 11.733433509789462]",11.733433509789464,11.733433509789462,images/picture_2.png,1,"[11.733433509789462, -11.733433509789466]",11.733433509789462,-11.733433509789464,images/picture_3.png,2,"[-11.733433509789466, -11.733433509789462]",-11.733433509789464,-11.733433509789462,0,1,1,0.5837779936260122,1.583777993626012,1.416222006373988,3,1,1.333777993626012,0,3,0,3,0,0,4,4,1,,,,,,,,,,,,,,,,,,,,,200001,003,2023-03-10_12h17.03.266,DMS_BEST_eyetracking_DAN_base_12-36_looped_10minWORKING,2022.2.4,None,
28,UNPRED,12,0.5837779936260122,2,images/picture_3.png,images/picture_1.png,0,"[11.733433509789464, 11.733433509789462]",11.733433509789464,11.733433509789462,images/picture_2.png,1,"[11.733433509789462, -11.733433509789466]",11.733433509789462,-11.733433509789464,images/picture_3.png,2,"[-11.733433509789466, -11.733433509789462]",-11.733433509789464,-11.733433509789462,0,1,1,0.5837779936260122,1.583777993626012,1.416222006373988,3,1,1.333777993626012,0,3,0,3,0,0,4,4,1,,,,,,,0.0045007090011495166,257.60600129199884,257.60600129199884,258.6199995419993,258.9528750419995,259.17266091700003,259.17266091700003,259.17266091700003,260.5866007090008,260.5866007090008,260.5866007090008,260.5866007090008,4.030148417001328,261.586620459002,200001,003,2023-03-10_12h17.03.266,DMS_BEST_eyetracking_DAN_base_12-36_looped_10minWORKING,2022.2.4,None,
34,UNPRED,12,0.8099537566986299,0,images/picture_1.png,images/picture_1.png,0,"[-11.733433509789466, -11.733433509789462]",-11.733433509789464,-11.733433509789462,images/picture_2.png,1,"[11.733433509789464, 11.733433509789462]",11.733433509789464,11.733433509789462,images/picture_3.png,2,"[11.733433509789462, -11.733433509789466]",11.733433509789462,-11.733433509789464,0,1,1,0.8099537566986299,1.80995375669863,1.19004624330137,3,1,1.55995375669863,0,3,0,3,0,0,5,5,7,,,,,,,,,,,,,,,,,,,,,200001,003,2023-03-10_12h17.03.266,DMS_BEST_eyetracking_DAN_base_12-36_looped_10minWORKING,2022.2.4,None,
34,UNPRED,12,0.8099537566986299,0,images/picture_1.png,images/picture_1.png,0,"[-11.733433509789466, -11.733433509789462]",-11.733433509789464,-11.733433509789462,images/picture_2.png,1,"[11.733433509789464, 11.733433509789462]",11.733433509789464,11.733433509789462,images/picture_3.png,2,"[11.733433509789462, -11.733433509789466]",11.733433509789462,-11.733433509789464,0,1,1,0.8099537566986299,1.80995375669863,1.19004624330137,3,1,1.55995375669863,0,3,0,3,0,0,5,5,7,,,,,,,0.0045942079996166285,261.6395012920002,261.6395012920002,262.65314208400014,263.2061342090019,263.41967487500006,263.41967487500006,263.41967487500006,264.6199278339991,264.6199278339991,264.6199278339991,264.6199278339991,4.03003570799774,265.6198991250021,200001,003,2023-03-10_12h17.03.266,DMS_BEST_eyetracking_DAN_base_12-36_looped_10minWORKING,2022.2.4,None,
33,UNPRED,12,1.1985169202725134,0,images/picture_1.png,images/picture_1.png,0,"[11.733433509789462, -11.733433509789466]",11.733433509789462,-11.733433509789464,images/picture_2.png,1,"[11.733433509789464, 11.733433509789462]",11.733433509789464,11.733433509789462,images/picture_3.png,2,"[-11.733433509789462, 11.733433509789464]",-11.733433509789462,11.733433509789464,0,1,1,1.1985169202725134,2.198516920272513,0.8014830797274866,3,1,1.9485169202725132,0,3,0,3,0,0,6,6,6,,,,,,,,,,,,,,,,,,,,,200001,003,2023-03-10_12h17.03.266,DMS_BEST_eyetracking_DAN_base_12-36_looped_10minWORKING,2022.2.4,None,
33,UNPRED,12,1.1985169202725134,0,images/picture_1.png,images/picture_1.png,0,"[11.733433509789462, -11.733433509789466]",11.733433509789462,-11.733433509789464,images/picture_2.png,1,"[11.733433509789464, 11.733433509789462]",11.733433509789464,11.733433509789462,images/picture_3.png,2,"[-11.733433509789462, 11.733433509789464]",-11.733433509789462,11.733433509789464,0,1,1,1.1985169202725134,2.198516920272513,0.8014830797274866,3,1,1.9485169202725132,0,3,0,3,0,0,6,6,6,,,,,,,0.0036422500015760306,265.67271574999904,265.67271574999904,266.6862644169996,267.6199023750014,267.85289154199927,267.85289154199927,267.85289154199927,268.6533199170008,268.6533199170008,268.6533199170008,268.6533199170008,4.029882000002544,269.65316000000166,200001,003,2023-03-10_12h17.03.266,DMS_BEST_eyetracking_DAN_base_12-36_looped_10minWORKING,2022.2.4,None,
35,UNPRED,12,0.8887400170089691,0,images/picture_1.png,images/picture_1.png,0,"[-11.733433509789466, -11.733433509789462]",-11.733433509789464,-11.733433509789462,images/picture_2.png,1,"[-11.733433509789462, 11.733433509789464]",-11.733433509789462,11.733433509789464,images/picture_3.png,2,"[11.733433509789462, -11.733433509789466]",11.733433509789462,-11.733433509789464,0,1,1,0.8887400170089691,1.8887400170089688,1.1112599829910308,3,1,1.6387400170089692,0,3,0,3,0,0,7,7,8,,,,,,,,,,,,,,,,,,,,,200001,003,2023-03-10_12h17.03.266,DMS_BEST_eyetracking_DAN_base_12-36_looped_10minWORKING,2022.2.4,None,
35,UNPRED,12,0.8887400170089691,0,images/picture_1.png,images/picture_1.png,0,"[-11.733433509789466, -11.733433509789462]",-11.733433509789464,-11.733433509789462,images/picture_2.png,1,"[-11.733433509789462, 11.733433509789464]",-11.733433509789462,11.733433509789464,images/picture_3.png,2,"[11.733433509789462, -11.733433509789466]",11.733433509789462,-11.733433509789464,0,1,1,0.8887400170089691,1.8887400170089688,1.1112599829910308,3,1,1.6387400170089692,0,3,0,3,0,0,7,7,8,,,,,,,0.0034123330005968455,269.68780558399885,269.68780558399885,270.686356000002,271.339317375001,271.57270116699874,271.57270116699874,271.57270116699874,272.6866454170013,272.6866454170013,272.6866454170013,272.6866454170013,3.9963646670003072,273.6876633339998,200001,003,2023-03-10_12h17.03.266,DMS_BEST_eyetracking_DAN_base_12-36_looped_10minWORKING,2022.2.4,None,
27,UNPRED,12,1.0581527422137644,0,images/picture_1.png,images/picture_1.png,0,"[-11.733433509789466, -11.733433509789462]",-11.733433509789464,-11.733433509789462,images/picture_2.png,1,"[11.733433509789464, 11.733433509789462]",11.733433509789464,11.733433509789462,images/picture_3.png,2,"[-11.733433509789462, 11.733433509789464]",-11.733433509789462,11.733433509789464,0,1,1,1.0581527422137644,2.0581527422137644,0.9418472577862356,3,1,1.8081527422137644,0,3,0,3,0,0,8,8,0,,,,,,,,,,,,,,,,,,,,,200001,003,2023-03-10_12h17.03.266,DMS_BEST_eyetracking_DAN_base_12-36_looped_10minWORKING,2022.2.4,None,
27,UNPRED,12,1.0581527422137644,0,images/picture_1.png,images/picture_1.png,0,"[-11.733433509789466, -11.733433509789462]",-11.733433509789464,-11.733433509789462,images/picture_2.png,1,"[11.733433509789464, 11.733433509789462]",11.733433509789464,11.733433509789462,images/picture_3.png,2,"[-11.733433509789462, 11.733433509789464]",-11.733433509789462,11.733433509789464,0,1,1,1.0581527422137644,2.0581527422137644,0.9418472577862356,3,1,1.8081527422137644,0,3,0,3,0,0,8,8,0,,,,,,,0.003457999999227468,273.6876633339998,273.6876633339998,274.68659158399896,275.505986250002,275.73906675000035,275.73906675000035,275.73906675000035,276.686208375002,276.686208375002,276.686208375002,276.686208375002,3.9965260419994593,277.74980108399905,200001,003,2023-03-10_12h17.03.266,DMS_BEST_eyetracking_DAN_base_12-36_looped_10minWORKING,2022.2.4,None,
,,,,,,,,,,,,,,,,,,,,,,,,,,,,,,,3,0,3,0,,,,,,,,,277.74980108399905,289.7735521249997,,,,,,,,,,,,,,,200001,003,2023-03-10_12h17.03.266,DMS_BEST_eyetracking_DAN_base_12-36_looped_10minWORKING,2022.2.4,None,
44,PRED,12,0.9457793870037569,1,images/picture_2.png,images/picture_1.png,0,"[11.733433509789462, -11.733433509789466]",11.733433509789462,-11.733433509789464,images/picture_2.png,1,"[-11.733433509789466, -11.733433509789462]",-11.733433509789464,-11.733433509789462,images/picture_3.png,2,"[-11.733433509789462, 11.733433509789464]",-11.733433509789462,11.733433509789464,0,1,1,0.9457793870037569,1.9457793870037567,1.054220612996243,3,1,1.6957793870037567,0,4,0,4,0,0,0,0,8,,,,,,,,,,,,,,,,,,,,,200001,003,2023-03-10_12h17.03.266,DMS_BEST_eyetracking_DAN_base_12-36_looped_10minWORKING,2022.2.4,None,
44,PRED,12,0.9457793870037569,1,images/picture_2.png,images/picture_1.png,0,"[11.733433509789462, -11.733433509789466]",11.733433509789462,-11.733433509789464,images/picture_2.png,1,"[-11.733433509789466, -11.733433509789462]",-11.733433509789464,-11.733433509789462,images/picture_3.png,2,"[-11.733433509789462, 11.733433509789464]",-11.733433509789462,11.733433509789464,0,1,1,0.9457793870037569,1.9457793870037567,1.054220612996243,3,1,1.6957793870037567,0,4,0,4,0,0,0,0,8,,,,,,,0.004549457997200079,289.7735521249997,289.7735521249997,290.78662595900096,291.4730953750004,291.71970983400024,291.71970983400024,291.71970983400024,292.7865684589997,292.7865684589997,292.7865684589997,292.77273858400076,4.011504457997944,293.8064707920021,200001,003,2023-03-10_12h17.03.266,DMS_BEST_eyetracking_DAN_base_12-36_looped_10minWORKING,2022.2.4,None,
43,PRED,12,1.1238384762279443,1,images/picture_2.png,images/picture_1.png,0,"[-11.733433509789466, -11.733433509789462]",-11.733433509789464,-11.733433509789462,images/picture_2.png,1,"[11.733433509789462, -11.733433509789466]",11.733433509789462,-11.733433509789464,images/picture_3.png,2,"[11.733433509789464, 11.733433509789462]",11.733433509789464,11.733433509789462,0,1,1,1.1238384762279443,2.1238384762279443,0.8761615237720557,3,1,1.8738384762279443,0,4,0,4,0,0,1,1,7,,,,,,,,,,,,,,,,,,,,,200001,003,2023-03-10_12h17.03.266,DMS_BEST_eyetracking_DAN_base_12-36_looped_10minWORKING,2022.2.4,None,
43,PRED,12,1.1238384762279443,1,images/picture_2.png,images/picture_1.png,0,"[-11.733433509789466, -11.733433509789462]",-11.733433509789464,-11.733433509789462,images/picture_2.png,1,"[11.733433509789462, -11.733433509789466]",11.733433509789462,-11.733433509789464,images/picture_3.png,2,"[11.733433509789464, 11.733433509789462]",11.733433509789464,11.733433509789462,0,1,1,1.1238384762279443,2.1238384762279443,0.8761615237720557,3,1,1.8738384762279443,0,4,0,4,0,0,1,1,7,,,,,,,0.005006375002267305,293.8064707920021,293.8064707920021,294.81992820899904,295.686730292,295.90586983400135,295.90586983400135,295.90586983400135,296.78622279200135,296.78622279200135,296.78622279200135,296.78622279200135,4.030231125001592,297.78680112499933,200001,003,2023-03-10_12h17.03.266,DMS_BEST_eyetracking_DAN_base_12-36_looped_10minWORKING,2022.2.4,None,
36,PRED,12,0.7727346655973197,1,images/picture_2.png,images/picture_1.png,0,"[11.733433509789462, -11.733433509789466]",11.733433509789462,-11.733433509789464,images/picture_2.png,1,"[-11.733433509789466, -11.733433509789462]",-11.733433509789464,-11.733433509789462,images/picture_3.png,2,"[-11.733433509789462, 11.733433509789464]",-11.733433509789462,11.733433509789464,0,1,1,0.7727346655973197,1.7727346655973195,1.2272653344026805,3,1,1.5227346655973195,0,4,0,4,0,0,2,2,0,,,,,,,,,,,,,,,,,,,,,200001,003,2023-03-10_12h17.03.266,DMS_BEST_eyetracking_DAN_base_12-36_looped_10minWORKING,2022.2.4,None,
36,PRED,12,0.7727346655973197,1,images/picture_2.png,images/picture_1.png,0,"[11.733433509789462, -11.733433509789466]",11.733433509789462,-11.733433509789464,images/picture_2.png,1,"[-11.733433509789466, -11.733433509789462]",-11.733433509789464,-11.733433509789462,images/picture_3.png,2,"[-11.733433509789462, 11.733433509789464]",-11.733433509789462,11.733433509789464,0,1,1,0.7727346655973197,1.7727346655973195,1.2272653344026805,3,1,1.5227346655973195,0,4,0,4,0,0,2,2,0,,,,,,,0.0049710829989635386,297.83961012500004,297.83961012500004,298.85335908400157,299.37261833400044,299.58642662499915,299.58642662499915,299.58642662499915,300.8200736250001,300.8200736250001,300.8200736250001,300.8200736250001,4.030009250000148,301.82004437499927,200001,003,2023-03-10_12h17.03.266,DMS_BEST_eyetracking_DAN_base_12-36_looped_10minWORKING,2022.2.4,None,
37,PRED,12,0.9943953968297166,1,images/picture_2.png,images/picture_1.png,0,"[11.733433509789462, -11.733433509789466]",11.733433509789462,-11.733433509789464,images/picture_2.png,1,"[-11.733433509789466, -11.733433509789462]",-11.733433509789464,-11.733433509789462,images/picture_3.png,2,"[-11.733433509789462, 11.733433509789464]",-11.733433509789462,11.733433509789464,0,1,1,0.9943953968297166,1.9943953968297168,1.0056046031702834,3,1,1.7443953968297166,0,4,0,4,0,0,3,3,1,,,,,,,,,,,,,,,,,,,,,200001,003,2023-03-10_12h17.03.266,DMS_BEST_eyetracking_DAN_base_12-36_looped_10minWORKING,2022.2.4,None,
37,PRED,12,0.9943953968297166,1,images/picture_2.png,images/picture_1.png,0,"[11.733433509789462, -11.733433509789466]",11.733433509789462,-11.733433509789464,images/picture_2.png,1,"[-11.733433509789466, -11.733433509789462]",-11.733433509789464,-11.733433509789462,images/picture_3.png,2,"[-11.733433509789462, 11.733433509789464]",-11.733433509789462,11.733433509789464,0,1,1,0.9943953968297166,1.9943953968297168,1.0056046031702834,3,1,1.7443953968297166,0,4,0,4,0,0,3,3,1,,,,,,,0.004912584001431242,301.8733057499994,301.8733057499994,302.8867178340006,303.62008566700024,303.8394623339991,303.8394623339991,303.8394623339991,304.8533449589995,304.8533449589995,304.8533449589995,304.8533449589995,4.029590709000331,305.85333845900095,200001,003,2023-03-10_12h17.03.266,DMS_BEST_eyetracking_DAN_base_12-36_looped_10minWORKING,2022.2.4,None,
38,PRED,12,1.1659657332250082,1,images/picture_2.png,images/picture_1.png,0,"[11.733433509789464, 11.733433509789462]",11.733433509789464,11.733433509789462,images/picture_2.png,1,"[11.733433509789462, -11.733433509789466]",11.733433509789462,-11.733433509789464,images/picture_3.png,2,"[-11.733433509789466, -11.733433509789462]",-11.733433509789464,-11.733433509789462,0,1,1,1.1659657332250082,2.1659657332250077,0.8340342667749918,3,1,1.915965733225008,0,4,0,4,0,0,4,4,2,,,,,,,,,,,,,,,,,,,,,200001,003,2023-03-10_12h17.03.266,DMS_BEST_eyetracking_DAN_base_12-36_looped_10minWORKING,2022.2.4,None,
38,PRED,12,1.1659657332250082,1,images/picture_2.png,images/picture_1.png,0,"[11.733433509789464, 11.733433509789462]",11.733433509789464,11.733433509789462,images/picture_2.png,1,"[11.733433509789462, -11.733433509789466]",11.733433509789462,-11.733433509789464,images/picture_3.png,2,"[-11.733433509789466, -11.733433509789462]",-11.733433509789464,-11.733433509789462,0,1,1,1.1659657332250082,2.1659657332250077,0.8340342667749918,3,1,1.915965733225008,0,4,0,4,0,0,4,4,2,,,,,,,0.005124792001879541,305.90661908400216,305.90661908400216,306.9196370419995,307.81982549999884,308.0532880419996,308.0532880419996,308.0532880419996,308.88667779200114,308.88667779200114,308.88667779200114,308.88667779200114,4.029852916999516,309.88665966700137,200001,003,2023-03-10_12h17.03.266,DMS_BEST_eyetracking_DAN_base_12-36_looped_10minWORKING,2022.2.4,None,
41,PRED,12,0.8143543671353902,1,images/picture_2.png,images/picture_1.png,0,"[11.733433509789464, 11.733433509789462]",11.733433509789464,11.733433509789462,images/picture_2.png,1,"[11.733433509789462, -11.733433509789466]",11.733433509789462,-11.733433509789464,images/picture_3.png,2,"[-11.733433509789462, 11.733433509789464]",-11.733433509789462,11.733433509789464,0,1,1,0.8143543671353902,1.8143543671353903,1.1856456328646097,3,1,1.5643543671353903,0,4,0,4,0,0,5,5,5,,,,,,,,,,,,,,,,,,,,,200001,003,2023-03-10_12h17.03.266,DMS_BEST_eyetracking_DAN_base_12-36_looped_10minWORKING,2022.2.4,None,
41,PRED,12,0.8143543671353902,1,images/picture_2.png,images/picture_1.png,0,"[11.733433509789464, 11.733433509789462]",11.733433509789464,11.733433509789462,images/picture_2.png,1,"[11.733433509789462, -11.733433509789466]",11.733433509789462,-11.733433509789464,images/picture_3.png,2,"[-11.733433509789462, 11.733433509789464]",-11.733433509789462,11.733433509789464,0,1,1,0.8143543671353902,1.8143543671353903,1.1856456328646097,3,1,1.5643543671353903,0,4,0,4,0,0,5,5,5,,,,,,,0.00483962499856716,309.9396716250012,309.9396716250012,310.95336983400193,311.505834167001,311.7394532090002,311.7394532090002,311.7394532090002,312.9394328340022,312.9394328340022,312.9394328340022,312.9194663340022,4.027321624998876,313.9200922090022,200001,003,2023-03-10_12h17.03.266,DMS_BEST_eyetracking_DAN_base_12-36_looped_10minWORKING,2022.2.4,None,
39,PRED,12,0.5781344990024483,1,images/picture_2.png,images/picture_1.png,0,"[11.733433509789464, 11.733433509789462]",11.733433509789464,11.733433509789462,images/picture_2.png,1,"[-11.733433509789466, -11.733433509789462]",-11.733433509789464,-11.733433509789462,images/picture_3.png,2,"[11.733433509789462, -11.733433509789466]",11.733433509789462,-11.733433509789464,0,1,1,0.5781344990024483,1.5781344990024482,1.4218655009975518,3,1,1.3281344990024482,0,4,0,4,0,0,6,6,3,,,,,,,,,,,,,,,,,,,,,200001,003,2023-03-10_12h17.03.266,DMS_BEST_eyetracking_DAN_base_12-36_looped_10minWORKING,2022.2.4,None,
39,PRED,12,0.5781344990024483,1,images/picture_2.png,images/picture_1.png,0,"[11.733433509789464, 11.733433509789462]",11.733433509789464,11.733433509789462,images/picture_2.png,1,"[-11.733433509789466, -11.733433509789462]",-11.733433509789464,-11.733433509789462,images/picture_3.png,2,"[11.733433509789462, -11.733433509789466]",11.733433509789462,-11.733433509789464,0,1,1,0.5781344990024483,1.5781344990024482,1.4218655009975518,3,1,1.3281344990024482,0,4,0,4,0,0,6,6,3,,,,,,,0.004928999998810468,313.9727682090015,313.9727682090015,314.986632209002,315.30581229200106,315.519904959001,315.519904959001,315.519904959001,316.9530243340014,316.9530243340014,316.9530243340014,316.9530243340014,4.030356291998032,317.95298637499945,200001,003,2023-03-10_12h17.03.266,DMS_BEST_eyetracking_DAN_base_12-36_looped_10minWORKING,2022.2.4,None,
42,PRED,12,1.1913388155287925,1,images/picture_2.png,images/picture_1.png,0,"[-11.733433509789466, -11.733433509789462]",-11.733433509789464,-11.733433509789462,images/picture_2.png,1,"[-11.733433509789462, 11.733433509789464]",-11.733433509789462,11.733433509789464,images/picture_3.png,2,"[11.733433509789462, -11.733433509789466]",11.733433509789462,-11.733433509789464,0,1,1,1.1913388155287925,2.191338815528792,0.8086611844712077,3,1,1.9413388155287918,0,4,0,4,0,0,7,7,6,,,,,,,,,,,,,,,,,,,,,200001,003,2023-03-10_12h17.03.266,DMS_BEST_eyetracking_DAN_base_12-36_looped_10minWORKING,2022.2.4,None,
42,PRED,12,1.1913388155287925,1,images/picture_2.png,images/picture_1.png,0,"[-11.733433509789466, -11.733433509789462]",-11.733433509789464,-11.733433509789462,images/picture_2.png,1,"[-11.733433509789462, 11.733433509789464]",-11.733433509789462,11.733433509789464,images/picture_3.png,2,"[11.733433509789462, -11.733433509789466]",11.733433509789462,-11.733433509789464,0,1,1,1.1913388155287925,2.191338815528792,0.8086611844712077,3,1,1.9413388155287918,0,4,0,4,0,0,7,7,6,,,,,,,0.001989083997614216,317.98606279199885,317.98606279199885,318.98667120900063,319.9392990839988,320.17291070899955,320.17291070899955,320.17291070899955,320.98684912500175,320.98684912500175,320.98684912500175,320.98684912500175,3.997254208999948,321.9868916250016,200001,003,2023-03-10_12h17.03.266,DMS_BEST_eyetracking_DAN_base_12-36_looped_10minWORKING,2022.2.4,None,
40,PRED,12,0.7001763111739535,1,images/picture_2.png,images/picture_1.png,0,"[-11.733433509789466, -11.733433509789462]",-11.733433509789464,-11.733433509789462,images/picture_2.png,1,"[11.733433509789462, -11.733433509789466]",11.733433509789462,-11.733433509789464,images/picture_3.png,2,"[11.733433509789464, 11.733433509789462]",11.733433509789464,11.733433509789462,0,1,1,0.7001763111739535,1.7001763111739536,1.2998236888260464,3,1,1.4501763111739536,0,4,0,4,0,0,8,8,4,,,,,,,,,,,,,,,,,,,,,200001,003,2023-03-10_12h17.03.266,DMS_BEST_eyetracking_DAN_base_12-36_looped_10minWORKING,2022.2.4,None,
40,PRED,12,0.7001763111739535,1,images/picture_2.png,images/picture_1.png,0,"[-11.733433509789466, -11.733433509789462]",-11.733433509789464,-11.733433509789462,images/picture_2.png,1,"[11.733433509789462, -11.733433509789466]",11.733433509789462,-11.733433509789464,images/picture_3.png,2,"[11.733433509789464, 11.733433509789462]",11.733433509789464,11.733433509789462,0,1,1,0.7001763111739535,1.7001763111739536,1.2998236888260464,3,1,1.4501763111739536,0,4,0,4,0,0,8,8,4,,,,,,,0.0040372080002271105,321.9868916250016,321.9868916250016,322.9867814169993,323.43919108400223,323.6864607089992,323.6864607089992,323.6864607089992,324.98664474999896,324.98664474999896,324.98664474999896,324.98664474999896,3.9977269579976564,326.058542458999,200001,003,2023-03-10_12h17.03.266,DMS_BEST_eyetracking_DAN_base_12-36_looped_10minWORKING,2022.2.4,None,
,,,,,,,,,,,,,,,,,,,,,,,,,,,,,,,4,0,4,0,,,,,,,,,326.058542458999,338.07424433399865,,,,,,,,,,,,,,,200001,003,2023-03-10_12h17.03.266,DMS_BEST_eyetracking_DAN_base_12-36_looped_10minWORKING,2022.2.4,None,
53,UNPRED,12,0.5551710212539913,0,images/picture_1.png,images/picture_1.png,0,"[-11.733433509789462, 11.733433509789464]",-11.733433509789462,11.733433509789464,images/picture_2.png,1,"[-11.733433509789466, -11.733433509789462]",-11.733433509789464,-11.733433509789462,images/picture_3.png,2,"[11.733433509789462, -11.733433509789466]",11.733433509789462,-11.733433509789464,0,1,1,0.5551710212539913,1.555171021253991,1.444828978746009,3,1,1.305171021253991,0,5,0,5,0,0,0,0,8,,,,,,,,,,,,,,,,,,,,,200001,003,2023-03-10_12h17.03.266,DMS_BEST_eyetracking_DAN_base_12-36_looped_10minWORKING,2022.2.4,None,
53,UNPRED,12,0.5551710212539913,0,images/picture_1.png,images/picture_1.png,0,"[-11.733433509789462, 11.733433509789464]",-11.733433509789462,11.733433509789464,images/picture_2.png,1,"[-11.733433509789466, -11.733433509789462]",-11.733433509789464,-11.733433509789462,images/picture_3.png,2,"[11.733433509789462, -11.733433509789466]",11.733433509789462,-11.733433509789464,0,1,1,0.5551710212539913,1.555171021253991,1.444828978746009,3,1,1.305171021253991,0,5,0,5,0,0,0,0,8,,,,,,,0.0019667499982460868,338.07424433399865,338.07424433399865,339.08683558399935,339.3870151250012,339.61964162500226,339.61964162500226,339.61964162500226,341.0730000000003,341.0730000000003,341.0730000000003,341.0730000000003,4.008099292001134,342.1057701669997,200001,003,2023-03-10_12h17.03.266,DMS_BEST_eyetracking_DAN_base_12-36_looped_10minWORKING,2022.2.4,None,
52,UNPRED,12,0.6700197243725283,1,images/picture_2.png,images/picture_1.png,0,"[-11.733433509789466, -11.733433509789462]",-11.733433509789464,-11.733433509789462,images/picture_2.png,1,"[11.733433509789464, 11.733433509789462]",11.733433509789464,11.733433509789462,images/picture_3.png,2,"[11.733433509789462, -11.733433509789466]",11.733433509789462,-11.733433509789464,0,1,1,0.6700197243725283,1.6700197243725283,1.3299802756274717,3,1,1.4200197243725283,0,5,0,5,0,0,1,1,7,,,,,,,,,,,,,,,,,,,,,200001,003,2023-03-10_12h17.03.266,DMS_BEST_eyetracking_DAN_base_12-36_looped_10minWORKING,2022.2.4,None,
52,UNPRED,12,0.6700197243725283,1,images/picture_2.png,images/picture_1.png,0,"[-11.733433509789466, -11.733433509789462]",-11.733433509789464,-11.733433509789462,images/picture_2.png,1,"[11.733433509789464, 11.733433509789462]",11.733433509789464,11.733433509789462,images/picture_3.png,2,"[11.733433509789462, -11.733433509789466]",11.733433509789462,-11.733433509789464,0,1,1,0.6700197243725283,1.6700197243725283,1.3299802756274717,3,1,1.4200197243725283,0,5,0,5,0,0,1,1,7,,,,,,,0.005962584000371862,342.1057701669997,342.1057701669997,343.12007616700066,343.53901291700095,343.753237334,343.753237334,343.753237334,345.0868508749991,345.0868508749991,345.0868508749991,345.0868508749991,4.029754499999399,346.0868364170019,200001,003,2023-03-10_12h17.03.266,DMS_BEST_eyetracking_DAN_base_12-36_looped_10minWORKING,2022.2.4,None,
50,UNPRED,12,0.676961274599372,1,images/picture_2.png,images/picture_1.png,0,"[-11.733433509789462, 11.733433509789464]",-11.733433509789462,11.733433509789464,images/picture_2.png,1,"[-11.733433509789466, -11.733433509789462]",-11.733433509789464,-11.733433509789462,images/picture_3.png,2,"[11.733433509789462, -11.733433509789466]",11.733433509789462,-11.733433509789464,0,1,1,0.676961274599372,1.6769612745993718,1.323038725400628,3,1,1.4269612745993718,0,5,0,5,0,0,2,2,5,,,,,,,,,,,,,,,,,,,,,200001,003,2023-03-10_12h17.03.266,DMS_BEST_eyetracking_DAN_base_12-36_looped_10minWORKING,2022.2.4,None,
50,UNPRED,12,0.676961274599372,1,images/picture_2.png,images/picture_1.png,0,"[-11.733433509789462, 11.733433509789464]",-11.733433509789462,11.733433509789464,images/picture_2.png,1,"[-11.733433509789466, -11.733433509789462]",-11.733433509789464,-11.733433509789462,images/picture_3.png,2,"[11.733433509789462, -11.733433509789466]",11.733433509789462,-11.733433509789464,0,1,1,0.676961274599372,1.6769612745993718,1.323038725400628,3,1,1.4269612745993718,0,5,0,5,0,0,2,2,5,,,,,,,0.004889584000920877,346.1394247499993,346.1394247499993,347.1535685000017,347.57218716699936,347.7863409999991,347.7863409999991,347.7863409999991,349.12014708399875,349.12014708399875,349.12014708399875,349.12014708399875,4.030944583999371,350.120322499999,200001,003,2023-03-10_12h17.03.266,DMS_BEST_eyetracking_DAN_base_12-36_looped_10minWORKING,2022.2.4,None,
45,UNPRED,12,1.026401618133323,1,images/picture_2.png,images/picture_1.png,0,"[-11.733433509789462, 11.733433509789464]",-11.733433509789462,11.733433509789464,images/picture_2.png,1,"[11.733433509789462, -11.733433509789466]",11.733433509789462,-11.733433509789464,images/picture_3.png,2,"[-11.733433509789466, -11.733433509789462]",-11.733433509789464,-11.733433509789462,0,1,1,1.026401618133323,2.026401618133323,0.9735983818666768,3,1,1.776401618133323,0,5,0,5,0,0,3,3,0,,,,,,,,,,,,,,,,,,,,,200001,003,2023-03-10_12h17.03.266,DMS_BEST_eyetracking_DAN_base_12-36_looped_10minWORKING,2022.2.4,None,
45,UNPRED,12,1.026401618133323,1,images/picture_2.png,images/picture_1.png,0,"[-11.733433509789462, 11.733433509789464]",-11.733433509789462,11.733433509789464,images/picture_2.png,1,"[11.733433509789462, -11.733433509789466]",11.733433509789462,-11.733433509789464,images/picture_3.png,2,"[-11.733433509789466, -11.733433509789462]",-11.733433509789464,-11.733433509789462,0,1,1,1.026401618133323,2.026401618133323,0.9735983818666768,3,1,1.776401618133323,0,5,0,5,0,0,3,3,0,,,,,,,0.004960250000294764,350.17318920899925,350.17318920899925,351.18689041700054,351.9532073340015,352.17279187500026,352.17279187500026,352.17279187500026,353.1535972919992,353.1535972919992,353.1535972919992,353.1535972919992,4.029661874999874,354.153581999999,200001,003,2023-03-10_12h17.03.266,DMS_BEST_eyetracking_DAN_base_12-36_looped_10minWORKING,2022.2.4,None,
48,UNPRED,12,0.7033919336848613,2,images/picture_3.png,images/picture_1.png,0,"[11.733433509789462, -11.733433509789466]",11.733433509789462,-11.733433509789464,images/picture_2.png,1,"[-11.733433509789462, 11.733433509789464]",-11.733433509789462,11.733433509789464,images/picture_3.png,2,"[-11.733433509789466, -11.733433509789462]",-11.733433509789464,-11.733433509789462,0,1,1,0.7033919336848613,1.7033919336848613,1.2966080663151387,3,1,1.4533919336848613,0,5,0,5,0,0,4,4,3,,,,,,,,,,,,,,,,,,,,,200001,003,2023-03-10_12h17.03.266,DMS_BEST_eyetracking_DAN_base_12-36_looped_10minWORKING,2022.2.4,None,
48,UNPRED,12,0.7033919336848613,2,images/picture_3.png,images/picture_1.png,0,"[11.733433509789462, -11.733433509789466]",11.733433509789462,-11.733433509789464,images/picture_2.png,1,"[-11.733433509789462, 11.733433509789464]",-11.733433509789462,11.733433509789464,images/picture_3.png,2,"[-11.733433509789466, -11.733433509789462]",-11.733433509789464,-11.733433509789462,0,1,1,0.7033919336848613,1.7033919336848613,1.2966080663151387,3,1,1.4533919336848613,0,5,0,5,0,0,4,4,3,,,,,,,0.00310525000168127,354.1869829169991,354.1869829169991,355.1868893339997,355.6536675419993,355.8865914170019,355.8865914170019,355.8865914170019,357.18691262500215,357.18691262500215,357.18691262500215,357.18691262500215,3.9967003330020816,358.1861739590022,200001,003,2023-03-10_12h17.03.266,DMS_BEST_eyetracking_DAN_base_12-36_looped_10minWORKING,2022.2.4,None,
51,UNPRED,12,0.9640483161153212,2,images/picture_3.png,images/picture_1.png,0,"[-11.733433509789462, 11.733433509789464]",-11.733433509789462,11.733433509789464,images/picture_2.png,1,"[11.733433509789462, -11.733433509789466]",11.733433509789462,-11.733433509789464,images/picture_3.png,2,"[-11.733433509789466, -11.733433509789462]",-11.733433509789464,-11.733433509789462,0,1,1,0.9640483161153212,1.9640483161153213,1.0359516838846787,3,1,1.7140483161153213,0,5,0,5,0,0,5,5,6,,,,,,,,,,,,,,,,,,,,,200001,003,2023-03-10_12h17.03.266,DMS_BEST_eyetracking_DAN_base_12-36_looped_10minWORKING,2022.2.4,None,
51,UNPRED,12,0.9640483161153212,2,images/picture_3.png,images/picture_1.png,0,"[-11.733433509789462, 11.733433509789464]",-11.733433509789462,11.733433509789464,images/picture_2.png,1,"[11.733433509789462, -11.733433509789466]",11.733433509789462,-11.733433509789464,images/picture_3.png,2,"[-11.733433509789466, -11.733433509789462]",-11.733433509789464,-11.733433509789462,0,1,1,0.9640483161153212,1.9640483161153213,1.0359516838846787,3,1,1.7140483161153213,0,5,0,5,0,0,5,5,6,,,,,,,0.0013992089989187662,358.1861739590022,358.1861739590022,359.1869095840011,359.90604104199883,360.15340879200085,360.15340879200085,360.15340879200085,361.1869171670005,361.1869171670005,361.1869171670005,361.1869171670005,3.9970879169995897,362.1872265419988,200001,003,2023-03-10_12h17.03.266,DMS_BEST_eyetracking_DAN_base_12-36_looped_10minWORKING,2022.2.4,None,
47,UNPRED,12,0.7116572220070364,2,images/picture_3.png,images/picture_1.png,0,"[11.733433509789462, -11.733433509789466]",11.733433509789462,-11.733433509789464,images/picture_2.png,1,"[11.733433509789464, 11.733433509789462]",11.733433509789464,11.733433509789462,images/picture_3.png,2,"[-11.733433509789462, 11.733433509789464]",-11.733433509789462,11.733433509789464,0,1,1,0.7116572220070364,1.7116572220070363,1.2883427779929637,3,1,1.4616572220070363,0,5,0,5,0,0,6,6,2,,,,,,,,,,,,,,,,,,,,,200001,003,2023-03-10_12h17.03.266,DMS_BEST_eyetracking_DAN_base_12-36_looped_10minWORKING,2022.2.4,None,
47,UNPRED,12,0.7116572220070364,2,images/picture_3.png,images/picture_1.png,0,"[11.733433509789462, -11.733433509789466]",11.733433509789462,-11.733433509789464,images/picture_2.png,1,"[11.733433509789464, 11.733433509789462]",11.733433509789464,11.733433509789462,images/picture_3.png,2,"[-11.733433509789462, 11.733433509789464]",-11.733433509789462,11.733433509789464,0,1,1,0.7116572220070364,1.7116572220070363,1.2883427779929637,3,1,1.4616572220070363,0,5,0,5,0,0,6,6,2,,,,,,,0.0033033749969035853,362.1872265419988,362.1872265419988,363.18698608400155,363.6536690419998,363.88667445900137,363.88667445900137,363.88667445900137,365.1868552090018,365.1868552090018,365.1868552090018,365.1868552090018,3.9972922089982603,366.18814037500124,200001,003,2023-03-10_12h17.03.266,DMS_BEST_eyetracking_DAN_base_12-36_looped_10minWORKING,2022.2.4,None,
46,UNPRED,12,1.117307224675666,2,images/picture_3.png,images/picture_1.png,0,"[11.733433509789462, -11.733433509789466]",11.733433509789462,-11.733433509789464,images/picture_2.png,1,"[11.733433509789464, 11.733433509789462]",11.733433509789464,11.733433509789462,images/picture_3.png,2,"[-11.733433509789466, -11.733433509789462]",-11.733433509789464,-11.733433509789462,0,1,1,1.117307224675666,2.117307224675666,0.8826927753243341,3,1,1.8673072246756661,0,5,0,5,0,0,7,7,1,,,,,,,,,,,,,,,,,,,,,200001,003,2023-03-10_12h17.03.266,DMS_BEST_eyetracking_DAN_base_12-36_looped_10minWORKING,2022.2.4,None,
46,UNPRED,12,1.117307224675666,2,images/picture_3.png,images/picture_1.png,0,"[11.733433509789462, -11.733433509789466]",11.733433509789462,-11.733433509789464,images/picture_2.png,1,"[11.733433509789464, 11.733433509789462]",11.733433509789464,11.733433509789462,images/picture_3.png,2,"[-11.733433509789466, -11.733433509789462]",-11.733433509789464,-11.733433509789462,0,1,1,1.117307224675666,2.117307224675666,0.8826927753243341,3,1,1.8673072246756661,0,5,0,5,0,0,7,7,1,,,,,,,0.0033877499990921933,366.18814037500124,366.18814037500124,367.18685062499935,368.05329441700087,368.30578804200195,368.30578804200195,368.30578804200195,369.1869435000008,369.1869435000008,369.1869435000008,369.1869435000008,3.996580040999106,370.20660158399915,200001,003,2023-03-10_12h17.03.266,DMS_BEST_eyetracking_DAN_base_12-36_looped_10minWORKING,2022.2.4,None,
49,UNPRED,12,0.8323830203560776,0,images/picture_1.png,images/picture_1.png,0,"[-11.733433509789462, 11.733433509789464]",-11.733433509789462,11.733433509789464,images/picture_2.png,1,"[11.733433509789462, -11.733433509789466]",11.733433509789462,-11.733433509789464,images/picture_3.png,2,"[-11.733433509789466, -11.733433509789462]",-11.733433509789464,-11.733433509789462,0,1,1,0.8323830203560776,1.8323830203560776,1.1676169796439224,3,1,1.5823830203560776,0,5,0,5,0,0,8,8,4,,,,,,,,,,,,,,,,,,,,,200001,003,2023-03-10_12h17.03.266,DMS_BEST_eyetracking_DAN_base_12-36_looped_10minWORKING,2022.2.4,None,
49,UNPRED,12,0.8323830203560776,0,images/picture_1.png,images/picture_1.png,0,"[-11.733433509789462, 11.733433509789464]",-11.733433509789462,11.733433509789464,images/picture_2.png,1,"[11.733433509789462, -11.733433509789466]",11.733433509789462,-11.733433509789464,images/picture_3.png,2,"[-11.733433509789466, -11.733433509789462]",-11.733433509789464,-11.733433509789462,0,1,1,0.8323830203560776,1.8323830203560776,1.1676169796439224,3,1,1.5823830203560776,0,5,0,5,0,0,8,8,4,,,,,,,0.0048889169993344694,370.20660158399915,370.20660158399915,371.2202255420016,371.7869046250016,372.0199647090012,372.0199647090012,372.0199647090012,373.18686804200115,373.18686804200115,373.18686804200115,373.18686804200115,4.030017459001101,374.1869532919991,200001,003,2023-03-10_12h17.03.266,DMS_BEST_eyetracking_DAN_base_12-36_looped_10minWORKING,2022.2.4,None,
,,,,,,,,,,,,,,,,,,,,,,,,,,,,,,,5,0,5,0,,,,,,,,,374.3014734169992,386.3218387500019,,,,,,,,,,,,,,,200001,003,2023-03-10_12h17.03.266,DMS_BEST_eyetracking_DAN_base_12-36_looped_10minWORKING,2022.2.4,None,
62,PRED,12,0.8244569183495865,2,images/picture_3.png,images/picture_1.png,0,"[-11.733433509789462, 11.733433509789464]",-11.733433509789462,11.733433509789464,images/picture_2.png,1,"[-11.733433509789466, -11.733433509789462]",-11.733433509789464,-11.733433509789462,images/picture_3.png,2,"[11.733433509789464, 11.733433509789462]",11.733433509789464,11.733433509789462,0,1,1,0.8244569183495865,1.8244569183495865,1.1755430816504135,3,1,1.5744569183495865,0,6,0,6,0,0,0,0,8,,,,,,,,,,,,,,,,,,,,,200001,003,2023-03-10_12h17.03.266,DMS_BEST_eyetracking_DAN_base_12-36_looped_10minWORKING,2022.2.4,None,
62,PRED,12,0.8244569183495865,2,images/picture_3.png,images/picture_1.png,0,"[-11.733433509789462, 11.733433509789464]",-11.733433509789462,11.733433509789464,images/picture_2.png,1,"[-11.733433509789466, -11.733433509789462]",-11.733433509789464,-11.733433509789462,images/picture_3.png,2,"[11.733433509789464, 11.733433509789462]",11.733433509789464,11.733433509789462,0,1,1,0.8244569183495865,1.8244569183495865,1.1755430816504135,3,1,1.5744569183495865,0,6,0,6,0,0,0,0,8,,,,,,,0.0037303329991118517,386.3218387500019,386.3218387500019,387.320353334002,387.90656854199915,388.1395209170005,388.1395209170005,388.1395209170005,389.3202388339996,389.3202388339996,389.3202388339996,389.3202388339996,3.9959723749998375,390.32147170900134,200001,003,2023-03-10_12h17.03.266,DMS_BEST_eyetracking_DAN_base_12-36_looped_10minWORKING,2022.2.4,None,
60,PRED,12,1.1034324766424746,2,images/picture_3.png,images/picture_1.png,0,"[11.733433509789464, 11.733433509789462]",11.733433509789464,11.733433509789462,images/picture_2.png,1,"[-11.733433509789466, -11.733433509789462]",-11.733433509789464,-11.733433509789462,images/picture_3.png,2,"[11.733433509789462, -11.733433509789466]",11.733433509789462,-11.733433509789464,0,1,1,1.1034324766424746,2.1034324766424746,0.8965675233575254,3,1,1.8534324766424743,0,6,0,6,0,0,1,1,6,,,,,,,,,,,,,,,,,,,,,200001,003,2023-03-10_12h17.03.266,DMS_BEST_eyetracking_DAN_base_12-36_looped_10minWORKING,2022.2.4,None,
60,PRED,12,1.1034324766424746,2,images/picture_3.png,images/picture_1.png,0,"[11.733433509789464, 11.733433509789462]",11.733433509789464,11.733433509789462,images/picture_2.png,1,"[-11.733433509789466, -11.733433509789462]",-11.733433509789464,-11.733433509789462,images/picture_3.png,2,"[11.733433509789462, -11.733433509789466]",11.733433509789462,-11.733433509789464,0,1,1,1.1034324766424746,2.1034324766424746,0.8965675233575254,3,1,1.8534324766424743,0,6,0,6,0,0,1,1,6,,,,,,,0.0033471669994469266,390.32147170900134,390.32147170900134,391.3204311670015,392.1871346670014,392.42005695899934,392.42005695899934,392.42005695899934,393.3203419999991,393.3203419999991,393.3203419999991,393.3203419999991,3.9965855830014334,394.321510709,200001,003,2023-03-10_12h17.03.266,DMS_BEST_eyetracking_DAN_base_12-36_looped_10minWORKING,2022.2.4,None,
56,PRED,12,1.147743132420736,2,images/picture_3.png,images/picture_1.png,0,"[11.733433509789464, 11.733433509789462]",11.733433509789464,11.733433509789462,images/picture_2.png,1,"[-11.733433509789462, 11.733433509789464]",-11.733433509789462,11.733433509789464,images/picture_3.png,2,"[-11.733433509789466, -11.733433509789462]",-11.733433509789464,-11.733433509789462,0,1,1,1.147743132420736,2.147743132420736,0.8522568675792639,3,1,1.897743132420736,0,6,0,6,0,0,2,2,2,,,,,,,,,,,,,,,,,,,,,200001,003,2023-03-10_12h17.03.266,DMS_BEST_eyetracking_DAN_base_12-36_looped_10minWORKING,2022.2.4,None,
56,PRED,12,1.147743132420736,2,images/picture_3.png,images/picture_1.png,0,"[11.733433509789464, 11.733433509789462]",11.733433509789464,11.733433509789462,images/picture_2.png,1,"[-11.733433509789462, 11.733433509789464]",-11.733433509789462,11.733433509789464,images/picture_3.png,2,"[-11.733433509789466, -11.733433509789462]",-11.733433509789464,-11.733433509789462,0,1,1,1.147743132420736,2.147743132420736,0.8522568675792639,3,1,1.897743132420736,0,6,0,6,0,0,2,2,2,,,,,,,0.003370874997926876,394.321510709,394.321510709,395.3203891250014,396.220414667001,396.453479374999,396.453479374999,396.453479374999,397.32059295900035,397.32059295900035,397.32059295900035,397.32059295900035,3.996544375000667,398.3201593750018,200001,003,2023-03-10_12h17.03.266,DMS_BEST_eyetracking_DAN_base_12-36_looped_10minWORKING,2022.2.4,None,
61,PRED,12,0.8566257309722741,2,images/picture_3.png,images/picture_1.png,0,"[-11.733433509789462, 11.733433509789464]",-11.733433509789462,11.733433509789464,images/picture_2.png,1,"[11.733433509789462, -11.733433509789466]",11.733433509789462,-11.733433509789464,images/picture_3.png,2,"[-11.733433509789466, -11.733433509789462]",-11.733433509789464,-11.733433509789462,0,1,1,0.8566257309722741,1.8566257309722742,1.1433742690277258,3,1,1.6066257309722742,0,6,0,6,0,0,3,3,7,,,,,,,,,,,,,,,,,,,,,200001,003,2023-03-10_12h17.03.266,DMS_BEST_eyetracking_DAN_base_12-36_looped_10minWORKING,2022.2.4,None,
61,PRED,12,0.8566257309722741,2,images/picture_3.png,images/picture_1.png,0,"[-11.733433509789462, 11.733433509789464]",-11.733433509789462,11.733433509789464,images/picture_2.png,1,"[11.733433509789462, -11.733433509789466]",11.733433509789462,-11.733433509789464,images/picture_3.png,2,"[-11.733433509789466, -11.733433509789462]",-11.733433509789464,-11.733433509789462,0,1,1,0.8566257309722741,1.8566257309722742,1.1433742690277258,3,1,1.6066257309722742,0,6,0,6,0,0,3,3,7,,,,,,,0.0026002919985330664,398.3201593750018,398.3201593750018,399.3199187499995,399.93994012500116,400.17379341700143,400.17379341700143,400.17379341700143,401.3204242920001,401.3204242920001,401.3204242920001,401.3204242920001,3.997698749997653,402.3397900420023,200001,003,2023-03-10_12h17.03.266,DMS_BEST_eyetracking_DAN_base_12-36_looped_10minWORKING,2022.2.4,None,
59,PRED,12,0.91060570324379,2,images/picture_3.png,images/picture_1.png,0,"[-11.733433509789462, 11.733433509789464]",-11.733433509789462,11.733433509789464,images/picture_2.png,1,"[11.733433509789462, -11.733433509789466]",11.733433509789462,-11.733433509789464,images/picture_3.png,2,"[11.733433509789464, 11.733433509789462]",11.733433509789464,11.733433509789462,0,1,1,0.91060570324379,1.91060570324379,1.08939429675621,3,1,1.66060570324379,0,6,0,6,0,0,4,4,5,,,,,,,,,,,,,,,,,,,,,200001,003,2023-03-10_12h17.03.266,DMS_BEST_eyetracking_DAN_base_12-36_looped_10minWORKING,2022.2.4,None,
59,PRED,12,0.91060570324379,2,images/picture_3.png,images/picture_1.png,0,"[-11.733433509789462, 11.733433509789464]",-11.733433509789462,11.733433509789464,images/picture_2.png,1,"[11.733433509789462, -11.733433509789466]",11.733433509789462,-11.733433509789464,images/picture_3.png,2,"[11.733433509789464, 11.733433509789462]",11.733433509789464,11.733433509789462,0,1,1,0.91060570324379,1.91060570324379,1.08939429675621,3,1,1.66060570324379,0,6,0,6,0,0,4,4,5,,,,,,,0.0033543749996169936,402.3397900420023,402.3397900420023,403.35355212500144,404.0062746250005,404.220216042002,404.220216042002,404.220216042002,405.3203961670006,405.3203961670006,405.3203961670006,405.3203961670006,4.029150249996746,406.3204436670021,200001,003,2023-03-10_12h17.03.266,DMS_BEST_eyetracking_DAN_base_12-36_looped_10minWORKING,2022.2.4,None,
58,PRED,12,0.7444580737963251,2,images/picture_3.png,images/picture_1.png,0,"[11.733433509789462, -11.733433509789466]",11.733433509789462,-11.733433509789464,images/picture_2.png,1,"[-11.733433509789462, 11.733433509789464]",-11.733433509789462,11.733433509789464,images/picture_3.png,2,"[11.733433509789464, 11.733433509789462]",11.733433509789464,11.733433509789462,0,1,1,0.7444580737963251,1.7444580737963251,1.2555419262036749,3,1,1.4944580737963251,0,6,0,6,0,0,5,5,4,,,,,,,,,,,,,,,,,,,,,200001,003,2023-03-10_12h17.03.266,DMS_BEST_eyetracking_DAN_base_12-36_looped_10minWORKING,2022.2.4,None,
58,PRED,12,0.7444580737963251,2,images/picture_3.png,images/picture_1.png,0,"[11.733433509789462, -11.733433509789466]",11.733433509789462,-11.733433509789464,images/picture_2.png,1,"[-11.733433509789462, 11.733433509789464]",-11.733433509789462,11.733433509789464,images/picture_3.png,2,"[11.733433509789464, 11.733433509789462]",11.733433509789464,11.733433509789462,0,1,1,0.7444580737963251,1.7444580737963251,1.2555419262036749,3,1,1.4944580737963251,0,6,0,6,0,0,5,5,4,,,,,,,0.0032983339988277294,406.35398383400025,406.35398383400025,407.35385791700173,407.8536973340015,408.08686758399926,408.08686758399926,408.08686758399926,409.3533497089993,409.3533497089993,409.3533497089993,409.3533497089993,3.9971252089999325,410.35445316700134,200001,003,2023-03-10_12h17.03.266,DMS_BEST_eyetracking_DAN_base_12-36_looped_10minWORKING,2022.2.4,None,
55,PRED,12,1.056512126407223,2,images/picture_3.png,images/picture_1.png,0,"[-11.733433509789466, -11.733433509789462]",-11.733433509789464,-11.733433509789462,images/picture_2.png,1,"[11.733433509789464, 11.733433509789462]",11.733433509789464,11.733433509789462,images/picture_3.png,2,"[11.733433509789462, -11.733433509789466]",11.733433509789462,-11.733433509789464,0,1,1,1.056512126407223,2.056512126407223,0.943487873592777,3,1,1.806512126407223,0,6,0,6,0,0,6,6,1,,,,,,,,,,,,,,,,,,,,,200001,003,2023-03-10_12h17.03.266,DMS_BEST_eyetracking_DAN_base_12-36_looped_10minWORKING,2022.2.4,None,
55,PRED,12,1.056512126407223,2,images/picture_3.png,images/picture_1.png,0,"[-11.733433509789466, -11.733433509789462]",-11.733433509789464,-11.733433509789462,images/picture_2.png,1,"[11.733433509789464, 11.733433509789462]",11.733433509789464,11.733433509789462,images/picture_3.png,2,"[11.733433509789462, -11.733433509789466]",11.733433509789462,-11.733433509789464,0,1,1,1.056512126407223,2.056512126407223,0.943487873592777,3,1,1.806512126407223,0,6,0,6,0,0,6,6,1,,,,,,,0.003292166999017354,410.35445316700134,410.35445316700134,411.35365974999877,412.173521834,412.40640745899873,412.40640745899873,412.40640745899873,413.35385308400146,413.35385308400146,413.35385308400146,413.35385308400146,3.9968816669970693,414.3547451250015,200001,003,2023-03-10_12h17.03.266,DMS_BEST_eyetracking_DAN_base_12-36_looped_10minWORKING,2022.2.4,None,
54,PRED,12,0.9958351010733606,2,images/picture_3.png,images/picture_1.png,0,"[11.733433509789462, -11.733433509789466]",11.733433509789462,-11.733433509789464,images/picture_2.png,1,"[-11.733433509789466, -11.733433509789462]",-11.733433509789464,-11.733433509789462,images/picture_3.png,2,"[-11.733433509789462, 11.733433509789464]",-11.733433509789462,11.733433509789464,0,1,1,0.9958351010733606,1.9958351010733608,1.0041648989266394,3,1,1.7458351010733606,0,6,0,6,0,0,7,7,0,,,,,,,,,,,,,,,,,,,,,200001,003,2023-03-10_12h17.03.266,DMS_BEST_eyetracking_DAN_base_12-36_looped_10minWORKING,2022.2.4,None,
54,PRED,12,0.9958351010733606,2,images/picture_3.png,images/picture_1.png,0,"[11.733433509789462, -11.733433509789466]",11.733433509789462,-11.733433509789464,images/picture_2.png,1,"[-11.733433509789466, -11.733433509789462]",-11.733433509789464,-11.733433509789462,images/picture_3.png,2,"[-11.733433509789462, 11.733433509789464]",-11.733433509789462,11.733433509789464,0,1,1,0.9958351010733606,1.9958351010733608,1.0041648989266394,3,1,1.7458351010733606,0,6,0,6,0,0,7,7,0,,,,,,,0.003269208002166124,414.3547451250015,414.3547451250015,415.3538640420011,416.1067126670023,416.3534974590002,416.3534974590002,416.3534974590002,417.35381054200116,417.35381054200116,417.35381054200116,417.35381054200116,3.997001125000679,418.35427633400104,200001,003,2023-03-10_12h17.03.266,DMS_BEST_eyetracking_DAN_base_12-36_looped_10minWORKING,2022.2.4,None,
57,PRED,12,1.0641004481622711,2,images/picture_3.png,images/picture_1.png,0,"[11.733433509789464, 11.733433509789462]",11.733433509789464,11.733433509789462,images/picture_2.png,1,"[-11.733433509789466, -11.733433509789462]",-11.733433509789464,-11.733433509789462,images/picture_3.png,2,"[11.733433509789462, -11.733433509789466]",11.733433509789462,-11.733433509789464,0,1,1,1.0641004481622711,2.064100448162271,0.9358995518377288,3,1,1.8141004481622711,0,6,0,6,0,0,8,8,3,,,,,,,,,,,,,,,,,,,,,200001,003,2023-03-10_12h17.03.266,DMS_BEST_eyetracking_DAN_base_12-36_looped_10minWORKING,2022.2.4,None,
57,PRED,12,1.0641004481622711,2,images/picture_3.png,images/picture_1.png,0,"[11.733433509789464, 11.733433509789462]",11.733433509789464,11.733433509789462,images/picture_2.png,1,"[-11.733433509789466, -11.733433509789462]",-11.733433509789464,-11.733433509789462,images/picture_3.png,2,"[11.733433509789462, -11.733433509789466]",11.733433509789462,-11.733433509789464,0,1,1,1.0641004481622711,2.064100448162271,0.9358995518377288,3,1,1.8141004481622711,0,6,0,6,0,0,8,8,3,,,,,,,0.003090916998189641,418.35427633400104,418.35427633400104,419.3536331670002,420.17310162500144,420.4201594590013,420.4201594590013,420.4201594590013,421.353819709002,421.353819709002,421.353819709002,421.353819709002,3.9967998339998303,422.4894269590004,200001,003,2023-03-10_12h17.03.266,DMS_BEST_eyetracking_DAN_base_12-36_looped_10minWORKING,2022.2.4,None,
,,,,,,,,,,,,,,,,,,,,,,,,,,,,,,,6,0,6,0,,,,,,,,,422.4894269590004,434.5074382089988,,,,,,,,,,,,,,,200001,003,2023-03-10_12h17.03.266,DMS_BEST_eyetracking_DAN_base_12-36_looped_10minWORKING,2022.2.4,None,
67,UNPRED,12,1.1043217369114582,0,images/picture_1.png,images/picture_1.png,0,"[-11.733433509789462, 11.733433509789464]",-11.733433509789462,11.733433509789464,images/picture_2.png,1,"[-11.733433509789466, -11.733433509789462]",-11.733433509789464,-11.733433509789462,images/picture_3.png,2,"[11.733433509789462, -11.733433509789466]",11.733433509789462,-11.733433509789464,0,1,1,1.1043217369114582,2.104321736911458,0.8956782630885418,3,1,1.8543217369114584,0,7,0,7,0,0,0,0,4,,,,,,,,,,,,,,,,,,,,,200001,003,2023-03-10_12h17.03.266,DMS_BEST_eyetracking_DAN_base_12-36_looped_10minWORKING,2022.2.4,None,
67,UNPRED,12,1.1043217369114582,0,images/picture_1.png,images/picture_1.png,0,"[-11.733433509789462, 11.733433509789464]",-11.733433509789462,11.733433509789464,images/picture_2.png,1,"[-11.733433509789466, -11.733433509789462]",-11.733433509789464,-11.733433509789462,images/picture_3.png,2,"[11.733433509789462, -11.733433509789466]",11.733433509789462,-11.733433509789464,0,1,1,1.1043217369114582,2.104321736911458,0.8956782630885418,3,1,1.8543217369114584,0,7,0,7,0,0,0,0,4,,,,,,,0.0036508330013020895,434.5074382089988,434.5074382089988,435.5205947499999,436.3730083750015,436.60697916700155,436.60697916700155,436.60697916700155,437.5070817090018,437.5070817090018,437.5070817090018,437.5070817090018,4.010562125000433,438.5403636250012,200001,003,2023-03-10_12h17.03.266,DMS_BEST_eyetracking_DAN_base_12-36_looped_10minWORKING,2022.2.4,None,
63,UNPRED,12,1.1044188069389296,1,images/picture_2.png,images/picture_1.png,0,"[11.733433509789464, 11.733433509789462]",11.733433509789464,11.733433509789462,images/picture_2.png,1,"[-11.733433509789466, -11.733433509789462]",-11.733433509789464,-11.733433509789462,images/picture_3.png,2,"[-11.733433509789462, 11.733433509789464]",-11.733433509789462,11.733433509789464,0,1,1,1.1044188069389296,2.10441880693893,0.8955811930610704,3,1,1.8544188069389296,0,7,0,7,0,0,1,1,0,,,,,,,,,,,,,,,,,,,,,200001,003,2023-03-10_12h17.03.266,DMS_BEST_eyetracking_DAN_base_12-36_looped_10minWORKING,2022.2.4,None,
63,UNPRED,12,1.1044188069389296,1,images/picture_2.png,images/picture_1.png,0,"[11.733433509789464, 11.733433509789462]",11.733433509789464,11.733433509789462,images/picture_2.png,1,"[-11.733433509789466, -11.733433509789462]",-11.733433509789464,-11.733433509789462,images/picture_3.png,2,"[-11.733433509789462, 11.733433509789464]",-11.733433509789462,11.733433509789464,0,1,1,1.1044188069389296,2.10441880693893,0.8955811930610704,3,1,1.8544188069389296,0,7,0,7,0,0,1,1,0,,,,,,,0.0059831250000570435,438.5403636250012,438.5403636250012,439.55350887500026,440.4060980840004,440.6202022090001,440.6202022090001,440.6202022090001,441.5206013749994,441.5206013749994,441.5206013749994,441.5206013749994,4.0297140830007265,442.52061087499897,200001,003,2023-03-10_12h17.03.266,DMS_BEST_eyetracking_DAN_base_12-36_looped_10minWORKING,2022.2.4,None,
65,UNPRED,12,1.1988796714942025,1,images/picture_2.png,images/picture_1.png,0,"[-11.733433509789462, 11.733433509789464]",-11.733433509789462,11.733433509789464,images/picture_2.png,1,"[-11.733433509789466, -11.733433509789462]",-11.733433509789464,-11.733433509789462,images/picture_3.png,2,"[11.733433509789464, 11.733433509789462]",11.733433509789464,11.733433509789462,0,1,1,1.1988796714942025,2.1988796714942023,0.8011203285057977,3,1,1.9488796714942025,0,7,0,7,0,0,2,2,2,,,,,,,,,,,,,,,,,,,,,200001,003,2023-03-10_12h17.03.266,DMS_BEST_eyetracking_DAN_base_12-36_looped_10minWORKING,2022.2.4,None,
65,UNPRED,12,1.1988796714942025,1,images/picture_2.png,images/picture_1.png,0,"[-11.733433509789462, 11.733433509789464]",-11.733433509789462,11.733433509789464,images/picture_2.png,1,"[-11.733433509789466, -11.733433509789462]",-11.733433509789464,-11.733433509789462,images/picture_3.png,2,"[11.733433509789464, 11.733433509789462]",11.733433509789464,11.733433509789462,0,1,1,1.1988796714942025,2.1988796714942023,0.8011203285057977,3,1,1.9488796714942025,0,7,0,7,0,0,2,2,2,,,,,,,0.0050048339981003664,442.57373216700216,442.57373216700216,443.5871310420007,444.54343458400035,444.75387412499913,444.75387412499913,444.75387412499913,445.5888851669988,445.5888851669988,445.5888851669988,445.5888851669988,4.030434542000876,446.61992645899954,200001,003,2023-03-10_12h17.03.266,DMS_BEST_eyetracking_DAN_base_12-36_looped_10minWORKING,2022.2.4,None,
71,UNPRED,12,0.7489073705870309,2,images/picture_3.png,images/picture_1.png,0,"[11.733433509789462, -11.733433509789466]",11.733433509789462,-11.733433509789464,images/picture_2.png,1,"[11.733433509789464, 11.733433509789462]",11.733433509789464,11.733433509789462,images/picture_3.png,2,"[-11.733433509789466, -11.733433509789462]",-11.733433509789464,-11.733433509789462,0,1,1,0.7489073705870309,1.7489073705870308,1.2510926294129692,3,1,1.4989073705870308,0,7,0,7,0,0,3,3,8,,,,,,,,,,,,,,,,,,,,,200001,003,2023-03-10_12h17.03.266,DMS_BEST_eyetracking_DAN_base_12-36_looped_10minWORKING,2022.2.4,None,
71,UNPRED,12,0.7489073705870309,2,images/picture_3.png,images/picture_1.png,0,"[11.733433509789462, -11.733433509789466]",11.733433509789462,-11.733433509789464,images/picture_2.png,1,"[11.733433509789464, 11.733433509789462]",11.733433509789464,11.733433509789462,images/picture_3.png,2,"[-11.733433509789466, -11.733433509789462]",-11.733433509789464,-11.733433509789462,0,1,1,0.7489073705870309,1.7489073705870308,1.2510926294129692,3,1,1.4989073705870308,0,7,0,7,0,0,3,3,8,,,,,,,0.0020736670012411196,446.61992645899954,446.61992645899954,447.6206870419992,448.1207021250011,448.37407087500105,448.37407087500105,448.37407087500105,449.63928520899935,449.63928520899935,449.63928520899935,449.62011650000204,3.995312916998955,450.6397815419987,200001,003,2023-03-10_12h17.03.266,DMS_BEST_eyetracking_DAN_base_12-36_looped_10minWORKING,2022.2.4,None,
