trial_count,blockType,blockNum,delay_time,stimImage_i,stimImage,responseImage1,responseImage1_i,responseImage1_pos,responseImage1_X,responseImage1_Y,responseImage2,responseImage2_i,responseImage2_pos,responseImage2_X,responseImage2_Y,responseImage3,responseImage3_i,responseImage3_pos,responseImage3_X,responseImage3_Y,cue_onset,cue_dur,delay_onset,delay_dur,resp_onset,resp_dur,rest_onset,rest_dur,circle_dur,circle_onset,total_dur,cross_onset,cross_dur,delay_resp_period,blocks.thisRepN,blocks.thisTrialN,blocks.thisN,blocks.thisIndex,trials.thisRepN,trials.thisTrialN,trials.thisN,trials.thisIndex,key_resp.started,text.started,key_resp.keys,key_resp.rt,text_2.started,text_2.stopped,sample.started,Delay.started,sample.stopped,Delay.stopped,Response_1.started,Response_2.started,Response_3.started,Response_1.stopped,Response_2.stopped,Response_3.stopped,polygon.started,polygon.stopped,participant,session,date,expName,psychopyVersion,frameRate,
,,,,,,,,,,,,,,,,,,,,,,,,,,,,,,,,,,,,,,,,,,,41.759781959000975,41.759781959000975,t,58.065802042139694,,,,,,,,,,,,,,,200004,006,2023-03-31_11h38.51.332,DMS_et_12-36,2022.2.4,None,
0,PRED,12,0.8678491945740778,0,images/picture_1.png,images/picture_1.png,0,"[11.733433509789464, 11.733433509789462]",11.733433509789464,11.733433509789462,images/picture_2.png,1,"[11.733433509789462, -11.733433509789466]",11.733433509789462,-11.733433509789464,images/picture_3.png,2,"[-11.733433509789462, 11.733433509789464]",-11.733433509789462,11.733433509789464,0,1,1,0.8678491945740778,1.8678491945740776,1.1321508054259222,3.0,1,1.6178491945740778,0,4.0,3.0,1,2,0,0,0,0,0,0,0,0,,,,,100.34449154185131,112.3740822088439,112.3740822088439,112.3740822088439,113.3718565418385,114.0054591668304,114.23876270884648,114.23876270884648,114.23876270884648,115.37196987494826,115.37196987494826,115.37196987494826,115.37196987494826,116.3715111669153,200004,006,2023-03-31_11h38.51.332,DMS_et_12-36,2022.2.4,None,
3,PRED,12,0.8678491945740778,0,images/picture_1.png,images/picture_1.png,0,"[11.733433509789462, -11.733433509789466]",11.733433509789462,-11.733433509789464,images/picture_2.png,1,"[11.733433509789464, 11.733433509789462]",11.733433509789464,11.733433509789462,images/picture_3.png,2,"[-11.733433509789466, -11.733433509789462]",-11.733433509789464,-11.733433509789462,0,1,1,0.8678491945740778,1.8678491945740776,1.1321508054259222,3.0,1,1.6178491945740778,0,4.0,3.0,1,2,0,0,0,0,0,1,1,3,,,,,,,116.3715111669153,116.3715111669153,117.37203658395447,117.99109862488694,118.23869774979539,118.23869774979539,118.23869774979539,119.3718122499995,119.3718122499995,119.3718122499995,119.3718122499995,120.37184512498789,200004,006,2023-03-31_11h38.51.332,DMS_et_12-36,2022.2.4,None,
4,PRED,12,0.8678491945740778,0,images/picture_1.png,images/picture_1.png,0,"[-11.733433509789466, -11.733433509789462]",-11.733433509789464,-11.733433509789462,images/picture_2.png,1,"[11.733433509789462, -11.733433509789466]",11.733433509789462,-11.733433509789464,images/picture_3.png,2,"[-11.733433509789462, 11.733433509789464]",-11.733433509789462,11.733433509789464,0,1,1,0.8678491945740778,1.8678491945740776,1.1321508054259222,3.0,1,1.6178491945740778,0,4.0,3.0,1,2,0,0,0,0,0,2,2,4,,,,,,,120.37184512498789,120.37184512498789,121.37216566689312,122.00547695881687,122.23882329184562,122.23882329184562,122.23882329184562,123.37165933381766,123.37165933381766,123.37165933381766,123.37165933381766,124.37152870884165,200004,006,2023-03-31_11h38.51.332,DMS_et_12-36,2022.2.4,None,
1,PRED,12,0.8678491945740778,0,images/picture_1.png,images/picture_1.png,0,"[-11.733433509789466, -11.733433509789462]",-11.733433509789464,-11.733433509789462,images/picture_2.png,1,"[11.733433509789464, 11.733433509789462]",11.733433509789464,11.733433509789462,images/picture_3.png,2,"[11.733433509789462, -11.733433509789466]",11.733433509789462,-11.733433509789464,0,1,1,0.8678491945740778,1.8678491945740776,1.1321508054259222,3.0,1,1.6178491945740778,0,4.0,3.0,1,2,0,0,0,0,0,3,3,1,,,,,,,124.37152870884165,124.37152870884165,125.37189133395441,125.99159200000577,126.23869766690768,126.23869766690768,126.23869766690768,127.37234249990433,127.37234249990433,127.37234249990433,127.37234249990433,128.37175208400004,200004,006,2023-03-31_11h38.51.332,DMS_et_12-36,2022.2.4,None,
5,PRED,12,0.8678491945740778,0,images/picture_1.png,images/picture_1.png,0,"[11.733433509789462, -11.733433509789466]",11.733433509789462,-11.733433509789464,images/picture_2.png,1,"[11.733433509789464, 11.733433509789462]",11.733433509789464,11.733433509789462,images/picture_3.png,2,"[-11.733433509789466, -11.733433509789462]",-11.733433509789464,-11.733433509789462,0,1,1,0.8678491945740778,1.8678491945740776,1.1321508054259222,3.0,1,1.6178491945740778,0,4.0,3.0,1,2,0,0,0,0,0,4,4,5,,,,,,,128.37175208400004,128.37175208400004,129.37241516681388,129.99086695886217,130.23878370900638,130.23878370900638,130.23878370900638,131.37203820887953,131.37203820887953,131.37203820887953,131.37203820887953,132.3720524588134,200004,006,2023-03-31_11h38.51.332,DMS_et_12-36,2022.2.4,None,
6,PRED,12,0.8678491945740778,0,images/picture_1.png,images/picture_1.png,0,"[-11.733433509789462, 11.733433509789464]",-11.733433509789462,11.733433509789464,images/picture_2.png,1,"[-11.733433509789466, -11.733433509789462]",-11.733433509789464,-11.733433509789462,images/picture_3.png,2,"[11.733433509789464, 11.733433509789462]",11.733433509789464,11.733433509789462,0,1,1,0.8678491945740778,1.8678491945740776,1.1321508054259222,3.0,1,1.6178491945740778,0,4.0,3.0,1,2,0,0,0,0,0,5,5,6,,,,,,,132.3720524588134,132.3720524588134,133.37243291689083,133.99160049995407,134.23896620888263,134.23896620888263,134.23896620888263,135.37227266700938,135.37227266700938,135.37227266700938,135.37227266700938,136.37185104191303,200004,006,2023-03-31_11h38.51.332,DMS_et_12-36,2022.2.4,None,
2,PRED,12,0.8678491945740778,0,images/picture_1.png,images/picture_1.png,0,"[-11.733433509789462, 11.733433509789464]",-11.733433509789462,11.733433509789464,images/picture_2.png,1,"[11.733433509789462, -11.733433509789466]",11.733433509789462,-11.733433509789464,images/picture_3.png,2,"[11.733433509789464, 11.733433509789462]",11.733433509789464,11.733433509789462,0,1,1,0.8678491945740778,1.8678491945740776,1.1321508054259222,3.0,1,1.6178491945740778,0,4.0,3.0,1,2,0,0,0,0,0,6,6,2,,,,,,,136.37185104191303,136.37185104191303,137.37218870897777,137.9914714167826,138.2390329169575,138.2390329169575,138.2390329169575,139.37243433389813,139.37243433389813,139.37243433389813,139.37243433389813,140.3718627919443,200004,006,2023-03-31_11h38.51.332,DMS_et_12-36,2022.2.4,None,
8,PRED,12,0.8678491945740778,0,images/picture_1.png,images/picture_1.png,0,"[11.733433509789464, 11.733433509789462]",11.733433509789464,11.733433509789462,images/picture_2.png,1,"[-11.733433509789466, -11.733433509789462]",-11.733433509789464,-11.733433509789462,images/picture_3.png,2,"[-11.733433509789462, 11.733433509789464]",-11.733433509789462,11.733433509789464,0,1,1,0.8678491945740778,1.8678491945740776,1.1321508054259222,3.0,1,1.6178491945740778,0,4.0,3.0,1,2,0,0,0,0,0,7,7,8,,,,,,,140.3718627919443,140.3718627919443,141.37246812484227,141.9913059589453,142.2390819590073,142.2390819590073,142.2390819590073,143.3718364587985,143.3718364587985,143.3718364587985,143.3718364587985,144.37203108379617,200004,006,2023-03-31_11h38.51.332,DMS_et_12-36,2022.2.4,None,
7,PRED,12,0.8678491945740778,0,images/picture_1.png,images/picture_1.png,0,"[11.733433509789464, 11.733433509789462]",11.733433509789464,11.733433509789462,images/picture_2.png,1,"[-11.733433509789466, -11.733433509789462]",-11.733433509789464,-11.733433509789462,images/picture_3.png,2,"[11.733433509789462, -11.733433509789466]",11.733433509789462,-11.733433509789464,0,1,1,0.8678491945740778,1.8678491945740776,1.1321508054259222,3.0,1,1.6178491945740778,0,4.0,3.0,1,2,0,0,0,0,0,8,8,7,,,,,,,144.37203108379617,144.37203108379617,145.3726413338445,145.9915122089442,146.23910216684453,146.23910216684453,146.23910216684453,147.3724323338829,147.3724323338829,147.3724323338829,147.3724323338829,148.39106733398512,200004,006,2023-03-31_11h38.51.332,DMS_et_12-36,2022.2.4,None,
,,,,,,,,,,,,,,,,,,,,,,,,,,,,,,,,,,,0,0,0,0,,,,,,,,,148.39106733398512,160.42435520887375,,,,,,,,,,,,,200004,006,2023-03-31_11h38.51.332,DMS_et_12-36,2022.2.4,None,
9,UNPRED,12,0.8678491945740778,1,images/picture_2.png,images/picture_1.png,0,"[11.733433509789462, -11.733433509789466]",11.733433509789462,-11.733433509789464,images/picture_2.png,1,"[11.733433509789464, 11.733433509789462]",11.733433509789464,11.733433509789462,images/picture_3.png,2,"[-11.733433509789462, 11.733433509789464]",-11.733433509789462,11.733433509789464,0,1,1,0.8678491945740778,1.8678491945740776,1.1321508054259222,3.0,1,1.6178491945740778,0,4.0,3.0,1,2,1,0,1,0,0,0,0,0,,,,,,,160.42435520887375,160.42435520887375,161.4387418339029,162.03920983383432,162.2724982087966,162.2724982087966,162.2724982087966,163.40575816691853,163.40575816691853,163.40575816691853,163.40575816691853,164.4052575000096,200004,006,2023-03-31_11h38.51.332,DMS_et_12-36,2022.2.4,None,
15,UNPRED,12,0.8678491945740778,1,images/picture_2.png,images/picture_1.png,0,"[-11.733433509789462, 11.733433509789464]",-11.733433509789462,11.733433509789464,images/picture_2.png,1,"[11.733433509789464, 11.733433509789462]",11.733433509789464,11.733433509789462,images/picture_3.png,2,"[11.733433509789462, -11.733433509789466]",11.733433509789462,-11.733433509789464,0,1,1,0.8678491945740778,1.8678491945740776,1.1321508054259222,3.0,1,1.6178491945740778,0,4.0,3.0,1,2,1,0,1,0,0,1,1,6,,,,,,,164.4052575000096,164.4052575000096,165.40576674998738,166.02525800000876,166.27245258400217,166.27245258400217,166.27245258400217,167.40561754186638,167.40561754186638,167.40561754186638,167.40561754186638,168.42465483397245,200004,006,2023-03-31_11h38.51.332,DMS_et_12-36,2022.2.4,None,
13,UNPRED,12,0.8678491945740778,2,images/picture_3.png,images/picture_1.png,0,"[-11.733433509789462, 11.733433509789464]",-11.733433509789462,11.733433509789464,images/picture_2.png,1,"[11.733433509789464, 11.733433509789462]",11.733433509789464,11.733433509789462,images/picture_3.png,2,"[11.733433509789462, -11.733433509789466]",11.733433509789462,-11.733433509789464,0,1,1,0.8678491945740778,1.8678491945740776,1.1321508054259222,3.0,1,1.6178491945740778,0,4.0,3.0,1,2,1,0,1,0,0,2,2,4,,,,,,,168.42465483397245,168.42465483397245,169.43921099998988,170.03919895878062,170.27249295893125,170.27249295893125,170.27249295893125,171.4055297919549,171.4055297919549,171.4055297919549,171.4055297919549,172.42554670898244,200004,006,2023-03-31_11h38.51.332,DMS_et_12-36,2022.2.4,None,
10,UNPRED,12,0.8678491945740778,2,images/picture_3.png,images/picture_1.png,0,"[11.733433509789462, -11.733433509789466]",11.733433509789462,-11.733433509789464,images/picture_2.png,1,"[-11.733433509789466, -11.733433509789462]",-11.733433509789464,-11.733433509789462,images/picture_3.png,2,"[-11.733433509789462, 11.733433509789464]",-11.733433509789462,11.733433509789464,0,1,1,0.8678491945740778,1.8678491945740776,1.1321508054259222,3.0,1,1.6178491945740778,0,4.0,3.0,1,2,1,0,1,0,0,3,3,1,,,,,,,172.42554670898244,172.42554670898244,173.4389873337932,174.05858845892362,174.2724752088543,174.2724752088543,174.2724752088543,175.40573962498456,175.40573962498456,175.40573962498456,175.40573962498456,176.40538420900702,200004,006,2023-03-31_11h38.51.332,DMS_et_12-36,2022.2.4,None,
12,UNPRED,12,0.8678491945740778,0,images/picture_1.png,images/picture_1.png,0,"[11.733433509789462, -11.733433509789466]",11.733433509789462,-11.733433509789464,images/picture_2.png,1,"[-11.733433509789466, -11.733433509789462]",-11.733433509789464,-11.733433509789462,images/picture_3.png,2,"[11.733433509789464, 11.733433509789462]",11.733433509789464,11.733433509789462,0,1,1,0.8678491945740778,1.8678491945740776,1.1321508054259222,3.0,1,1.6178491945740778,0,4.0,3.0,1,2,1,0,1,0,0,4,4,3,,,,,,,176.40538420900702,176.40538420900702,177.40579483378679,178.02543579181656,178.272648624843,178.272648624843,178.272648624843,179.40567716700025,179.40567716700025,179.40567716700025,179.40567716700025,180.42453058389947,200004,006,2023-03-31_11h38.51.332,DMS_et_12-36,2022.2.4,None,
16,UNPRED,12,0.8678491945740778,2,images/picture_3.png,images/picture_1.png,0,"[11.733433509789464, 11.733433509789462]",11.733433509789464,11.733433509789462,images/picture_2.png,1,"[11.733433509789462, -11.733433509789466]",11.733433509789462,-11.733433509789464,images/picture_3.png,2,"[-11.733433509789466, -11.733433509789462]",-11.733433509789464,-11.733433509789462,0,1,1,0.8678491945740778,1.8678491945740776,1.1321508054259222,3.0,1,1.6178491945740778,0,4.0,3.0,1,2,1,0,1,0,0,5,5,7,,,,,,,180.42453058389947,180.42453058389947,181.43893516692333,182.0579445839394,182.2727462919429,182.2727462919429,182.2727462919429,183.40587120899,183.40587120899,183.40587120899,183.40587120899,184.40487433387898,200004,006,2023-03-31_11h38.51.332,DMS_et_12-36,2022.2.4,None,
11,UNPRED,12,0.8678491945740778,0,images/picture_1.png,images/picture_1.png,0,"[11.733433509789462, -11.733433509789466]",11.733433509789462,-11.733433509789464,images/picture_2.png,1,"[-11.733433509789462, 11.733433509789464]",-11.733433509789462,11.733433509789464,images/picture_3.png,2,"[11.733433509789464, 11.733433509789462]",11.733433509789464,11.733433509789462,0,1,1,0.8678491945740778,1.8678491945740776,1.1321508054259222,3.0,1,1.6178491945740778,0,4.0,3.0,1,2,1,0,1,0,0,6,6,2,,,,,,,184.40487433387898,184.40487433387898,185.40546037489548,186.02530004200526,186.27252158382908,186.27252158382908,186.27252158382908,187.40567141678184,187.40567141678184,187.40567141678184,187.40567141678184,188.42460224987008,200004,006,2023-03-31_11h38.51.332,DMS_et_12-36,2022.2.4,None,
14,UNPRED,12,0.8678491945740778,2,images/picture_3.png,images/picture_1.png,0,"[11.733433509789462, -11.733433509789466]",11.733433509789462,-11.733433509789464,images/picture_2.png,1,"[-11.733433509789466, -11.733433509789462]",-11.733433509789464,-11.733433509789462,images/picture_3.png,2,"[11.733433509789464, 11.733433509789462]",11.733433509789464,11.733433509789462,0,1,1,0.8678491945740778,1.8678491945740776,1.1321508054259222,3.0,1,1.6178491945740778,0,4.0,3.0,1,2,1,0,1,0,0,7,7,5,,,,,,,188.42460224987008,188.42460224987008,189.43922424991615,190.03920620889403,190.2725912919268,190.2725912919268,190.2725912919268,191.40552362496965,191.40552362496965,191.40552362496965,191.40552362496965,192.42453095898964,200004,006,2023-03-31_11h38.51.332,DMS_et_12-36,2022.2.4,None,
17,UNPRED,12,0.8678491945740778,1,images/picture_2.png,images/picture_1.png,0,"[11.733433509789464, 11.733433509789462]",11.733433509789464,11.733433509789462,images/picture_2.png,1,"[-11.733433509789462, 11.733433509789464]",-11.733433509789462,11.733433509789464,images/picture_3.png,2,"[-11.733433509789466, -11.733433509789462]",-11.733433509789464,-11.733433509789462,0,1,1,0.8678491945740778,1.8678491945740776,1.1321508054259222,3.0,1,1.6178491945740778,0,4.0,3.0,1,2,1,0,1,0,0,8,8,8,,,,,,,192.42453095898964,192.42453095898964,193.4393063338939,194.0392426669132,194.2725392919965,194.2725392919965,194.2725392919965,195.4059788750019,195.4059788750019,195.4059788750019,195.4059788750019,196.44030958390795,200004,006,2023-03-31_11h38.51.332,DMS_et_12-36,2022.2.4,None,
,,,,,,,,,,,,,,,,,,,,,,,,,,,,,,,,,,,1,0,1,0,,,,,,,,,196.44030958390795,208.4706922499463,,,,,,,,,,,,,200004,006,2023-03-31_11h38.51.332,DMS_et_12-36,2022.2.4,None,
21,PRED,12,0.8678491945740778,2,images/picture_3.png,images/picture_1.png,0,"[11.733433509789464, 11.733433509789462]",11.733433509789464,11.733433509789462,images/picture_2.png,1,"[-11.733433509789462, 11.733433509789464]",-11.733433509789462,11.733433509789464,images/picture_3.png,2,"[-11.733433509789466, -11.733433509789462]",-11.733433509789464,-11.733433509789462,0,1,1,0.8678491945740778,1.8678491945740776,1.1321508054259222,3.0,1,1.6178491945740778,0,4.0,3.0,1,2,2,0,2,0,0,0,0,3,,,,,,,208.4706922499463,208.4706922499463,209.47211604192853,210.09169266698882,210.32512729195878,210.32512729195878,210.32512729195878,211.4722862499766,211.4722862499766,211.4722862499766,211.45837254193611,212.49095812486485,200004,006,2023-03-31_11h38.51.332,DMS_et_12-36,2022.2.4,None,
20,PRED,12,0.8678491945740778,2,images/picture_3.png,images/picture_1.png,0,"[11.733433509789462, -11.733433509789466]",11.733433509789462,-11.733433509789464,images/picture_2.png,1,"[-11.733433509789462, 11.733433509789464]",-11.733433509789462,11.733433509789464,images/picture_3.png,2,"[-11.733433509789466, -11.733433509789462]",-11.733433509789464,-11.733433509789462,0,1,1,0.8678491945740778,1.8678491945740776,1.1321508054259222,3.0,1,1.6178491945740778,0,4.0,3.0,1,2,2,0,2,0,0,1,1,2,,,,,,,212.49095812486485,212.49095812486485,213.50568529195152,214.10572837479413,214.3390052919276,214.3390052919276,214.3390052919276,215.47205391689204,215.47205391689204,215.47205391689204,215.47205391689204,216.49116779188626,200004,006,2023-03-31_11h38.51.332,DMS_et_12-36,2022.2.4,None,
22,PRED,12,0.8678491945740778,2,images/picture_3.png,images/picture_1.png,0,"[-11.733433509789466, -11.733433509789462]",-11.733433509789464,-11.733433509789462,images/picture_2.png,1,"[11.733433509789462, -11.733433509789466]",11.733433509789462,-11.733433509789464,images/picture_3.png,2,"[-11.733433509789462, 11.733433509789464]",-11.733433509789462,11.733433509789464,0,1,1,0.8678491945740778,1.8678491945740776,1.1321508054259222,3.0,1,1.6178491945740778,0,4.0,3.0,1,2,2,0,2,0,0,2,2,4,,,,,,,216.49116779188626,216.49116779188626,217.50571208400652,218.10571162495762,218.33858574996702,218.33858574996702,218.33858574996702,219.47208162490278,219.47208162490278,219.47208162490278,219.47208162490278,220.491161624901,200004,006,2023-03-31_11h38.51.332,DMS_et_12-36,2022.2.4,None,
18,PRED,12,0.8678491945740778,2,images/picture_3.png,images/picture_1.png,0,"[-11.733433509789466, -11.733433509789462]",-11.733433509789464,-11.733433509789462,images/picture_2.png,1,"[-11.733433509789462, 11.733433509789464]",-11.733433509789462,11.733433509789464,images/picture_3.png,2,"[11.733433509789462, -11.733433509789466]",11.733433509789462,-11.733433509789464,0,1,1,0.8678491945740778,1.8678491945740776,1.1321508054259222,3.0,1,1.6178491945740778,0,4.0,3.0,1,2,2,0,2,0,0,3,3,0,,,,,,,220.491161624901,220.491161624901,221.50582345877774,222.1053882499691,222.33882479183376,222.33882479183376,222.33882479183376,223.47247454198077,223.47247454198077,223.47247454198077,223.47247454198077,224.49108724994585,200004,006,2023-03-31_11h38.51.332,DMS_et_12-36,2022.2.4,None,
23,PRED,12,0.8678491945740778,2,images/picture_3.png,images/picture_1.png,0,"[-11.733433509789466, -11.733433509789462]",-11.733433509789464,-11.733433509789462,images/picture_2.png,1,"[11.733433509789462, -11.733433509789466]",11.733433509789462,-11.733433509789464,images/picture_3.png,2,"[-11.733433509789462, 11.733433509789464]",-11.733433509789462,11.733433509789464,0,1,1,0.8678491945740778,1.8678491945740776,1.1321508054259222,3.0,1,1.6178491945740778,0,4.0,3.0,1,2,2,0,2,0,0,4,4,5,,,,,,,224.49108724994585,224.49108724994585,225.5057312499266,226.10569033399224,226.33898945897818,226.33898945897818,226.33898945897818,227.472133833915,227.472133833915,227.472133833915,227.472133833915,228.49163745879196,200004,006,2023-03-31_11h38.51.332,DMS_et_12-36,2022.2.4,None,
19,PRED,12,0.8678491945740778,2,images/picture_3.png,images/picture_1.png,0,"[11.733433509789462, -11.733433509789466]",11.733433509789462,-11.733433509789464,images/picture_2.png,1,"[11.733433509789464, 11.733433509789462]",11.733433509789464,11.733433509789462,images/picture_3.png,2,"[-11.733433509789462, 11.733433509789464]",-11.733433509789462,11.733433509789464,0,1,1,0.8678491945740778,1.8678491945740776,1.1321508054259222,3.0,1,1.6178491945740778,0,4.0,3.0,1,2,2,0,2,0,0,5,5,1,,,,,,,228.49163745879196,228.49163745879196,229.50572374998592,230.12511520879343,230.33858749992214,230.33858749992214,230.33858749992214,231.47245354182087,231.47245354182087,231.47245354182087,231.47245354182087,232.47257279185578,200004,006,2023-03-31_11h38.51.332,DMS_et_12-36,2022.2.4,None,
26,PRED,12,0.8678491945740778,2,images/picture_3.png,images/picture_1.png,0,"[11.733433509789464, 11.733433509789462]",11.733433509789464,11.733433509789462,images/picture_2.png,1,"[-11.733433509789466, -11.733433509789462]",-11.733433509789464,-11.733433509789462,images/picture_3.png,2,"[-11.733433509789462, 11.733433509789464]",-11.733433509789462,11.733433509789464,0,1,1,0.8678491945740778,1.8678491945740776,1.1321508054259222,3.0,1,1.6178491945740778,0,4.0,3.0,1,2,2,0,2,0,0,6,6,8,,,,,,,232.47257279185578,232.47257279185578,233.47215445898473,234.10575479199179,234.33902229182422,234.33902229182422,234.33902229182422,235.47245129197836,235.47245129197836,235.47245129197836,235.47245129197836,236.491180999903,200004,006,2023-03-31_11h38.51.332,DMS_et_12-36,2022.2.4,None,
25,PRED,12,0.8678491945740778,2,images/picture_3.png,images/picture_1.png,0,"[11.733433509789464, 11.733433509789462]",11.733433509789464,11.733433509789462,images/picture_2.png,1,"[11.733433509789462, -11.733433509789466]",11.733433509789462,-11.733433509789464,images/picture_3.png,2,"[-11.733433509789462, 11.733433509789464]",-11.733433509789462,11.733433509789464,0,1,1,0.8678491945740778,1.8678491945740776,1.1321508054259222,3.0,1,1.6178491945740778,0,4.0,3.0,1,2,2,0,2,0,0,7,7,7,,,,,,,236.491180999903,236.491180999903,237.50575716700405,238.10594883398153,238.33920979197137,238.33920979197137,238.33920979197137,239.47213424998336,239.47213424998336,239.47213424998336,239.47213424998336,240.49169862479903,200004,006,2023-03-31_11h38.51.332,DMS_et_12-36,2022.2.4,None,
24,PRED,12,0.8678491945740778,2,images/picture_3.png,images/picture_1.png,0,"[-11.733433509789462, 11.733433509789464]",-11.733433509789462,11.733433509789464,images/picture_2.png,1,"[-11.733433509789466, -11.733433509789462]",-11.733433509789464,-11.733433509789462,images/picture_3.png,2,"[11.733433509789462, -11.733433509789466]",11.733433509789462,-11.733433509789464,0,1,1,0.8678491945740778,1.8678491945740776,1.1321508054259222,3.0,1,1.6178491945740778,0,4.0,3.0,1,2,2,0,2,0,0,8,8,6,,,,,,,240.49169862479903,240.49169862479903,241.5057133338414,242.1253407918848,242.33868354186416,242.33868354186416,242.33868354186416,243.47227799985558,243.47227799985558,243.47227799985558,243.47227799985558,244.5128564168699,200004,006,2023-03-31_11h38.51.332,DMS_et_12-36,2022.2.4,None,
,,,,,,,,,,,,,,,,,,,,,,,,,,,,,,,,,,,2,0,2,0,,,,,,,,,244.5128564168699,256.54048466682434,,,,,,,,,,,,,200004,006,2023-03-31_11h38.51.332,DMS_et_12-36,2022.2.4,None,
27,UNPRED,12,0.8678491945740778,1,images/picture_2.png,images/picture_1.png,0,"[11.733433509789464, 11.733433509789462]",11.733433509789464,11.733433509789462,images/picture_2.png,1,"[-11.733433509789462, 11.733433509789464]",-11.733433509789462,11.733433509789464,images/picture_3.png,2,"[11.733433509789462, -11.733433509789466]",11.733433509789462,-11.733433509789464,0,1,1,0.8678491945740778,1.8678491945740776,1.1321508054259222,3.0,1,1.6178491945740778,0,4.0,3.0,1,2,3,0,3,0,0,0,0,0,,,,,,,256.54048466682434,256.54048466682434,257.5393007497769,258.17253662482835,258.40583433397114,258.40583433397114,258.40583433397114,259.53918462479487,259.53918462479487,259.53918462479487,259.53918462479487,260.55778179178014,200004,006,2023-03-31_11h38.51.332,DMS_et_12-36,2022.2.4,None,
32,UNPRED,12,0.8678491945740778,2,images/picture_3.png,images/picture_1.png,0,"[11.733433509789462, -11.733433509789466]",11.733433509789462,-11.733433509789464,images/picture_2.png,1,"[-11.733433509789466, -11.733433509789462]",-11.733433509789464,-11.733433509789462,images/picture_3.png,2,"[-11.733433509789462, 11.733433509789464]",-11.733433509789462,11.733433509789464,0,1,1,0.8678491945740778,1.8678491945740776,1.1321508054259222,3.0,1,1.6178491945740778,0,4.0,3.0,1,2,3,0,3,0,0,1,1,5,,,,,,,260.55778179178014,260.55778179178014,261.5725145419128,262.1724707498215,262.405748374993,262.405748374993,262.405748374993,263.53880504192784,263.53880504192784,263.53880504192784,263.53880504192784,264.5384487088304,200004,006,2023-03-31_11h38.51.332,DMS_et_12-36,2022.2.4,None,
29,UNPRED,12,0.8678491945740778,0,images/picture_1.png,images/picture_1.png,0,"[11.733433509789464, 11.733433509789462]",11.733433509789464,11.733433509789462,images/picture_2.png,1,"[11.733433509789462, -11.733433509789466]",11.733433509789462,-11.733433509789464,images/picture_3.png,2,"[-11.733433509789466, -11.733433509789462]",-11.733433509789464,-11.733433509789462,0,1,1,0.8678491945740778,1.8678491945740776,1.1321508054259222,3.0,1,1.6178491945740778,0,4.0,3.0,1,2,3,0,3,0,0,2,2,2,,,,,,,264.5384487088304,264.5384487088304,265.539189041825,266.15833470900543,266.4055958748795,266.4055958748795,266.4055958748795,267.53898724983446,267.53898724983446,267.53898724983446,267.53898724983446,268.558126083808,200004,006,2023-03-31_11h38.51.332,DMS_et_12-36,2022.2.4,None,
34,UNPRED,12,0.8678491945740778,2,images/picture_3.png,images/picture_1.png,0,"[11.733433509789462, -11.733433509789466]",11.733433509789462,-11.733433509789464,images/picture_2.png,1,"[-11.733433509789466, -11.733433509789462]",-11.733433509789464,-11.733433509789462,images/picture_3.png,2,"[-11.733433509789462, 11.733433509789464]",-11.733433509789462,11.733433509789464,0,1,1,0.8678491945740778,1.8678491945740776,1.1321508054259222,3.0,1,1.6178491945740778,0,4.0,3.0,1,2,3,0,3,0,0,3,3,7,,,,,,,268.558126083808,268.558126083808,269.572465374833,270.17252395884134,270.4058519168757,270.4058519168757,270.4058519168757,271.53903458383866,271.53903458383866,271.53903458383866,271.53903458383866,272.53878674982116,200004,006,2023-03-31_11h38.51.332,DMS_et_12-36,2022.2.4,None,
31,UNPRED,12,0.8678491945740778,0,images/picture_1.png,images/picture_1.png,0,"[-11.733433509789466, -11.733433509789462]",-11.733433509789464,-11.733433509789462,images/picture_2.png,1,"[11.733433509789464, 11.733433509789462]",11.733433509789464,11.733433509789462,images/picture_3.png,2,"[-11.733433509789462, 11.733433509789464]",-11.733433509789462,11.733433509789464,0,1,1,0.8678491945740778,1.8678491945740776,1.1321508054259222,3.0,1,1.6178491945740778,0,4.0,3.0,1,2,3,0,3,0,0,4,4,4,,,,,,,272.53878674982116,272.53878674982116,273.53882345883176,274.1721231669653,274.4057765000034,274.4057765000034,274.4057765000034,275.53921979200095,275.53921979200095,275.53921979200095,275.53921979200095,276.5385625839699,200004,006,2023-03-31_11h38.51.332,DMS_et_12-36,2022.2.4,None,
28,UNPRED,12,0.8678491945740778,0,images/picture_1.png,images/picture_1.png,0,"[11.733433509789464, 11.733433509789462]",11.733433509789464,11.733433509789462,images/picture_2.png,1,"[-11.733433509789466, -11.733433509789462]",-11.733433509789464,-11.733433509789462,images/picture_3.png,2,"[-11.733433509789462, 11.733433509789464]",-11.733433509789462,11.733433509789464,0,1,1,0.8678491945740778,1.8678491945740776,1.1321508054259222,3.0,1,1.6178491945740778,0,4.0,3.0,1,2,3,0,3,0,0,5,5,1,,,,,,,276.5385625839699,276.5385625839699,277.53923224983737,278.15833362494595,278.4054367088247,278.4054367088247,278.4054367088247,279.53921891679056,279.53921891679056,279.53921891679056,279.53921891679056,280.5579756249208,200004,006,2023-03-31_11h38.51.332,DMS_et_12-36,2022.2.4,None,
30,UNPRED,12,0.8678491945740778,2,images/picture_3.png,images/picture_1.png,0,"[11.733433509789464, 11.733433509789462]",11.733433509789464,11.733433509789462,images/picture_2.png,1,"[-11.733433509789462, 11.733433509789464]",-11.733433509789462,11.733433509789464,images/picture_3.png,2,"[-11.733433509789466, -11.733433509789462]",-11.733433509789464,-11.733433509789462,0,1,1,0.8678491945740778,1.8678491945740776,1.1321508054259222,3.0,1,1.6178491945740778,0,4.0,3.0,1,2,3,0,3,0,0,6,6,3,,,,,,,280.5579756249208,280.5579756249208,281.5725126247853,282.1724753337912,282.40580824995413,282.40580824995413,282.40580824995413,283.53893458400853,283.53893458400853,283.53893458400853,283.53893458400853,284.5576755418442,200004,006,2023-03-31_11h38.51.332,DMS_et_12-36,2022.2.4,None,
33,UNPRED,12,0.8678491945740778,2,images/picture_3.png,images/picture_1.png,0,"[11.733433509789464, 11.733433509789462]",11.733433509789464,11.733433509789462,images/picture_2.png,1,"[-11.733433509789466, -11.733433509789462]",-11.733433509789464,-11.733433509789462,images/picture_3.png,2,"[-11.733433509789462, 11.733433509789464]",-11.733433509789462,11.733433509789464,0,1,1,0.8678491945740778,1.8678491945740776,1.1321508054259222,3.0,1,1.6178491945740778,0,4.0,3.0,1,2,3,0,3,0,0,7,7,6,,,,,,,284.5576755418442,284.5576755418442,285.57251570886,286.17252929182723,286.4057939168997,286.4057939168997,286.4057939168997,287.5391815418843,287.5391815418843,287.5391815418843,287.5391815418843,288.5399467498064,200004,006,2023-03-31_11h38.51.332,DMS_et_12-36,2022.2.4,None,
35,UNPRED,12,0.8678491945740778,1,images/picture_2.png,images/picture_1.png,0,"[11.733433509789462, -11.733433509789466]",11.733433509789462,-11.733433509789464,images/picture_2.png,1,"[-11.733433509789466, -11.733433509789462]",-11.733433509789464,-11.733433509789462,images/picture_3.png,2,"[11.733433509789464, 11.733433509789462]",11.733433509789464,11.733433509789462,0,1,1,0.8678491945740778,1.8678491945740776,1.1321508054259222,3.0,1,1.6178491945740778,0,4.0,3.0,1,2,3,0,3,0,0,8,8,8,,,,,,,288.5399467498064,288.5399467498064,289.53917095880024,290.1726012500003,290.4053404999431,290.4053404999431,290.4053404999431,291.5391901668627,291.5391901668627,291.5391901668627,291.5391901668627,292.5883425839711,200004,006,2023-03-31_11h38.51.332,DMS_et_12-36,2022.2.4,None,
,,,,,,,,,,,,,,,,,,,,,,,,,,,,,,,,,,,3,0,3,0,,,,,,,,,292.5883425839711,304.5948859169148,,,,,,,,,,,,,200004,006,2023-03-31_11h38.51.332,DMS_et_12-36,2022.2.4,None,
40,PRED,12,0.8678491945740778,0,images/picture_1.png,images/picture_1.png,0,"[-11.733433509789462, 11.733433509789464]",-11.733433509789462,11.733433509789464,images/picture_2.png,1,"[-11.733433509789466, -11.733433509789462]",-11.733433509789464,-11.733433509789462,images/picture_3.png,2,"[11.733433509789464, 11.733433509789462]",11.733433509789464,11.733433509789462,0,1,1,0.8678491945740778,1.8678491945740776,1.1321508054259222,3.0,1,1.6178491945740778,0,4.0,3.0,1,2,4,0,4,0,0,0,0,4,,,,,,,304.5948859169148,304.5948859169148,305.60600674990565,306.225760958856,306.45843524998054,306.45843524998054,306.45843524998054,307.60599508392625,307.60599508392625,307.60599508392625,307.5917313338723,308.60545508400537,200004,006,2023-03-31_11h38.51.332,DMS_et_12-36,2022.2.4,None,
36,PRED,12,0.8678491945740778,0,images/picture_1.png,images/picture_1.png,0,"[-11.733433509789466, -11.733433509789462]",-11.733433509789464,-11.733433509789462,images/picture_2.png,1,"[11.733433509789462, -11.733433509789466]",11.733433509789462,-11.733433509789464,images/picture_3.png,2,"[11.733433509789464, 11.733433509789462]",11.733433509789464,11.733433509789462,0,1,1,0.8678491945740778,1.8678491945740776,1.1321508054259222,3.0,1,1.6178491945740778,0,4.0,3.0,1,2,4,0,4,0,0,1,1,0,,,,,,,308.60545508400537,308.60545508400537,309.60604254179634,310.22518508392386,310.47253479179926,310.47253479179926,310.47253479179926,311.60594120877795,311.60594120877795,311.60594120877795,311.60594120877795,312.60559920896776,200004,006,2023-03-31_11h38.51.332,DMS_et_12-36,2022.2.4,None,
44,PRED,12,0.8678491945740778,0,images/picture_1.png,images/picture_1.png,0,"[11.733433509789462, -11.733433509789466]",11.733433509789462,-11.733433509789464,images/picture_2.png,1,"[-11.733433509789462, 11.733433509789464]",-11.733433509789462,11.733433509789464,images/picture_3.png,2,"[11.733433509789464, 11.733433509789462]",11.733433509789464,11.733433509789462,0,1,1,0.8678491945740778,1.8678491945740776,1.1321508054259222,3.0,1,1.6178491945740778,0,4.0,3.0,1,2,4,0,4,0,0,2,2,8,,,,,,,312.60559920896776,312.60559920896776,313.605778374942,314.22522908379324,314.4720320838969,314.4720320838969,314.4720320838969,315.605740416795,315.605740416795,315.605740416795,315.605740416795,316.6055343749467,200004,006,2023-03-31_11h38.51.332,DMS_et_12-36,2022.2.4,None,
43,PRED,12,0.8678491945740778,0,images/picture_1.png,images/picture_1.png,0,"[-11.733433509789462, 11.733433509789464]",-11.733433509789462,11.733433509789464,images/picture_2.png,1,"[-11.733433509789466, -11.733433509789462]",-11.733433509789464,-11.733433509789462,images/picture_3.png,2,"[11.733433509789464, 11.733433509789462]",11.733433509789464,11.733433509789462,0,1,1,0.8678491945740778,1.8678491945740776,1.1321508054259222,3.0,1,1.6178491945740778,0,4.0,3.0,1,2,4,0,4,0,0,3,3,7,,,,,,,316.6055343749467,316.6055343749467,317.6059900838882,318.2252751667984,318.47250012494624,318.47250012494624,318.47250012494624,319.60580770880915,319.60580770880915,319.60580770880915,319.60580770880915,320.60542358388193,200004,006,2023-03-31_11h38.51.332,DMS_et_12-36,2022.2.4,None,
37,PRED,12,0.8678491945740778,0,images/picture_1.png,images/picture_1.png,0,"[11.733433509789464, 11.733433509789462]",11.733433509789464,11.733433509789462,images/picture_2.png,1,"[-11.733433509789462, 11.733433509789464]",-11.733433509789462,11.733433509789464,images/picture_3.png,2,"[11.733433509789462, -11.733433509789466]",11.733433509789462,-11.733433509789464,0,1,1,0.8678491945740778,1.8678491945740776,1.1321508054259222,3.0,1,1.6178491945740778,0,4.0,3.0,1,2,4,0,4,0,0,4,4,1,,,,,,,320.60542358388193,320.60542358388193,321.6058066249825,322.2250708749052,322.4724928748328,322.4724928748328,322.4724928748328,323.6059957088437,323.6059957088437,323.6059957088437,323.6059957088437,324.6054678338114,200004,006,2023-03-31_11h38.51.332,DMS_et_12-36,2022.2.4,None,
39,PRED,12,0.8678491945740778,0,images/picture_1.png,images/picture_1.png,0,"[11.733433509789462, -11.733433509789466]",11.733433509789462,-11.733433509789464,images/picture_2.png,1,"[-11.733433509789466, -11.733433509789462]",-11.733433509789464,-11.733433509789462,images/picture_3.png,2,"[11.733433509789464, 11.733433509789462]",11.733433509789464,11.733433509789462,0,1,1,0.8678491945740778,1.8678491945740776,1.1321508054259222,3.0,1,1.6178491945740778,0,4.0,3.0,1,2,4,0,4,0,0,5,5,3,,,,,,,324.6054678338114,324.6054678338114,325.6054627499543,326.22520170896314,326.4721144998912,326.4721144998912,326.4721144998912,327.6057875419501,327.6057875419501,327.6057875419501,327.6057875419501,328.6053290418349,200004,006,2023-03-31_11h38.51.332,DMS_et_12-36,2022.2.4,None,
38,PRED,12,0.8678491945740778,0,images/picture_1.png,images/picture_1.png,0,"[-11.733433509789466, -11.733433509789462]",-11.733433509789464,-11.733433509789462,images/picture_2.png,1,"[-11.733433509789462, 11.733433509789464]",-11.733433509789462,11.733433509789464,images/picture_3.png,2,"[11.733433509789462, -11.733433509789466]",11.733433509789462,-11.733433509789464,0,1,1,0.8678491945740778,1.8678491945740776,1.1321508054259222,3.0,1,1.6178491945740778,0,4.0,3.0,1,2,4,0,4,0,0,6,6,2,,,,,,,328.6053290418349,328.6053290418349,329.6059488749597,330.22515924996696,330.47260462492704,330.47260462492704,330.47260462492704,331.6058045839891,331.6058045839891,331.6058045839891,331.6058045839891,332.60552620887756,200004,006,2023-03-31_11h38.51.332,DMS_et_12-36,2022.2.4,None,
41,PRED,12,0.8678491945740778,0,images/picture_1.png,images/picture_1.png,0,"[-11.733433509789466, -11.733433509789462]",-11.733433509789464,-11.733433509789462,images/picture_2.png,1,"[-11.733433509789462, 11.733433509789464]",-11.733433509789462,11.733433509789464,images/picture_3.png,2,"[11.733433509789464, 11.733433509789462]",11.733433509789464,11.733433509789462,0,1,1,0.8678491945740778,1.8678491945740776,1.1321508054259222,3.0,1,1.6178491945740778,0,4.0,3.0,1,2,4,0,4,0,0,7,7,5,,,,,,,332.60552620887756,332.60552620887756,333.6057868748903,334.22518791700713,334.4725137499627,334.4725137499627,334.4725137499627,335.6058452499565,335.6058452499565,335.6058452499565,335.6058452499565,336.6057420419529,200004,006,2023-03-31_11h38.51.332,DMS_et_12-36,2022.2.4,None,
42,PRED,12,0.8678491945740778,0,images/picture_1.png,images/picture_1.png,0,"[-11.733433509789466, -11.733433509789462]",-11.733433509789464,-11.733433509789462,images/picture_2.png,1,"[11.733433509789464, 11.733433509789462]",11.733433509789464,11.733433509789462,images/picture_3.png,2,"[-11.733433509789462, 11.733433509789464]",-11.733433509789462,11.733433509789464,0,1,1,0.8678491945740778,1.8678491945740776,1.1321508054259222,3.0,1,1.6178491945740778,0,4.0,3.0,1,2,4,0,4,0,0,8,8,6,,,,,,,336.6057420419529,336.6057420419529,337.6059805417899,338.2250396248419,338.4725120838266,338.4725120838266,338.4725120838266,339.6060294169001,339.6060294169001,339.6060294169001,339.6060294169001,340.66566066700034,200004,006,2023-03-31_11h38.51.332,DMS_et_12-36,2022.2.4,None,
,,,,,,,,,,,,,,,,,,,,,,,,,,,,,,,,,,,4,0,4,0,,,,,,,,,340.66566066700034,352.69899449986406,,,,,,,,,,,,,200004,006,2023-03-31_11h38.51.332,DMS_et_12-36,2022.2.4,None,
50,UNPRED,12,0.8678491945740778,2,images/picture_3.png,images/picture_1.png,0,"[11.733433509789462, -11.733433509789466]",11.733433509789462,-11.733433509789464,images/picture_2.png,1,"[-11.733433509789462, 11.733433509789464]",-11.733433509789462,11.733433509789464,images/picture_3.png,2,"[11.733433509789464, 11.733433509789462]",11.733433509789464,11.733433509789462,0,1,1,0.8678491945740778,1.8678491945740776,1.1321508054259222,3.0,1,1.6178491945740778,0,4.0,3.0,1,2,5,0,5,0,0,0,0,5,,,,,,,352.69899449986406,352.69899449986406,353.7059959168546,354.32509608380497,354.55860279197805,354.55860279197805,354.55860279197805,355.7056933748536,355.7056933748536,355.7056933748536,355.69111879193224,356.7245282919612,200004,006,2023-03-31_11h38.51.332,DMS_et_12-36,2022.2.4,None,
53,UNPRED,12,0.8678491945740778,1,images/picture_2.png,images/picture_1.png,0,"[-11.733433509789462, 11.733433509789464]",-11.733433509789462,11.733433509789464,images/picture_2.png,1,"[11.733433509789462, -11.733433509789466]",11.733433509789462,-11.733433509789464,images/picture_3.png,2,"[11.733433509789464, 11.733433509789462]",11.733433509789464,11.733433509789462,0,1,1,0.8678491945740778,1.8678491945740776,1.1321508054259222,3.0,1,1.6178491945740778,0,4.0,3.0,1,2,5,0,5,0,0,1,1,8,,,,,,,356.7245282919612,356.7245282919612,357.73922233399935,358.33919183397666,358.5724739169236,358.5724739169236,358.5724739169236,359.70601974986494,359.70601974986494,359.70601974986494,359.70601974986494,360.7053354589734,200004,006,2023-03-31_11h38.51.332,DMS_et_12-36,2022.2.4,None,
52,UNPRED,12,0.8678491945740778,1,images/picture_2.png,images/picture_1.png,0,"[-11.733433509789462, 11.733433509789464]",-11.733433509789462,11.733433509789464,images/picture_2.png,1,"[-11.733433509789466, -11.733433509789462]",-11.733433509789464,-11.733433509789462,images/picture_3.png,2,"[11.733433509789464, 11.733433509789462]",11.733433509789464,11.733433509789462,0,1,1,0.8678491945740778,1.8678491945740776,1.1321508054259222,3.0,1,1.6178491945740778,0,4.0,3.0,1,2,5,0,5,0,0,2,2,7,,,,,,,360.7053354589734,360.7053354589734,361.7059952088166,362.3255587918684,362.57251729187556,362.57251729187556,362.57251729187556,363.7059435839765,363.7059435839765,363.7059435839765,363.7059435839765,364.7053840837907,200004,006,2023-03-31_11h38.51.332,DMS_et_12-36,2022.2.4,None,
47,UNPRED,12,0.8678491945740778,0,images/picture_1.png,images/picture_1.png,0,"[-11.733433509789466, -11.733433509789462]",-11.733433509789464,-11.733433509789462,images/picture_2.png,1,"[11.733433509789462, -11.733433509789466]",11.733433509789462,-11.733433509789464,images/picture_3.png,2,"[11.733433509789464, 11.733433509789462]",11.733433509789464,11.733433509789462,0,1,1,0.8678491945740778,1.8678491945740776,1.1321508054259222,3.0,1,1.6178491945740778,0,4.0,3.0,1,2,5,0,5,0,0,3,3,2,,,,,,,364.7053840837907,364.7053840837907,365.7057526248973,366.32446579192765,366.5724772498943,366.5724772498943,366.5724772498943,367.70593533385545,367.70593533385545,367.70593533385545,367.70593533385545,368.70563716697507,200004,006,2023-03-31_11h38.51.332,DMS_et_12-36,2022.2.4,None,
45,UNPRED,12,0.8678491945740778,0,images/picture_1.png,images/picture_1.png,0,"[-11.733433509789466, -11.733433509789462]",-11.733433509789464,-11.733433509789462,images/picture_2.png,1,"[11.733433509789462, -11.733433509789466]",11.733433509789462,-11.733433509789464,images/picture_3.png,2,"[11.733433509789464, 11.733433509789462]",11.733433509789464,11.733433509789462,0,1,1,0.8678491945740778,1.8678491945740776,1.1321508054259222,3.0,1,1.6178491945740778,0,4.0,3.0,1,2,5,0,5,0,0,4,4,0,,,,,,,368.70563716697507,368.70563716697507,369.7060106249992,370.339255791856,370.57273754198104,370.57273754198104,370.57273754198104,371.70592962484807,371.70592962484807,371.70592962484807,371.70592962484807,372.7248476247769,200004,006,2023-03-31_11h38.51.332,DMS_et_12-36,2022.2.4,None,
46,UNPRED,12,0.8678491945740778,2,images/picture_3.png,images/picture_1.png,0,"[-11.733433509789466, -11.733433509789462]",-11.733433509789464,-11.733433509789462,images/picture_2.png,1,"[11.733433509789462, -11.733433509789466]",11.733433509789462,-11.733433509789464,images/picture_3.png,2,"[-11.733433509789462, 11.733433509789464]",-11.733433509789462,11.733433509789464,0,1,1,0.8678491945740778,1.8678491945740776,1.1321508054259222,3.0,1,1.6178491945740778,0,4.0,3.0,1,2,5,0,5,0,0,5,5,1,,,,,,,372.7248476247769,372.7248476247769,373.7393593748566,374.33885666681454,374.5725408748258,374.5725408748258,374.5725408748258,375.70596508379094,375.70596508379094,375.70596508379094,375.70596508379094,376.7055654588621,200004,006,2023-03-31_11h38.51.332,DMS_et_12-36,2022.2.4,None,
48,UNPRED,12,0.8678491945740778,1,images/picture_2.png,images/picture_1.png,0,"[11.733433509789464, 11.733433509789462]",11.733433509789464,11.733433509789462,images/picture_2.png,1,"[-11.733433509789462, 11.733433509789464]",-11.733433509789462,11.733433509789464,images/picture_3.png,2,"[11.733433509789462, -11.733433509789466]",11.733433509789462,-11.733433509789464,0,1,1,0.8678491945740778,1.8678491945740776,1.1321508054259222,3.0,1,1.6178491945740778,0,4.0,3.0,1,2,5,0,5,0,0,6,6,3,,,,,,,376.7055654588621,376.7055654588621,377.70592295890674,378.3251017499715,378.5727020839695,378.5727020839695,378.5727020839695,379.70579437492415,379.70579437492415,379.70579437492415,379.70579437492415,380.7053937090095,200004,006,2023-03-31_11h38.51.332,DMS_et_12-36,2022.2.4,None,
49,UNPRED,12,0.8678491945740778,1,images/picture_2.png,images/picture_1.png,0,"[-11.733433509789462, 11.733433509789464]",-11.733433509789462,11.733433509789464,images/picture_2.png,1,"[-11.733433509789466, -11.733433509789462]",-11.733433509789464,-11.733433509789462,images/picture_3.png,2,"[11.733433509789462, -11.733433509789466]",11.733433509789462,-11.733433509789464,0,1,1,0.8678491945740778,1.8678491945740776,1.1321508054259222,3.0,1,1.6178491945740778,0,4.0,3.0,1,2,5,0,5,0,0,7,7,4,,,,,,,380.7053937090095,380.7053937090095,381.7060155000072,382.3255067919381,382.572488916805,382.572488916805,382.572488916805,383.70609254180454,383.70609254180454,383.70609254180454,383.70609254180454,384.705526458798,200004,006,2023-03-31_11h38.51.332,DMS_et_12-36,2022.2.4,None,
51,UNPRED,12,0.8678491945740778,0,images/picture_1.png,images/picture_1.png,0,"[11.733433509789464, 11.733433509789462]",11.733433509789464,11.733433509789462,images/picture_2.png,1,"[-11.733433509789462, 11.733433509789464]",-11.733433509789462,11.733433509789464,images/picture_3.png,2,"[-11.733433509789466, -11.733433509789462]",-11.733433509789464,-11.733433509789462,0,1,1,0.8678491945740778,1.8678491945740776,1.1321508054259222,3.0,1,1.6178491945740778,0,4.0,3.0,1,2,5,0,5,0,0,8,8,6,,,,,,,384.705526458798,384.705526458798,385.7060454587918,386.32453112490475,386.57232279190794,386.57232279190794,386.57232279190794,387.70598545880057,387.70598545880057,387.70598545880057,387.70598545880057,388.7749451249838,200004,006,2023-03-31_11h38.51.332,DMS_et_12-36,2022.2.4,None,
,,,,,,,,,,,,,,,,,,,,,,,,,,,,,,,,,,,5,0,5,0,,,,,,,,,388.7749451249838,400.8017882499844,,,,,,,,,,,,,200004,006,2023-03-31_11h38.51.332,DMS_et_12-36,2022.2.4,None,
62,PRED,12,0.8678491945740778,2,images/picture_3.png,images/picture_1.png,0,"[11.733433509789464, 11.733433509789462]",11.733433509789464,11.733433509789462,images/picture_2.png,1,"[-11.733433509789462, 11.733433509789464]",-11.733433509789462,11.733433509789464,images/picture_3.png,2,"[11.733433509789462, -11.733433509789466]",11.733433509789462,-11.733433509789464,0,1,1,0.8678491945740778,1.8678491945740776,1.1321508054259222,3.0,1,1.6178491945740778,0,4.0,3.0,1,2,6,0,6,0,0,0,0,8,,,,,,,400.8017882499844,400.8017882499844,401.8060098339338,402.42534299986437,402.65881079179235,402.65881079179235,402.65881079179235,403.8059745419305,403.8059745419305,403.8059745419305,403.7918864998501,404.8248197499197,200004,006,2023-03-31_11h38.51.332,DMS_et_12-36,2022.2.4,None,
59,PRED,12,0.8678491945740778,2,images/picture_3.png,images/picture_1.png,0,"[11.733433509789464, 11.733433509789462]",11.733433509789464,11.733433509789462,images/picture_2.png,1,"[-11.733433509789466, -11.733433509789462]",-11.733433509789464,-11.733433509789462,images/picture_3.png,2,"[11.733433509789462, -11.733433509789466]",11.733433509789462,-11.733433509789464,0,1,1,0.8678491945740778,1.8678491945740776,1.1321508054259222,3.0,1,1.6178491945740778,0,4.0,3.0,1,2,6,0,6,0,0,1,1,5,,,,,,,404.8248197499197,404.8248197499197,405.83881074981764,406.4394801668823,406.6723869589623,406.6723869589623,406.6723869589623,407.80592104187235,407.80592104187235,407.80592104187235,407.80592104187235,408.8248884999193,200004,006,2023-03-31_11h38.51.332,DMS_et_12-36,2022.2.4,None,
54,PRED,12,0.8678491945740778,2,images/picture_3.png,images/picture_1.png,0,"[-11.733433509789466, -11.733433509789462]",-11.733433509789464,-11.733433509789462,images/picture_2.png,1,"[11.733433509789462, -11.733433509789466]",11.733433509789462,-11.733433509789464,images/picture_3.png,2,"[-11.733433509789462, 11.733433509789464]",-11.733433509789462,11.733433509789464,0,1,1,0.8678491945740778,1.8678491945740776,1.1321508054259222,3.0,1,1.6178491945740778,0,4.0,3.0,1,2,6,0,6,0,0,2,2,0,,,,,,,408.8248884999193,408.8248884999193,409.8393189997878,410.458618249977,410.6724925839808,410.6724925839808,410.6724925839808,411.80585937481374,411.80585937481374,411.80585937481374,411.80585937481374,412.8249132919591,200004,006,2023-03-31_11h38.51.332,DMS_et_12-36,2022.2.4,None,
56,PRED,12,0.8678491945740778,2,images/picture_3.png,images/picture_1.png,0,"[11.733433509789464, 11.733433509789462]",11.733433509789464,11.733433509789462,images/picture_2.png,1,"[-11.733433509789462, 11.733433509789464]",-11.733433509789462,11.733433509789464,images/picture_3.png,2,"[11.733433509789462, -11.733433509789466]",11.733433509789462,-11.733433509789464,0,1,1,0.8678491945740778,1.8678491945740776,1.1321508054259222,3.0,1,1.6178491945740778,0,4.0,3.0,1,2,6,0,6,0,0,3,3,2,,,,,,,412.8249132919591,412.8249132919591,413.83924874989316,414.43928474979475,414.6728807918262,414.6728807918262,414.6728807918262,415.8060271667782,415.8060271667782,415.8060271667782,415.8060271667782,416.82492291694507,200004,006,2023-03-31_11h38.51.332,DMS_et_12-36,2022.2.4,None,
55,PRED,12,0.8678491945740778,2,images/picture_3.png,images/picture_1.png,0,"[11.733433509789462, -11.733433509789466]",11.733433509789462,-11.733433509789464,images/picture_2.png,1,"[11.733433509789464, 11.733433509789462]",11.733433509789464,11.733433509789462,images/picture_3.png,2,"[-11.733433509789462, 11.733433509789464]",-11.733433509789462,11.733433509789464,0,1,1,0.8678491945740778,1.8678491945740776,1.1321508054259222,3.0,1,1.6178491945740778,0,4.0,3.0,1,2,6,0,6,0,0,4,4,1,,,,,,,416.82492291694507,416.82492291694507,417.83884908398613,418.4394826667849,418.6726849998813,418.6726849998813,418.6726849998813,419.80594570888206,419.80594570888206,419.80594570888206,419.80594570888206,420.82471929187886,200004,006,2023-03-31_11h38.51.332,DMS_et_12-36,2022.2.4,None,
57,PRED,12,0.8678491945740778,2,images/picture_3.png,images/picture_1.png,0,"[11.733433509789462, -11.733433509789466]",11.733433509789462,-11.733433509789464,images/picture_2.png,1,"[-11.733433509789462, 11.733433509789464]",-11.733433509789462,11.733433509789464,images/picture_3.png,2,"[11.733433509789464, 11.733433509789462]",11.733433509789464,11.733433509789462,0,1,1,0.8678491945740778,1.8678491945740776,1.1321508054259222,3.0,1,1.6178491945740778,0,4.0,3.0,1,2,6,0,6,0,0,5,5,3,,,,,,,420.82471929187886,420.82471929187886,421.83924774988554,422.4390956668649,422.67253079195507,422.67253079195507,422.67253079195507,423.8061639589723,423.8061639589723,423.8061639589723,423.8061639589723,424.8246916248463,200004,006,2023-03-31_11h38.51.332,DMS_et_12-36,2022.2.4,None,
60,PRED,12,0.8678491945740778,2,images/picture_3.png,images/picture_1.png,0,"[-11.733433509789466, -11.733433509789462]",-11.733433509789464,-11.733433509789462,images/picture_2.png,1,"[-11.733433509789462, 11.733433509789464]",-11.733433509789462,11.733433509789464,images/picture_3.png,2,"[11.733433509789464, 11.733433509789462]",11.733433509789464,11.733433509789462,0,1,1,0.8678491945740778,1.8678491945740776,1.1321508054259222,3.0,1,1.6178491945740778,0,4.0,3.0,1,2,6,0,6,0,0,6,6,6,,,,,,,424.8246916248463,424.8246916248463,425.83923608390614,426.4392234168481,426.67268554191105,426.67268554191105,426.67268554191105,427.80572612490505,427.80572612490505,427.80572612490505,427.80572612490505,428.8249244589824,200004,006,2023-03-31_11h38.51.332,DMS_et_12-36,2022.2.4,None,
58,PRED,12,0.8678491945740778,2,images/picture_3.png,images/picture_1.png,0,"[-11.733433509789466, -11.733433509789462]",-11.733433509789464,-11.733433509789462,images/picture_2.png,1,"[-11.733433509789462, 11.733433509789464]",-11.733433509789462,11.733433509789464,images/picture_3.png,2,"[11.733433509789464, 11.733433509789462]",11.733433509789464,11.733433509789462,0,1,1,0.8678491945740778,1.8678491945740776,1.1321508054259222,3.0,1,1.6178491945740778,0,4.0,3.0,1,2,6,0,6,0,0,7,7,4,,,,,,,428.8249244589824,428.8249244589824,429.8388850418851,430.4394602498505,430.67269624979235,430.67269624979235,430.67269624979235,431.80600495892577,431.80600495892577,431.80600495892577,431.80600495892577,432.82486487482674,200004,006,2023-03-31_11h38.51.332,DMS_et_12-36,2022.2.4,None,
61,PRED,12,0.8678491945740778,2,images/picture_3.png,images/picture_1.png,0,"[11.733433509789464, 11.733433509789462]",11.733433509789464,11.733433509789462,images/picture_2.png,1,"[11.733433509789462, -11.733433509789466]",11.733433509789462,-11.733433509789464,images/picture_3.png,2,"[-11.733433509789466, -11.733433509789462]",-11.733433509789464,-11.733433509789462,0,1,1,0.8678491945740778,1.8678491945740776,1.1321508054259222,3.0,1,1.6178491945740778,0,4.0,3.0,1,2,6,0,6,0,0,8,8,7,,,,,,,432.82486487482674,432.82486487482674,433.8394262918737,434.43886874988675,434.6727270418778,434.6727270418778,434.6727270418778,435.80615999992006,435.80615999992006,435.80615999992006,435.80615999992006,436.8844034168869,200004,006,2023-03-31_11h38.51.332,DMS_et_12-36,2022.2.4,None,
,,,,,,,,,,,,,,,,,,,,,,,,,,,,,,,,,,,6,0,6,0,,,,,,,,,436.8844034168869,448.92303399997763,,,,,,,,,,,,,200004,006,2023-03-31_11h38.51.332,DMS_et_12-36,2022.2.4,None,
67,UNPRED,12,0.8678491945740778,2,images/picture_3.png,images/picture_1.png,0,"[-11.733433509789462, 11.733433509789464]",-11.733433509789462,11.733433509789464,images/picture_2.png,1,"[-11.733433509789466, -11.733433509789462]",-11.733433509789464,-11.733433509789462,images/picture_3.png,2,"[11.733433509789462, -11.733433509789466]",11.733433509789462,-11.733433509789464,0,1,1,0.8678491945740778,1.8678491945740776,1.1321508054259222,3.0,1,1.6178491945740778,0,4.0,3.0,1,2,7,0,7,0,0,0,0,4,,,,,,,448.92303399997763,448.92303399997763,449.92512816679664,450.53899270878173,450.772521458799,450.772521458799,450.772521458799,451.90569566679187,451.90569566679187,451.90569566679187,451.90569566679187,452.9061351248529,200004,006,2023-03-31_11h38.51.332,DMS_et_12-36,2022.2.4,None,
68,UNPRED,12,0.8678491945740778,1,images/picture_2.png,images/picture_1.png,0,"[-11.733433509789462, 11.733433509789464]",-11.733433509789462,11.733433509789464,images/picture_2.png,1,"[11.733433509789462, -11.733433509789466]",11.733433509789462,-11.733433509789464,images/picture_3.png,2,"[11.733433509789464, 11.733433509789462]",11.733433509789464,11.733433509789462,0,1,1,0.8678491945740778,1.8678491945740776,1.1321508054259222,3.0,1,1.6178491945740778,0,4.0,3.0,1,2,7,0,7,0,0,1,1,5,,,,,,,452.9061351248529,452.9061351248529,453.905344291823,454.53902179189026,454.7725772918202,454.7725772918202,454.7725772918202,455.90569916693494,455.90569916693494,455.90569916693494,455.90569916693494,456.9051923339721,200004,006,2023-03-31_11h38.51.332,DMS_et_12-36,2022.2.4,None,
70,UNPRED,12,0.8678491945740778,0,images/picture_1.png,images/picture_1.png,0,"[-11.733433509789466, -11.733433509789462]",-11.733433509789464,-11.733433509789462,images/picture_2.png,1,"[-11.733433509789462, 11.733433509789464]",-11.733433509789462,11.733433509789464,images/picture_3.png,2,"[11.733433509789462, -11.733433509789466]",11.733433509789462,-11.733433509789464,0,1,1,0.8678491945740778,1.8678491945740776,1.1321508054259222,3.0,1,1.6178491945740778,0,4.0,3.0,1,2,7,0,7,0,0,2,2,7,,,,,,,456.9051923339721,456.9051923339721,457.9057627089787,458.52439804188907,458.77225183392875,458.77225183392875,458.77225183392875,459.90531566692516,459.90531566692516,459.90531566692516,459.90531566692516,460.9250068338588,200004,006,2023-03-31_11h38.51.332,DMS_et_12-36,2022.2.4,None,
64,UNPRED,12,0.8678491945740778,2,images/picture_3.png,images/picture_1.png,0,"[-11.733433509789462, 11.733433509789464]",-11.733433509789462,11.733433509789464,images/picture_2.png,1,"[-11.733433509789466, -11.733433509789462]",-11.733433509789464,-11.733433509789462,images/picture_3.png,2,"[11.733433509789464, 11.733433509789462]",11.733433509789464,11.733433509789462,0,1,1,0.8678491945740778,1.8678491945740776,1.1321508054259222,3.0,1,1.6178491945740778,0,4.0,3.0,1,2,7,0,7,0,0,3,3,1,,,,,,,460.9250068338588,460.9250068338588,461.9389979587868,462.55832087481394,462.77254108386114,462.77254108386114,462.77254108386114,463.905698124785,463.905698124785,463.905698124785,463.905698124785,464.9244557088241,200004,006,2023-03-31_11h38.51.332,DMS_et_12-36,2022.2.4,None,
65,UNPRED,12,0.8678491945740778,2,images/picture_3.png,images/picture_1.png,0,"[-11.733433509789462, 11.733433509789464]",-11.733433509789462,11.733433509789464,images/picture_2.png,1,"[11.733433509789464, 11.733433509789462]",11.733433509789464,11.733433509789462,images/picture_3.png,2,"[-11.733433509789466, -11.733433509789462]",-11.733433509789464,-11.733433509789462,0,1,1,0.8678491945740778,1.8678491945740776,1.1321508054259222,3.0,1,1.6178491945740778,0,4.0,3.0,1,2,7,0,7,0,0,4,4,2,,,,,,,464.9244557088241,464.9244557088241,465.93885812489316,466.5391604169272,466.772463375004,466.772463375004,466.772463375004,467.90579499979503,467.90579499979503,467.90579499979503,467.90579499979503,468.90526583394967,200004,006,2023-03-31_11h38.51.332,DMS_et_12-36,2022.2.4,None,
71,UNPRED,12,0.8678491945740778,0,images/picture_1.png,images/picture_1.png,0,"[11.733433509789464, 11.733433509789462]",11.733433509789464,11.733433509789462,images/picture_2.png,1,"[-11.733433509789462, 11.733433509789464]",-11.733433509789462,11.733433509789464,images/picture_3.png,2,"[-11.733433509789466, -11.733433509789462]",-11.733433509789464,-11.733433509789462,0,1,1,0.8678491945740778,1.8678491945740776,1.1321508054259222,3.0,1,1.6178491945740778,0,4.0,3.0,1,2,7,0,7,0,0,5,5,8,,,,,,,468.90526583394967,468.90526583394967,469.90574541687965,470.52494699996896,470.772488999879,470.772488999879,470.772488999879,471.9056067499332,471.9056067499332,471.9056067499332,471.9056067499332,472.9061626668554,200004,006,2023-03-31_11h38.51.332,DMS_et_12-36,2022.2.4,None,
69,UNPRED,12,0.8678491945740778,1,images/picture_2.png,images/picture_1.png,0,"[11.733433509789462, -11.733433509789466]",11.733433509789462,-11.733433509789464,images/picture_2.png,1,"[-11.733433509789462, 11.733433509789464]",-11.733433509789462,11.733433509789464,images/picture_3.png,2,"[-11.733433509789466, -11.733433509789462]",-11.733433509789464,-11.733433509789462,0,1,1,0.8678491945740778,1.8678491945740776,1.1321508054259222,3.0,1,1.6178491945740778,0,4.0,3.0,1,2,7,0,7,0,0,6,6,6,,,,,,,472.9061626668554,472.9061626668554,473.90577783389017,474.5391834168695,474.7724351249635,474.7724351249635,474.7724351249635,475.9053039168939,475.9053039168939,475.9053039168939,475.9053039168939,476.9242899999954,200004,006,2023-03-31_11h38.51.332,DMS_et_12-36,2022.2.4,None,
63,UNPRED,12,0.8678491945740778,2,images/picture_3.png,images/picture_1.png,0,"[-11.733433509789462, 11.733433509789464]",-11.733433509789462,11.733433509789464,images/picture_2.png,1,"[-11.733433509789466, -11.733433509789462]",-11.733433509789464,-11.733433509789462,images/picture_3.png,2,"[11.733433509789462, -11.733433509789466]",11.733433509789462,-11.733433509789464,0,1,1,0.8678491945740778,1.8678491945740776,1.1321508054259222,3.0,1,1.6178491945740778,0,4.0,3.0,1,2,7,0,7,0,0,7,7,0,,,,,,,476.9242899999954,476.9242899999954,477.9388144589029,478.55825366685167,478.7719963339623,478.7719963339623,478.7719963339623,479.90577737498097,479.90577737498097,479.90577737498097,479.90577737498097,480.905183958821,200004,006,2023-03-31_11h38.51.332,DMS_et_12-36,2022.2.4,None,
66,UNPRED,12,0.8678491945740778,1,images/picture_2.png,images/picture_1.png,0,"[11.733433509789464, 11.733433509789462]",11.733433509789464,11.733433509789462,images/picture_2.png,1,"[-11.733433509789466, -11.733433509789462]",-11.733433509789464,-11.733433509789462,images/picture_3.png,2,"[-11.733433509789462, 11.733433509789464]",-11.733433509789462,11.733433509789464,0,1,1,0.8678491945740778,1.8678491945740776,1.1321508054259222,3.0,1,1.6178491945740778,0,4.0,3.0,1,2,7,0,7,0,0,8,8,3,,,,,,,480.905183958821,480.905183958821,481.9057460417971,482.5390499169007,482.77247341698967,482.77247341698967,482.77247341698967,483.90552441682667,483.90552441682667,483.90552441682667,483.90552441682667,484.9923606249504,200004,006,2023-03-31_11h38.51.332,DMS_et_12-36,2022.2.4,None,
,,,,,,,,,,,,,,,,,,,,,,,,,,,,,,,,,,,7,0,7,0,,,,,,,,,484.9923606249504,497.02548416680656,,,,,,,,,,,,,200004,006,2023-03-31_11h38.51.332,DMS_et_12-36,2022.2.4,None,
76,PRED,12,0.8678491945740778,0,images/picture_1.png,images/picture_1.png,0,"[11.733433509789464, 11.733433509789462]",11.733433509789464,11.733433509789462,images/picture_2.png,1,"[-11.733433509789462, 11.733433509789464]",-11.733433509789462,11.733433509789464,images/picture_3.png,2,"[11.733433509789462, -11.733433509789466]",11.733433509789462,-11.733433509789464,0,1,1,0.8678491945740778,1.8678491945740776,1.1321508054259222,3.0,1,1.6178491945740778,0,4.0,3.0,1,2,8,0,8,0,0,0,0,4,,,,,,,497.02548416680656,497.02548416680656,498.0392216669861,498.6583317089826,498.8912132089026,498.8912132089026,498.8912132089026,500.03874670900404,500.03874670900404,500.03874670900404,500.02475424995646,501.03853245894425,200004,006,2023-03-31_11h38.51.332,DMS_et_12-36,2022.2.4,None,
79,PRED,12,0.8678491945740778,0,images/picture_1.png,images/picture_1.png,0,"[11.733433509789462, -11.733433509789466]",11.733433509789462,-11.733433509789464,images/picture_2.png,1,"[-11.733433509789466, -11.733433509789462]",-11.733433509789464,-11.733433509789462,images/picture_3.png,2,"[11.733433509789464, 11.733433509789462]",11.733433509789464,11.733433509789462,0,1,1,0.8678491945740778,1.8678491945740776,1.1321508054259222,3.0,1,1.6178491945740778,0,4.0,3.0,1,2,8,0,8,0,0,1,1,7,,,,,,,501.03853245894425,501.03853245894425,502.03915808396414,502.65825429186225,502.90570133388974,502.90570133388974,502.90570133388974,504.0390288748313,504.0390288748313,504.0390288748313,504.0390288748313,505.03873474989086,200004,006,2023-03-31_11h38.51.332,DMS_et_12-36,2022.2.4,None,
74,PRED,12,0.8678491945740778,0,images/picture_1.png,images/picture_1.png,0,"[11.733433509789462, -11.733433509789466]",11.733433509789462,-11.733433509789464,images/picture_2.png,1,"[-11.733433509789462, 11.733433509789464]",-11.733433509789462,11.733433509789464,images/picture_3.png,2,"[-11.733433509789466, -11.733433509789462]",-11.733433509789464,-11.733433509789462,0,1,1,0.8678491945740778,1.8678491945740776,1.1321508054259222,3.0,1,1.6178491945740778,0,4.0,3.0,1,2,8,0,8,0,0,2,2,2,,,,,,,505.03873474989086,505.03873474989086,506.03902004193515,506.65855679195374,506.90578774991445,506.90578774991445,506.90578774991445,508.0386434169486,508.0386434169486,508.0386434169486,508.0386434169486,509.03901574993506,200004,006,2023-03-31_11h38.51.332,DMS_et_12-36,2022.2.4,None,
75,PRED,12,0.8678491945740778,0,images/picture_1.png,images/picture_1.png,0,"[-11.733433509789462, 11.733433509789464]",-11.733433509789462,11.733433509789464,images/picture_2.png,1,"[11.733433509789464, 11.733433509789462]",11.733433509789464,11.733433509789462,images/picture_3.png,2,"[11.733433509789462, -11.733433509789466]",11.733433509789462,-11.733433509789464,0,1,1,0.8678491945740778,1.8678491945740776,1.1321508054259222,3.0,1,1.6178491945740778,0,4.0,3.0,1,2,8,0,8,0,0,3,3,3,,,,,,,509.03901574993506,509.03901574993506,510.03884520893916,510.6584229588043,510.90546466689557,510.90546466689557,510.90546466689557,512.0389946668874,512.0389946668874,512.0389946668874,512.0389946668874,513.0384856669698,200004,006,2023-03-31_11h38.51.332,DMS_et_12-36,2022.2.4,None,
77,PRED,12,0.8678491945740778,0,images/picture_1.png,images/picture_1.png,0,"[11.733433509789464, 11.733433509789462]",11.733433509789464,11.733433509789462,images/picture_2.png,1,"[11.733433509789462, -11.733433509789466]",11.733433509789462,-11.733433509789464,images/picture_3.png,2,"[-11.733433509789462, 11.733433509789464]",-11.733433509789462,11.733433509789464,0,1,1,0.8678491945740778,1.8678491945740776,1.1321508054259222,3.0,1,1.6178491945740778,0,4.0,3.0,1,2,8,0,8,0,0,4,4,5,,,,,,,513.0384856669698,513.0384856669698,514.0390248748008,514.6583288339898,514.9058560838457,514.9058560838457,514.9058560838457,516.039008541964,516.039008541964,516.039008541964,516.039008541964,517.0386427089106,200004,006,2023-03-31_11h38.51.332,DMS_et_12-36,2022.2.4,None,
80,PRED,12,0.8678491945740778,0,images/picture_1.png,images/picture_1.png,0,"[-11.733433509789466, -11.733433509789462]",-11.733433509789464,-11.733433509789462,images/picture_2.png,1,"[11.733433509789462, -11.733433509789466]",11.733433509789462,-11.733433509789464,images/picture_3.png,2,"[-11.733433509789462, 11.733433509789464]",-11.733433509789462,11.733433509789464,0,1,1,0.8678491945740778,1.8678491945740776,1.1321508054259222,3.0,1,1.6178491945740778,0,4.0,3.0,1,2,8,0,8,0,0,5,5,8,,,,,,,517.0386427089106,517.0386427089106,518.0389934999403,518.6582413339056,518.9057159589138,518.9057159589138,518.9057159589138,520.0388543747831,520.0388543747831,520.0388543747831,520.0388543747831,521.0385109998751,200004,006,2023-03-31_11h38.51.332,DMS_et_12-36,2022.2.4,None,
72,PRED,12,0.8678491945740778,0,images/picture_1.png,images/picture_1.png,0,"[-11.733433509789466, -11.733433509789462]",-11.733433509789464,-11.733433509789462,images/picture_2.png,1,"[-11.733433509789462, 11.733433509789464]",-11.733433509789462,11.733433509789464,images/picture_3.png,2,"[11.733433509789464, 11.733433509789462]",11.733433509789464,11.733433509789462,0,1,1,0.8678491945740778,1.8678491945740776,1.1321508054259222,3.0,1,1.6178491945740778,0,4.0,3.0,1,2,8,0,8,0,0,6,6,0,,,,,,,521.0385109998751,521.0385109998751,522.0390002089553,522.6585018748883,522.9053155838046,522.9053155838046,522.9053155838046,524.0390189168975,524.0390189168975,524.0390189168975,524.0390189168975,525.038652166957,200004,006,2023-03-31_11h38.51.332,DMS_et_12-36,2022.2.4,None,
73,PRED,12,0.8678491945740778,0,images/picture_1.png,images/picture_1.png,0,"[11.733433509789464, 11.733433509789462]",11.733433509789464,11.733433509789462,images/picture_2.png,1,"[-11.733433509789462, 11.733433509789464]",-11.733433509789462,11.733433509789464,images/picture_3.png,2,"[11.733433509789462, -11.733433509789466]",11.733433509789462,-11.733433509789464,0,1,1,0.8678491945740778,1.8678491945740776,1.1321508054259222,3.0,1,1.6178491945740778,0,4.0,3.0,1,2,8,0,8,0,0,7,7,1,,,,,,,525.038652166957,525.038652166957,526.0391754589509,526.6581963750068,526.9057312088553,526.9057312088553,526.9057312088553,528.0390013749711,528.0390013749711,528.0390013749711,528.0390013749711,529.0388590418734,200004,006,2023-03-31_11h38.51.332,DMS_et_12-36,2022.2.4,None,
78,PRED,12,0.8678491945740778,0,images/picture_1.png,images/picture_1.png,0,"[11.733433509789464, 11.733433509789462]",11.733433509789464,11.733433509789462,images/picture_2.png,1,"[-11.733433509789462, 11.733433509789464]",-11.733433509789462,11.733433509789464,images/picture_3.png,2,"[11.733433509789462, -11.733433509789466]",11.733433509789462,-11.733433509789464,0,1,1,0.8678491945740778,1.8678491945740776,1.1321508054259222,3.0,1,1.6178491945740778,0,4.0,3.0,1,2,8,0,8,0,0,8,8,6,,,,,,,529.0388590418734,529.0388590418734,530.0389816667885,530.6722764589358,530.9055646248162,530.9055646248162,530.9055646248162,532.0392053748947,532.0392053748947,532.0392053748947,532.0392053748947,533.1381468339823,200004,006,2023-03-31_11h38.51.332,DMS_et_12-36,2022.2.4,None,
,,,,,,,,,,,,,,,,,,,,,,,,,,,,,,,,,,,8,0,8,0,,,,,,,,,533.1381468339823,545.1588026669342,,,,,,,,,,,,,200004,006,2023-03-31_11h38.51.332,DMS_et_12-36,2022.2.4,None,
81,UNPRED,12,0.8678491945740778,0,images/picture_1.png,images/picture_1.png,0,"[11.733433509789462, -11.733433509789466]",11.733433509789462,-11.733433509789464,images/picture_2.png,1,"[11.733433509789464, 11.733433509789462]",11.733433509789464,11.733433509789462,images/picture_3.png,2,"[-11.733433509789466, -11.733433509789462]",-11.733433509789464,-11.733433509789462,0,1,1,0.8678491945740778,1.8678491945740776,1.1321508054259222,3.0,1,1.6178491945740778,0,4.0,3.0,1,2,9,0,9,0,0,0,0,0,,,,,,,545.1588026669342,545.1588026669342,546.1724186670035,546.791782541899,547.0250145839527,547.0250145839527,547.0250145839527,548.1724149589427,548.1724149589427,548.1724149589427,548.1583573748358,549.1909507918172,200004,006,2023-03-31_11h38.51.332,DMS_et_12-36,2022.2.4,None,
82,UNPRED,12,0.8678491945740778,2,images/picture_3.png,images/picture_1.png,0,"[11.733433509789464, 11.733433509789462]",11.733433509789464,11.733433509789462,images/picture_2.png,1,"[-11.733433509789462, 11.733433509789464]",-11.733433509789462,11.733433509789464,images/picture_3.png,2,"[11.733433509789462, -11.733433509789466]",11.733433509789462,-11.733433509789464,0,1,1,0.8678491945740778,1.8678491945740776,1.1321508054259222,3.0,1,1.6178491945740778,0,4.0,3.0,1,2,9,0,9,0,0,1,1,1,,,,,,,549.1909507918172,549.1909507918172,550.2054010839202,550.8054816669319,551.0386256668717,551.0386256668717,551.0386256668717,552.1722920839675,552.1722920839675,552.1722920839675,552.1722920839675,553.1728911669925,200004,006,2023-03-31_11h38.51.332,DMS_et_12-36,2022.2.4,None,
85,UNPRED,12,0.8678491945740778,1,images/picture_2.png,images/picture_1.png,0,"[-11.733433509789462, 11.733433509789464]",-11.733433509789462,11.733433509789464,images/picture_2.png,1,"[-11.733433509789466, -11.733433509789462]",-11.733433509789464,-11.733433509789462,images/picture_3.png,2,"[11.733433509789464, 11.733433509789462]",11.733433509789464,11.733433509789462,0,1,1,0.8678491945740778,1.8678491945740776,1.1321508054259222,3.0,1,1.6178491945740778,0,4.0,3.0,1,2,9,0,9,0,0,2,2,4,,,,,,,553.1728911669925,553.1728911669925,554.1724674589932,554.8057572499383,555.0390104998369,555.0390104998369,555.0390104998369,556.1724364999682,556.1724364999682,556.1724364999682,556.1724364999682,557.1711826249957,200004,006,2023-03-31_11h38.51.332,DMS_et_12-36,2022.2.4,None,
84,UNPRED,12,0.8678491945740778,0,images/picture_1.png,images/picture_1.png,0,"[11.733433509789464, 11.733433509789462]",11.733433509789464,11.733433509789462,images/picture_2.png,1,"[-11.733433509789466, -11.733433509789462]",-11.733433509789464,-11.733433509789462,images/picture_3.png,2,"[-11.733433509789462, 11.733433509789464]",-11.733433509789462,11.733433509789464,0,1,1,0.8678491945740778,1.8678491945740776,1.1321508054259222,3.0,1,1.6178491945740778,0,4.0,3.0,1,2,9,0,9,0,0,3,3,3,,,,,,,557.1711826249957,557.1711826249957,558.1724861247931,558.7919530419167,559.0389571248088,559.0389571248088,559.0389571248088,560.172493541846,560.172493541846,560.172493541846,560.172493541846,561.172011874849,200004,006,2023-03-31_11h38.51.332,DMS_et_12-36,2022.2.4,None,
87,UNPRED,12,0.8678491945740778,0,images/picture_1.png,images/picture_1.png,0,"[-11.733433509789462, 11.733433509789464]",-11.733433509789462,11.733433509789464,images/picture_2.png,1,"[11.733433509789464, 11.733433509789462]",11.733433509789464,11.733433509789462,images/picture_3.png,2,"[11.733433509789462, -11.733433509789466]",11.733433509789462,-11.733433509789464,0,1,1,0.8678491945740778,1.8678491945740776,1.1321508054259222,3.0,1,1.6178491945740778,0,4.0,3.0,1,2,9,0,9,0,0,4,4,6,,,,,,,561.172011874849,561.172011874849,562.1724264589138,562.7918032498565,563.039055874804,563.039055874804,563.039055874804,564.1722730838228,564.1722730838228,564.1722730838228,564.1722730838228,565.1720128338784,200004,006,2023-03-31_11h38.51.332,DMS_et_12-36,2022.2.4,None,
88,UNPRED,12,0.8678491945740778,0,images/picture_1.png,images/picture_1.png,0,"[11.733433509789464, 11.733433509789462]",11.733433509789464,11.733433509789462,images/picture_2.png,1,"[11.733433509789462, -11.733433509789466]",11.733433509789462,-11.733433509789464,images/picture_3.png,2,"[-11.733433509789466, -11.733433509789462]",-11.733433509789464,-11.733433509789462,0,1,1,0.8678491945740778,1.8678491945740776,1.1321508054259222,3.0,1,1.6178491945740778,0,4.0,3.0,1,2,9,0,9,0,0,5,5,7,,,,,,,565.1720128338784,565.1720128338784,566.1725066248327,566.7916632918641,567.0389821249992,567.0389821249992,567.0389821249992,568.1723678749986,568.1723678749986,568.1723678749986,568.1723678749986,569.1718794167973,200004,006,2023-03-31_11h38.51.332,DMS_et_12-36,2022.2.4,None,
83,UNPRED,12,0.8678491945740778,0,images/picture_1.png,images/picture_1.png,0,"[11.733433509789462, -11.733433509789466]",11.733433509789462,-11.733433509789464,images/picture_2.png,1,"[11.733433509789464, 11.733433509789462]",11.733433509789464,11.733433509789462,images/picture_3.png,2,"[-11.733433509789462, 11.733433509789464]",-11.733433509789462,11.733433509789464,0,1,1,0.8678491945740778,1.8678491945740776,1.1321508054259222,3.0,1,1.6178491945740778,0,4.0,3.0,1,2,9,0,9,0,0,6,6,2,,,,,,,569.1718794167973,569.1718794167973,570.1724749589339,570.8055675840005,571.0390457918402,571.0390457918402,571.0390457918402,572.1726980837993,572.1726980837993,572.1726980837993,572.1726980837993,573.191141041927,200004,006,2023-03-31_11h38.51.332,DMS_et_12-36,2022.2.4,None,
89,UNPRED,12,0.8678491945740778,2,images/picture_3.png,images/picture_1.png,0,"[11.733433509789464, 11.733433509789462]",11.733433509789464,11.733433509789462,images/picture_2.png,1,"[11.733433509789462, -11.733433509789466]",11.733433509789462,-11.733433509789464,images/picture_3.png,2,"[-11.733433509789462, 11.733433509789464]",-11.733433509789462,11.733433509789464,0,1,1,0.8678491945740778,1.8678491945740776,1.1321508054259222,3.0,1,1.6178491945740778,0,4.0,3.0,1,2,9,0,9,0,0,7,7,8,,,,,,,573.191141041927,573.191141041927,574.2057048338465,574.8057836249936,575.0390093747992,575.0390093747992,575.0390093747992,576.172283083899,576.172283083899,576.172283083899,576.172283083899,577.1721892917994,200004,006,2023-03-31_11h38.51.332,DMS_et_12-36,2022.2.4,None,
86,UNPRED,12,0.8678491945740778,0,images/picture_1.png,images/picture_1.png,0,"[11.733433509789462, -11.733433509789466]",11.733433509789462,-11.733433509789464,images/picture_2.png,1,"[-11.733433509789462, 11.733433509789464]",-11.733433509789462,11.733433509789464,images/picture_3.png,2,"[11.733433509789464, 11.733433509789462]",11.733433509789464,11.733433509789462,0,1,1,0.8678491945740778,1.8678491945740776,1.1321508054259222,3.0,1,1.6178491945740778,0,4.0,3.0,1,2,9,0,9,0,0,8,8,5,,,,,,,577.1721892917994,577.1721892917994,578.1722501248587,578.7915560419206,579.0389987088274,579.0389987088274,579.0389987088274,580.1724497089162,580.1724497089162,580.1724497089162,580.1724497089162,581.2591025419533,200004,006,2023-03-31_11h38.51.332,DMS_et_12-36,2022.2.4,None,
,,,,,,,,,,,,,,,,,,,,,,,,,,,,,,,,,,,9,0,9,0,,,,,,,,,581.2591025419533,593.3043158748187,,,,,,,,,,,,,200004,006,2023-03-31_11h38.51.332,DMS_et_12-36,2022.2.4,None,
91,PRED,12,0.8678491945740778,2,images/picture_3.png,images/picture_1.png,0,"[-11.733433509789462, 11.733433509789464]",-11.733433509789462,11.733433509789464,images/picture_2.png,1,"[11.733433509789464, 11.733433509789462]",11.733433509789464,11.733433509789462,images/picture_3.png,2,"[-11.733433509789466, -11.733433509789462]",-11.733433509789464,-11.733433509789462,0,1,1,0.8678491945740778,1.8678491945740776,1.1321508054259222,3.0,1,1.6178491945740778,0,4.0,3.0,1,2,10,0,10,0,0,0,0,1,,,,,,,593.3043158748187,593.3043158748187,594.3053900417872,594.9247373749968,595.1587592088617,595.1587592088617,595.1587592088617,596.3058926248923,596.3058926248923,596.3058926248923,596.291868958855,597.324484041892,200004,006,2023-03-31_11h38.51.332,DMS_et_12-36,2022.2.4,None,
98,PRED,12,0.8678491945740778,2,images/picture_3.png,images/picture_1.png,0,"[-11.733433509789466, -11.733433509789462]",-11.733433509789464,-11.733433509789462,images/picture_2.png,1,"[11.733433509789462, -11.733433509789466]",11.733433509789462,-11.733433509789464,images/picture_3.png,2,"[-11.733433509789462, 11.733433509789464]",-11.733433509789462,11.733433509789464,0,1,1,0.8678491945740778,1.8678491945740776,1.1321508054259222,3.0,1,1.6178491945740778,0,4.0,3.0,1,2,10,0,10,0,0,1,1,8,,,,,,,597.324484041892,597.324484041892,598.3391379998066,598.9391820419114,599.1722464999184,599.1722464999184,599.1722464999184,600.3057896669488,600.3057896669488,600.3057896669488,600.3057896669488,601.3245509997942,200004,006,2023-03-31_11h38.51.332,DMS_et_12-36,2022.2.4,None,
95,PRED,12,0.8678491945740778,2,images/picture_3.png,images/picture_1.png,0,"[-11.733433509789466, -11.733433509789462]",-11.733433509789464,-11.733433509789462,images/picture_2.png,1,"[-11.733433509789462, 11.733433509789464]",-11.733433509789462,11.733433509789464,images/picture_3.png,2,"[11.733433509789462, -11.733433509789466]",11.733433509789462,-11.733433509789464,0,1,1,0.8678491945740778,1.8678491945740776,1.1321508054259222,3.0,1,1.6178491945740778,0,4.0,3.0,1,2,10,0,10,0,0,2,2,5,,,,,,,601.3245509997942,601.3245509997942,602.3387314998545,602.9390579168685,603.1724132089876,603.1724132089876,603.1724132089876,604.3057726249099,604.3057726249099,604.3057726249099,604.3057726249099,605.3246081247926,200004,006,2023-03-31_11h38.51.332,DMS_et_12-36,2022.2.4,None,
94,PRED,12,0.8678491945740778,2,images/picture_3.png,images/picture_1.png,0,"[11.733433509789462, -11.733433509789466]",11.733433509789462,-11.733433509789464,images/picture_2.png,1,"[-11.733433509789466, -11.733433509789462]",-11.733433509789464,-11.733433509789462,images/picture_3.png,2,"[-11.733433509789462, 11.733433509789464]",-11.733433509789462,11.733433509789464,0,1,1,0.8678491945740778,1.8678491945740776,1.1321508054259222,3.0,1,1.6178491945740778,0,4.0,3.0,1,2,10,0,10,0,0,3,3,4,,,,,,,605.3246081247926,605.3246081247926,606.3392138748895,606.9385823749471,607.1724657919258,607.1724657919258,607.1724657919258,608.30584549997,608.30584549997,608.30584549997,608.30584549997,609.32479924988,200004,006,2023-03-31_11h38.51.332,DMS_et_12-36,2022.2.4,None,
90,PRED,12,0.8678491945740778,2,images/picture_3.png,images/picture_1.png,0,"[11.733433509789462, -11.733433509789466]",11.733433509789462,-11.733433509789464,images/picture_2.png,1,"[-11.733433509789466, -11.733433509789462]",-11.733433509789464,-11.733433509789462,images/picture_3.png,2,"[-11.733433509789462, 11.733433509789464]",-11.733433509789462,11.733433509789464,0,1,1,0.8678491945740778,1.8678491945740776,1.1321508054259222,3.0,1,1.6178491945740778,0,4.0,3.0,1,2,10,0,10,0,0,4,4,0,,,,,,,609.32479924988,609.32479924988,610.3390077499207,610.9391357088462,611.1724031670019,611.1724031670019,611.1724031670019,612.3054920840077,612.3054920840077,612.3054920840077,612.3054920840077,613.3251376668923,200004,006,2023-03-31_11h38.51.332,DMS_et_12-36,2022.2.4,None,
97,PRED,12,0.8678491945740778,2,images/picture_3.png,images/picture_1.png,0,"[11.733433509789462, -11.733433509789466]",11.733433509789462,-11.733433509789464,images/picture_2.png,1,"[11.733433509789464, 11.733433509789462]",11.733433509789464,11.733433509789462,images/picture_3.png,2,"[-11.733433509789462, 11.733433509789464]",-11.733433509789462,11.733433509789464,0,1,1,0.8678491945740778,1.8678491945740776,1.1321508054259222,3.0,1,1.6178491945740778,0,4.0,3.0,1,2,10,0,10,0,0,5,5,7,,,,,,,613.3251376668923,613.3251376668923,614.338747916976,614.9583666247781,615.1724610838573,615.1724610838573,615.1724610838573,616.3058502089698,616.3058502089698,616.3058502089698,616.3058502089698,617.3246224999893,200004,006,2023-03-31_11h38.51.332,DMS_et_12-36,2022.2.4,None,
93,PRED,12,0.8678491945740778,2,images/picture_3.png,images/picture_1.png,0,"[-11.733433509789462, 11.733433509789464]",-11.733433509789462,11.733433509789464,images/picture_2.png,1,"[-11.733433509789466, -11.733433509789462]",-11.733433509789464,-11.733433509789462,images/picture_3.png,2,"[11.733433509789464, 11.733433509789462]",11.733433509789464,11.733433509789462,0,1,1,0.8678491945740778,1.8678491945740776,1.1321508054259222,3.0,1,1.6178491945740778,0,4.0,3.0,1,2,10,0,10,0,0,6,6,3,,,,,,,617.3246224999893,617.3246224999893,618.3390400838107,618.9582039588131,619.1724231669214,619.1724231669214,619.1724231669214,620.3058622498065,620.3058622498065,620.3058622498065,620.3058622498065,621.3250885838643,200004,006,2023-03-31_11h38.51.332,DMS_et_12-36,2022.2.4,None,
96,PRED,12,0.8678491945740778,2,images/picture_3.png,images/picture_1.png,0,"[-11.733433509789466, -11.733433509789462]",-11.733433509789464,-11.733433509789462,images/picture_2.png,1,"[11.733433509789462, -11.733433509789466]",11.733433509789462,-11.733433509789464,images/picture_3.png,2,"[-11.733433509789462, 11.733433509789464]",-11.733433509789462,11.733433509789464,0,1,1,0.8678491945740778,1.8678491945740776,1.1321508054259222,3.0,1,1.6178491945740778,0,4.0,3.0,1,2,10,0,10,0,0,7,7,6,,,,,,,621.3250885838643,621.3250885838643,622.3387745418586,622.9576591670047,623.1721459168475,623.1721459168475,623.1721459168475,624.3057998339646,624.3057998339646,624.3057998339646,624.3057998339646,625.3246440419462,200004,006,2023-03-31_11h38.51.332,DMS_et_12-36,2022.2.4,None,
92,PRED,12,0.8678491945740778,2,images/picture_3.png,images/picture_1.png,0,"[-11.733433509789462, 11.733433509789464]",-11.733433509789462,11.733433509789464,images/picture_2.png,1,"[11.733433509789464, 11.733433509789462]",11.733433509789464,11.733433509789462,images/picture_3.png,2,"[-11.733433509789466, -11.733433509789462]",-11.733433509789464,-11.733433509789462,0,1,1,0.8678491945740778,1.8678491945740776,1.1321508054259222,3.0,1,1.6178491945740778,0,4.0,3.0,1,2,10,0,10,0,0,8,8,2,,,,,,,625.3246440419462,625.3246440419462,626.3388775838539,626.9392021249514,627.1724654999562,627.1724654999562,627.1724654999562,628.3055428338703,628.3055428338703,628.3055428338703,628.3055428338703,629.4184679589234,200004,006,2023-03-31_11h38.51.332,DMS_et_12-36,2022.2.4,None,
,,,,,,,,,,,,,,,,,,,,,,,,,,,,,,,,,,,10,0,10,0,,,,,,,,,629.4184679589234,641.4423151668161,,,,,,,,,,,,,200004,006,2023-03-31_11h38.51.332,DMS_et_12-36,2022.2.4,None,
103,UNPRED,12,0.8678491945740778,1,images/picture_2.png,images/picture_1.png,0,"[-11.733433509789462, 11.733433509789464]",-11.733433509789462,11.733433509789464,images/picture_2.png,1,"[11.733433509789464, 11.733433509789462]",11.733433509789464,11.733433509789462,images/picture_3.png,2,"[-11.733433509789466, -11.733433509789462]",-11.733433509789464,-11.733433509789462,0,1,1,0.8678491945740778,1.8678491945740776,1.1321508054259222,3.0,1,1.6178491945740778,0,4.0,3.0,1,2,11,0,11,0,0,0,0,4,,,,,,,641.4423151668161,641.4423151668161,642.4389261668548,643.0723123748321,643.3056939998642,643.3056939998642,643.3056939998642,644.4385904169176,644.4385904169176,644.4385904169176,644.4385904169176,645.4385609168094,200004,006,2023-03-31_11h38.51.332,DMS_et_12-36,2022.2.4,None,
106,UNPRED,12,0.8678491945740778,1,images/picture_2.png,images/picture_1.png,0,"[-11.733433509789466, -11.733433509789462]",-11.733433509789464,-11.733433509789462,images/picture_2.png,1,"[11.733433509789464, 11.733433509789462]",11.733433509789464,11.733433509789462,images/picture_3.png,2,"[-11.733433509789462, 11.733433509789464]",-11.733433509789462,11.733433509789464,0,1,1,0.8678491945740778,1.8678491945740776,1.1321508054259222,3.0,1,1.6178491945740778,0,4.0,3.0,1,2,11,0,11,0,0,1,1,7,,,,,,,645.4385609168094,645.4385609168094,646.4390162499622,647.0584069998004,647.3059212497901,647.3059212497901,647.3059212497901,648.4392048749141,648.4392048749141,648.4392048749141,648.4392048749141,649.4385811667889,200004,006,2023-03-31_11h38.51.332,DMS_et_12-36,2022.2.4,None,
100,UNPRED,12,0.8678491945740778,1,images/picture_2.png,images/picture_1.png,0,"[-11.733433509789466, -11.733433509789462]",-11.733433509789464,-11.733433509789462,images/picture_2.png,1,"[11.733433509789462, -11.733433509789466]",11.733433509789462,-11.733433509789464,images/picture_3.png,2,"[11.733433509789464, 11.733433509789462]",11.733433509789464,11.733433509789462,0,1,1,0.8678491945740778,1.8678491945740776,1.1321508054259222,3.0,1,1.6178491945740778,0,4.0,3.0,1,2,11,0,11,0,0,2,2,1,,,,,,,649.4385811667889,649.4385811667889,650.4385517088231,651.0583241668064,651.3057416668162,651.3057416668162,651.3057416668162,652.43902074988,652.43902074988,652.43902074988,652.43902074988,653.438546749996,200004,006,2023-03-31_11h38.51.332,DMS_et_12-36,2022.2.4,None,
105,UNPRED,12,0.8678491945740778,0,images/picture_1.png,images/picture_1.png,0,"[11.733433509789464, 11.733433509789462]",11.733433509789464,11.733433509789462,images/picture_2.png,1,"[-11.733433509789462, 11.733433509789464]",-11.733433509789462,11.733433509789464,images/picture_3.png,2,"[-11.733433509789466, -11.733433509789462]",-11.733433509789464,-11.733433509789462,0,1,1,0.8678491945740778,1.8678491945740776,1.1321508054259222,3.0,1,1.6178491945740778,0,4.0,3.0,1,2,11,0,11,0,0,3,3,6,,,,,,,653.438546749996,653.438546749996,654.4391867918894,655.0584914588835,655.3057452919893,655.3057452919893,655.3057452919893,656.4385542918462,656.4385542918462,656.4385542918462,656.4385542918462,657.4577492917888,200004,006,2023-03-31_11h38.51.332,DMS_et_12-36,2022.2.4,None,
99,UNPRED,12,0.8678491945740778,2,images/picture_3.png,images/picture_1.png,0,"[-11.733433509789466, -11.733433509789462]",-11.733433509789464,-11.733433509789462,images/picture_2.png,1,"[-11.733433509789462, 11.733433509789464]",-11.733433509789462,11.733433509789464,images/picture_3.png,2,"[11.733433509789464, 11.733433509789462]",11.733433509789464,11.733433509789462,0,1,1,0.8678491945740778,1.8678491945740776,1.1321508054259222,3.0,1,1.6178491945740778,0,4.0,3.0,1,2,11,0,11,0,0,4,4,0,,,,,,,657.4577492917888,657.4577492917888,658.4724420418497,659.0724548748694,659.3058960838243,659.3058960838243,659.3058960838243,660.439024124993,660.439024124993,660.439024124993,660.439024124993,661.4577172088902,200004,006,2023-03-31_11h38.51.332,DMS_et_12-36,2022.2.4,None,
104,UNPRED,12,0.8678491945740778,2,images/picture_3.png,images/picture_1.png,0,"[-11.733433509789466, -11.733433509789462]",-11.733433509789464,-11.733433509789462,images/picture_2.png,1,"[11.733433509789464, 11.733433509789462]",11.733433509789464,11.733433509789462,images/picture_3.png,2,"[-11.733433509789462, 11.733433509789464]",-11.733433509789462,11.733433509789464,0,1,1,0.8678491945740778,1.8678491945740776,1.1321508054259222,3.0,1,1.6178491945740778,0,4.0,3.0,1,2,11,0,11,0,0,5,5,5,,,,,,,661.4577172088902,661.4577172088902,662.4721762088593,663.0725620419253,663.3053838338237,663.3053838338237,663.3053838338237,664.4390233748127,664.4390233748127,664.4390233748127,664.4390233748127,665.4384661249351,200004,006,2023-03-31_11h38.51.332,DMS_et_12-36,2022.2.4,None,
102,UNPRED,12,0.8678491945740778,1,images/picture_2.png,images/picture_1.png,0,"[-11.733433509789462, 11.733433509789464]",-11.733433509789462,11.733433509789464,images/picture_2.png,1,"[11.733433509789462, -11.733433509789466]",11.733433509789462,-11.733433509789464,images/picture_3.png,2,"[11.733433509789464, 11.733433509789462]",11.733433509789464,11.733433509789462,0,1,1,0.8678491945740778,1.8678491945740776,1.1321508054259222,3.0,1,1.6178491945740778,0,4.0,3.0,1,2,11,0,11,0,0,6,6,3,,,,,,,665.4384661249351,665.4384661249351,666.4390688338317,667.0583896669559,667.3053097918164,667.3053097918164,667.3053097918164,668.4385673338547,668.4385673338547,668.4385673338547,668.4385673338547,669.4578325417824,200004,006,2023-03-31_11h38.51.332,DMS_et_12-36,2022.2.4,None,
107,UNPRED,12,0.8678491945740778,2,images/picture_3.png,images/picture_1.png,0,"[-11.733433509789466, -11.733433509789462]",-11.733433509789464,-11.733433509789462,images/picture_2.png,1,"[11.733433509789464, 11.733433509789462]",11.733433509789464,11.733433509789462,images/picture_3.png,2,"[11.733433509789462, -11.733433509789466]",11.733433509789462,-11.733433509789464,0,1,1,0.8678491945740778,1.8678491945740776,1.1321508054259222,3.0,1,1.6178491945740778,0,4.0,3.0,1,2,11,0,11,0,0,7,7,8,,,,,,,669.4578325417824,669.4578325417824,670.4726104589645,671.072502749972,671.3058710838668,671.3058710838668,671.3058710838668,672.4389938339591,672.4389938339591,672.4389938339591,672.4389938339591,673.4392222918104,200004,006,2023-03-31_11h38.51.332,DMS_et_12-36,2022.2.4,None,
101,UNPRED,12,0.8678491945740778,2,images/picture_3.png,images/picture_1.png,0,"[-11.733433509789466, -11.733433509789462]",-11.733433509789464,-11.733433509789462,images/picture_2.png,1,"[11.733433509789462, -11.733433509789466]",11.733433509789462,-11.733433509789464,images/picture_3.png,2,"[-11.733433509789462, 11.733433509789464]",-11.733433509789462,11.733433509789464,0,1,1,0.8678491945740778,1.8678491945740776,1.1321508054259222,3.0,1,1.6178491945740778,0,4.0,3.0,1,2,11,0,11,0,0,8,8,2,,,,,,,673.4392222918104,673.4392222918104,674.4388894999865,675.0724475418683,675.3057677499019,675.3057677499019,675.3057677499019,676.4390827089082,676.4390827089082,676.4390827089082,676.4390827089082,677.6051265418064,200004,006,2023-03-31_11h38.51.332,DMS_et_12-36,2022.2.4,None,
,,,,,,,,,,,,,,,,,,,,,,,,,,,,,,,,,,,11,0,11,0,,,,,,,,,677.6051265418064,689.7328572918195,,,,,,,,,,,,,200004,006,2023-03-31_11h38.51.332,DMS_et_12-36,2022.2.4,None,
,,,,,,,,,,,,,,,,,,,,,,,,,,,,,,,,,,,,,,,,,,,,,,,689.7328572918195,702.2646380839869,,,,,,,,,,,,,,,,,,,
