trial_count,blockType,blockNum,delay_time,stimImage_i,stimImage,responseImage1,responseImage1_i,responseImage1_pos,responseImage1_X,responseImage1_Y,responseImage2,responseImage2_i,responseImage2_pos,responseImage2_X,responseImage2_Y,responseImage3,responseImage3_i,responseImage3_pos,responseImage3_X,responseImage3_Y,cue_onset,cue_dur,delay_onset,delay_dur,resp_onset,resp_dur,rest_onset,rest_dur,circle_dur,circle_onset,total_dur,cross_onset,cross_dur,delay_resp_period,blocks.thisRepN,blocks.thisTrialN,blocks.thisN,blocks.thisIndex,trials.thisRepN,trials.thisTrialN,trials.thisN,trials.thisIndex,key_resp.started,text.started,key_resp.keys,key_resp.rt,text_2.started,text_2.stopped,sample.started,Delay.started,sample.stopped,Delay.stopped,Response_1.started,Response_2.started,Response_3.started,Response_1.stopped,Response_2.stopped,Response_3.stopped,polygon.started,polygon.stopped,participant,session,date,expName,psychopyVersion,frameRate,
,,,,,,,,,,,,,,,,,,,,,,,,,,,,,,,,,,,,,,,,,,,56.91427358298097,56.91427358298097,t,64.0363864999963,,,,,,,,,,,,,,,200008,006,2023-04-14_11h37.19.572,DMS_et_12-36,2022.2.4,None,
6,PRED,12,0.9716390954798,2,images/picture_3.png,images/picture_1.png,0,"[11.733433509789462, -11.733433509789466]",11.733433509789462,-11.733433509789464,images/picture_2.png,1,"[-11.733433509789466, -11.733433509789462]",-11.733433509789464,-11.733433509789462,images/picture_3.png,2,"[-11.733433509789462, 11.733433509789464]",-11.733433509789462,11.733433509789464,0,1,1,0.9716390954798,1.9716390954798,1.0283609045201998,3.0,1,1.7216390954798002,0,4.0,3.0,1,2,0,0,0,0,0,0,0,6,,,,,121.46881620798376,133.5106031250034,133.5106031250034,133.5106031250034,134.51345287499134,135.24709274998168,135.46078895800747,135.46078895800747,135.46078895800747,136.49417579098372,136.49417579098372,136.49417579098372,136.49417579098372,137.5128112079983,200008,006,2023-04-14_11h37.19.572,DMS_et_12-36,2022.2.4,None,
1,PRED,12,0.9716390954798,2,images/picture_3.png,images/picture_1.png,0,"[11.733433509789464, 11.733433509789462]",11.733433509789464,11.733433509789462,images/picture_2.png,1,"[-11.733433509789466, -11.733433509789462]",-11.733433509789464,-11.733433509789462,images/picture_3.png,2,"[11.733433509789462, -11.733433509789466]",11.733433509789462,-11.733433509789464,0,1,1,0.9716390954798,1.9716390954798,1.0283609045201998,3.0,1,1.7216390954798002,0,4.0,3.0,1,2,0,0,0,0,0,1,1,1,,,,,,,137.5128112079983,137.5128112079983,138.52694679098204,139.2467232499912,139.46071120799752,139.46071120799752,139.46071120799752,140.49403850000817,140.49403850000817,140.49403850000817,140.49403850000817,141.51369620798505,200008,006,2023-04-14_11h37.19.572,DMS_et_12-36,2022.2.4,None,
7,PRED,12,0.9716390954798,2,images/picture_3.png,images/picture_1.png,0,"[11.733433509789464, 11.733433509789462]",11.733433509789464,11.733433509789462,images/picture_2.png,1,"[11.733433509789462, -11.733433509789466]",11.733433509789462,-11.733433509789464,images/picture_3.png,2,"[-11.733433509789462, 11.733433509789464]",-11.733433509789462,11.733433509789464,0,1,1,0.9716390954798,1.9716390954798,1.0283609045201998,3.0,1,1.7216390954798002,0,4.0,3.0,1,2,0,0,0,0,0,2,2,7,,,,,,,141.51369620798505,141.51369620798505,142.52744620799785,143.24684070798685,143.46073612500913,143.46073612500913,143.46073612500913,144.49400195799535,144.49400195799535,144.49400195799535,144.49400195799535,145.51359470799798,200008,006,2023-04-14_11h37.19.572,DMS_et_12-36,2022.2.4,None,
0,PRED,12,0.9716390954798,2,images/picture_3.png,images/picture_1.png,0,"[11.733433509789464, 11.733433509789462]",11.733433509789464,11.733433509789462,images/picture_2.png,1,"[11.733433509789462, -11.733433509789466]",11.733433509789462,-11.733433509789464,images/picture_3.png,2,"[-11.733433509789462, 11.733433509789464]",-11.733433509789462,11.733433509789464,0,1,1,0.9716390954798,1.9716390954798,1.0283609045201998,3.0,1,1.7216390954798002,0,4.0,3.0,1,2,0,0,0,0,0,3,3,0,,,,,,,145.51359470799798,145.51359470799798,146.5272922499862,147.24698179098777,147.46069787500892,147.46069787500892,147.46069787500892,148.49379149999004,148.49379149999004,148.49379149999004,148.49379149999004,149.5127057909849,200008,006,2023-04-14_11h37.19.572,DMS_et_12-36,2022.2.4,None,
3,PRED,12,0.9716390954798,2,images/picture_3.png,images/picture_1.png,0,"[11.733433509789462, -11.733433509789466]",11.733433509789462,-11.733433509789464,images/picture_2.png,1,"[-11.733433509789462, 11.733433509789464]",-11.733433509789462,11.733433509789464,images/picture_3.png,2,"[11.733433509789464, 11.733433509789462]",11.733433509789464,11.733433509789462,0,1,1,0.9716390954798,1.9716390954798,1.0283609045201998,3.0,1,1.7216390954798002,0,4.0,3.0,1,2,0,0,0,0,0,4,4,3,,,,,,,149.5127057909849,149.5127057909849,150.52743462499348,151.2467965830001,151.46086554098292,151.46086554098292,151.46086554098292,152.493973500008,152.493973500008,152.493973500008,152.493973500008,153.51280337499338,200008,006,2023-04-14_11h37.19.572,DMS_et_12-36,2022.2.4,None,
2,PRED,12,0.9716390954798,2,images/picture_3.png,images/picture_1.png,0,"[11.733433509789462, -11.733433509789466]",11.733433509789462,-11.733433509789464,images/picture_2.png,1,"[11.733433509789464, 11.733433509789462]",11.733433509789464,11.733433509789462,images/picture_3.png,2,"[-11.733433509789466, -11.733433509789462]",-11.733433509789464,-11.733433509789462,0,1,1,0.9716390954798,1.9716390954798,1.0283609045201998,3.0,1,1.7216390954798002,0,4.0,3.0,1,2,0,0,0,0,0,5,5,2,,,,,,,153.51280337499338,153.51280337499338,154.5274586660089,155.2468655410048,155.46069270800217,155.46069270800217,155.46069270800217,156.49397291598143,156.49397291598143,156.49397291598143,156.49397291598143,157.51361529098358,200008,006,2023-04-14_11h37.19.572,DMS_et_12-36,2022.2.4,None,
5,PRED,12,0.9716390954798,2,images/picture_3.png,images/picture_1.png,0,"[11.733433509789462, -11.733433509789466]",11.733433509789462,-11.733433509789464,images/picture_2.png,1,"[-11.733433509789466, -11.733433509789462]",-11.733433509789464,-11.733433509789462,images/picture_3.png,2,"[-11.733433509789462, 11.733433509789464]",-11.733433509789462,11.733433509789464,0,1,1,0.9716390954798,1.9716390954798,1.0283609045201998,3.0,1,1.7216390954798002,0,4.0,3.0,1,2,0,0,0,0,0,6,6,5,,,,,,,157.51361529098358,157.51361529098358,158.52714237500913,159.2461844579957,159.46072116598953,159.46072116598953,159.46072116598953,160.49399320798693,160.49399320798693,160.49399320798693,160.49399320798693,161.51310741598718,200008,006,2023-04-14_11h37.19.572,DMS_et_12-36,2022.2.4,None,
8,PRED,12,0.9716390954798,2,images/picture_3.png,images/picture_1.png,0,"[11.733433509789464, 11.733433509789462]",11.733433509789464,11.733433509789462,images/picture_2.png,1,"[-11.733433509789466, -11.733433509789462]",-11.733433509789464,-11.733433509789462,images/picture_3.png,2,"[11.733433509789462, -11.733433509789466]",11.733433509789462,-11.733433509789464,0,1,1,0.9716390954798,1.9716390954798,1.0283609045201998,3.0,1,1.7216390954798002,0,4.0,3.0,1,2,0,0,0,0,0,7,7,8,,,,,,,161.51310741598718,161.51310741598718,162.52754362500855,163.24706095800502,163.46068808299606,163.46068808299606,163.46068808299606,164.4940265000041,164.4940265000041,164.4940265000041,164.4940265000041,165.51295887498418,200008,006,2023-04-14_11h37.19.572,DMS_et_12-36,2022.2.4,None,
4,PRED,12,0.9716390954798,2,images/picture_3.png,images/picture_1.png,0,"[11.733433509789462, -11.733433509789466]",11.733433509789462,-11.733433509789464,images/picture_2.png,1,"[-11.733433509789462, 11.733433509789464]",-11.733433509789462,11.733433509789464,images/picture_3.png,2,"[11.733433509789464, 11.733433509789462]",11.733433509789464,11.733433509789462,0,1,1,0.9716390954798,1.9716390954798,1.0283609045201998,3.0,1,1.7216390954798002,0,4.0,3.0,1,2,0,0,0,0,0,8,8,4,,,,,,,165.51295887498418,165.51295887498418,166.52745299998787,167.2467806659988,167.4607394580089,167.4607394580089,167.4607394580089,168.4938146249915,168.4938146249915,168.4938146249915,168.4938146249915,169.51668687499478,200008,006,2023-04-14_11h37.19.572,DMS_et_12-36,2022.2.4,None,
,,,,,,,,,,,,,,,,,,,,,,,,,,,,,,,,,,,0,0,0,0,,,,,,,,,169.51668687499478,181.54686620799475,,,,,,,,,,,,,200008,006,2023-04-14_11h37.19.572,DMS_et_12-36,2022.2.4,None,
14,UNPRED,12,0.9716390954798,0,images/picture_1.png,images/picture_1.png,0,"[11.733433509789462, -11.733433509789466]",11.733433509789462,-11.733433509789464,images/picture_2.png,1,"[11.733433509789464, 11.733433509789462]",11.733433509789464,11.733433509789462,images/picture_3.png,2,"[-11.733433509789466, -11.733433509789462]",-11.733433509789464,-11.733433509789462,0,1,1,0.9716390954798,1.9716390954798,1.0283609045201998,3.0,1,1.7216390954798002,0,4.0,3.0,1,2,1,0,1,0,0,0,0,5,,,,,,,181.54686620799475,181.54686620799475,182.56080795798334,183.28089170798194,183.51359924999997,183.51359924999997,183.51359924999997,184.54608820800786,184.54608820800786,184.54608820800786,184.54608820800786,185.5601410829986,200008,006,2023-04-14_11h37.19.572,DMS_et_12-36,2022.2.4,None,
11,UNPRED,12,0.9716390954798,1,images/picture_2.png,images/picture_1.png,0,"[11.733433509789464, 11.733433509789462]",11.733433509789464,11.733433509789462,images/picture_2.png,1,"[11.733433509789462, -11.733433509789466]",11.733433509789462,-11.733433509789464,images/picture_3.png,2,"[-11.733433509789462, 11.733433509789464]",-11.733433509789462,11.733433509789464,0,1,1,0.9716390954798,1.9716390954798,1.0283609045201998,3.0,1,1.7216390954798002,0,4.0,3.0,1,2,1,0,1,0,0,1,1,2,,,,,,,185.5601410829986,185.5601410829986,186.56072983299964,187.29405224998482,187.52727074999711,187.52727074999711,187.52727074999711,188.5608394999872,188.5608394999872,188.5608394999872,188.5608394999872,189.56049916599295,200008,006,2023-04-14_11h37.19.572,DMS_et_12-36,2022.2.4,None,
15,UNPRED,12,0.9716390954798,1,images/picture_2.png,images/picture_1.png,0,"[11.733433509789462, -11.733433509789466]",11.733433509789462,-11.733433509789464,images/picture_2.png,1,"[11.733433509789464, 11.733433509789462]",11.733433509789464,11.733433509789462,images/picture_3.png,2,"[-11.733433509789462, 11.733433509789464]",-11.733433509789462,11.733433509789464,0,1,1,0.9716390954798,1.9716390954798,1.0283609045201998,3.0,1,1.7216390954798002,0,4.0,3.0,1,2,1,0,1,0,0,2,2,6,,,,,,,189.56049916599295,189.56049916599295,190.560788999981,191.29403925000224,191.52728325000498,191.52728325000498,191.52728325000498,192.56071600000723,192.56071600000723,192.56071600000723,192.56071600000723,193.57927362498594,200008,006,2023-04-14_11h37.19.572,DMS_et_12-36,2022.2.4,None,
16,UNPRED,12,0.9716390954798,2,images/picture_3.png,images/picture_1.png,0,"[11.733433509789464, 11.733433509789462]",11.733433509789464,11.733433509789462,images/picture_2.png,1,"[-11.733433509789466, -11.733433509789462]",-11.733433509789464,-11.733433509789462,images/picture_3.png,2,"[-11.733433509789462, 11.733433509789464]",-11.733433509789462,11.733433509789464,0,1,1,0.9716390954798,1.9716390954798,1.0283609045201998,3.0,1,1.7216390954798002,0,4.0,3.0,1,2,1,0,1,0,0,3,3,7,,,,,,,193.57927362498594,193.57927362498594,194.59419904099195,195.3137549579842,195.52746799998567,195.52746799998567,195.52746799998567,196.5607434999838,196.5607434999838,196.5607434999838,196.5607434999838,197.55986545799533,200008,006,2023-04-14_11h37.19.572,DMS_et_12-36,2022.2.4,None,
13,UNPRED,12,0.9716390954798,0,images/picture_1.png,images/picture_1.png,0,"[11.733433509789462, -11.733433509789466]",11.733433509789462,-11.733433509789464,images/picture_2.png,1,"[-11.733433509789466, -11.733433509789462]",-11.733433509789464,-11.733433509789462,images/picture_3.png,2,"[11.733433509789464, 11.733433509789462]",11.733433509789464,11.733433509789462,0,1,1,0.9716390954798,1.9716390954798,1.0283609045201998,3.0,1,1.7216390954798002,0,4.0,3.0,1,2,1,0,1,0,0,4,4,4,,,,,,,197.55986545799533,197.55986545799533,198.56101458298508,199.29389833298046,199.52743358298903,199.52743358298903,199.52743358298903,200.5609541659942,200.5609541659942,200.5609541659942,200.5609541659942,201.56034608298796,200008,006,2023-04-14_11h37.19.572,DMS_et_12-36,2022.2.4,None,
10,UNPRED,12,0.9716390954798,0,images/picture_1.png,images/picture_1.png,0,"[-11.733433509789466, -11.733433509789462]",-11.733433509789464,-11.733433509789462,images/picture_2.png,1,"[-11.733433509789462, 11.733433509789464]",-11.733433509789462,11.733433509789464,images/picture_3.png,2,"[11.733433509789464, 11.733433509789462]",11.733433509789464,11.733433509789462,0,1,1,0.9716390954798,1.9716390954798,1.0283609045201998,3.0,1,1.7216390954798002,0,4.0,3.0,1,2,1,0,1,0,0,5,5,1,,,,,,,201.56034608298796,201.56034608298796,202.560940166004,203.294195666007,203.52745854100795,203.52745854100795,203.52745854100795,204.56074824999087,204.56074824999087,204.56074824999087,204.56074824999087,205.55969316599658,200008,006,2023-04-14_11h37.19.572,DMS_et_12-36,2022.2.4,None,
9,UNPRED,12,0.9716390954798,1,images/picture_2.png,images/picture_1.png,0,"[-11.733433509789462, 11.733433509789464]",-11.733433509789462,11.733433509789464,images/picture_2.png,1,"[11.733433509789462, -11.733433509789466]",11.733433509789462,-11.733433509789464,images/picture_3.png,2,"[-11.733433509789466, -11.733433509789462]",-11.733433509789464,-11.733433509789462,0,1,1,0.9716390954798,1.9716390954798,1.0283609045201998,3.0,1,1.7216390954798002,0,4.0,3.0,1,2,1,0,1,0,0,6,6,0,,,,,,,205.55969316599658,205.55969316599658,206.56070479098707,207.29420208299416,207.52743991598254,207.52743991598254,207.52743991598254,208.5607408329961,208.5607408329961,208.5607408329961,208.5607408329961,209.56046024998068,200008,006,2023-04-14_11h37.19.572,DMS_et_12-36,2022.2.4,None,
12,UNPRED,12,0.9716390954798,0,images/picture_1.png,images/picture_1.png,0,"[11.733433509789462, -11.733433509789466]",11.733433509789462,-11.733433509789464,images/picture_2.png,1,"[-11.733433509789466, -11.733433509789462]",-11.733433509789464,-11.733433509789462,images/picture_3.png,2,"[11.733433509789464, 11.733433509789462]",11.733433509789464,11.733433509789462,0,1,1,0.9716390954798,1.9716390954798,1.0283609045201998,3.0,1,1.7216390954798002,0,4.0,3.0,1,2,1,0,1,0,0,7,7,3,,,,,,,209.56046024998068,209.56046024998068,210.5607500000042,211.29404008298297,211.5273860830057,211.5273860830057,211.5273860830057,212.56072966600186,212.56072966600186,212.56072966600186,212.56072966600186,213.5604779580026,200008,006,2023-04-14_11h37.19.572,DMS_et_12-36,2022.2.4,None,
17,UNPRED,12,0.9716390954798,0,images/picture_1.png,images/picture_1.png,0,"[11.733433509789464, 11.733433509789462]",11.733433509789464,11.733433509789462,images/picture_2.png,1,"[11.733433509789462, -11.733433509789466]",11.733433509789462,-11.733433509789464,images/picture_3.png,2,"[-11.733433509789466, -11.733433509789462]",-11.733433509789464,-11.733433509789462,0,1,1,0.9716390954798,1.9716390954798,1.0283609045201998,3.0,1,1.7216390954798002,0,4.0,3.0,1,2,1,0,1,0,0,8,8,8,,,,,,,213.5604779580026,213.5604779580026,214.56069549999665,215.29426024999702,215.52750537500833,215.52750537500833,215.52750537500833,216.56073729100171,216.56073729100171,216.56073729100171,216.56073729100171,217.59112345799804,200008,006,2023-04-14_11h37.19.572,DMS_et_12-36,2022.2.4,None,
,,,,,,,,,,,,,,,,,,,,,,,,,,,,,,,,,,,1,0,1,0,,,,,,,,,217.59112345799804,229.62207737498102,,,,,,,,,,,,,200008,006,2023-04-14_11h37.19.572,DMS_et_12-36,2022.2.4,None,
19,PRED,12,0.9716390954798,2,images/picture_3.png,images/picture_1.png,0,"[11.733433509789464, 11.733433509789462]",11.733433509789464,11.733433509789462,images/picture_2.png,1,"[-11.733433509789462, 11.733433509789464]",-11.733433509789462,11.733433509789464,images/picture_3.png,2,"[-11.733433509789466, -11.733433509789462]",-11.733433509789464,-11.733433509789462,0,1,1,0.9716390954798,1.9716390954798,1.0283609045201998,3.0,1,1.7216390954798002,0,4.0,3.0,1,2,2,0,2,0,0,0,0,1,,,,,,,229.62207737498102,229.62207737498102,230.62725845800014,231.34755054098787,231.58035620799637,231.58035620799637,231.58035620799637,232.61380837499746,232.61380837499746,232.61380837499746,232.61380837499746,233.64612920800573,200008,006,2023-04-14_11h37.19.572,DMS_et_12-36,2022.2.4,None,
23,PRED,12,0.9716390954798,2,images/picture_3.png,images/picture_1.png,0,"[11.733433509789462, -11.733433509789466]",11.733433509789462,-11.733433509789464,images/picture_2.png,1,"[-11.733433509789466, -11.733433509789462]",-11.733433509789464,-11.733433509789462,images/picture_3.png,2,"[11.733433509789464, 11.733433509789462]",11.733433509789464,11.733433509789462,0,1,1,0.9716390954798,1.9716390954798,1.0283609045201998,3.0,1,1.7216390954798002,0,4.0,3.0,1,2,2,0,2,0,0,1,1,5,,,,,,,233.64612920800573,233.64612920800573,234.66077983300784,235.3801534579834,235.59402491600486,235.59402491600486,235.59402491600486,236.62749600000097,236.62749600000097,236.62749600000097,236.62749600000097,237.64691833299003,200008,006,2023-04-14_11h37.19.572,DMS_et_12-36,2022.2.4,None,
18,PRED,12,0.9716390954798,2,images/picture_3.png,images/picture_1.png,0,"[11.733433509789464, 11.733433509789462]",11.733433509789464,11.733433509789462,images/picture_2.png,1,"[-11.733433509789462, 11.733433509789464]",-11.733433509789462,11.733433509789464,images/picture_3.png,2,"[11.733433509789462, -11.733433509789466]",11.733433509789462,-11.733433509789464,0,1,1,0.9716390954798,1.9716390954798,1.0283609045201998,3.0,1,1.7216390954798002,0,4.0,3.0,1,2,2,0,2,0,0,2,2,0,,,,,,,237.64691833299003,237.64691833299003,238.66055908298586,239.38034533298924,239.59420120800496,239.59420120800496,239.59420120800496,240.62723912499496,240.62723912499496,240.62723912499496,240.62723912499496,241.64645787500194,200008,006,2023-04-14_11h37.19.572,DMS_et_12-36,2022.2.4,None,
20,PRED,12,0.9716390954798,2,images/picture_3.png,images/picture_1.png,0,"[11.733433509789464, 11.733433509789462]",11.733433509789464,11.733433509789462,images/picture_2.png,1,"[-11.733433509789462, 11.733433509789464]",-11.733433509789462,11.733433509789464,images/picture_3.png,2,"[11.733433509789462, -11.733433509789466]",11.733433509789462,-11.733433509789464,0,1,1,0.9716390954798,1.9716390954798,1.0283609045201998,3.0,1,1.7216390954798002,0,4.0,3.0,1,2,2,0,2,0,0,3,3,2,,,,,,,241.64645787500194,241.64645787500194,242.6607388749835,243.38063825000427,243.5942064159899,243.5942064159899,243.5942064159899,244.627481582982,244.627481582982,244.627481582982,244.627481582982,245.64654541600612,200008,006,2023-04-14_11h37.19.572,DMS_et_12-36,2022.2.4,None,
25,PRED,12,0.9716390954798,2,images/picture_3.png,images/picture_1.png,0,"[-11.733433509789466, -11.733433509789462]",-11.733433509789464,-11.733433509789462,images/picture_2.png,1,"[11.733433509789462, -11.733433509789466]",11.733433509789462,-11.733433509789464,images/picture_3.png,2,"[-11.733433509789462, 11.733433509789464]",-11.733433509789462,11.733433509789464,0,1,1,0.9716390954798,1.9716390954798,1.0283609045201998,3.0,1,1.7216390954798002,0,4.0,3.0,1,2,2,0,2,0,0,4,4,7,,,,,,,245.64654541600612,245.64654541600612,246.6612414580013,247.38061500000185,247.59403012500843,247.59403012500843,247.59403012500843,248.62748704099795,248.62748704099795,248.62748704099795,248.62748704099795,249.64966687498963,200008,006,2023-04-14_11h37.19.572,DMS_et_12-36,2022.2.4,None,
21,PRED,12,0.9716390954798,2,images/picture_3.png,images/picture_1.png,0,"[-11.733433509789462, 11.733433509789464]",-11.733433509789462,11.733433509789464,images/picture_2.png,1,"[11.733433509789462, -11.733433509789466]",11.733433509789462,-11.733433509789464,images/picture_3.png,2,"[11.733433509789464, 11.733433509789462]",11.733433509789464,11.733433509789462,0,1,1,0.9716390954798,1.9716390954798,1.0283609045201998,3.0,1,1.7216390954798002,0,4.0,3.0,1,2,2,0,2,0,0,5,5,3,,,,,,,249.64966687498963,249.64966687498963,250.66067250000197,251.37935554099386,251.5940537499846,251.5940537499846,251.5940537499846,252.62749979100772,252.62749979100772,252.62749979100772,252.62749979100772,253.64657929100213,200008,006,2023-04-14_11h37.19.572,DMS_et_12-36,2022.2.4,None,
26,PRED,12,0.9716390954798,2,images/picture_3.png,images/picture_1.png,0,"[11.733433509789462, -11.733433509789466]",11.733433509789462,-11.733433509789464,images/picture_2.png,1,"[-11.733433509789466, -11.733433509789462]",-11.733433509789464,-11.733433509789462,images/picture_3.png,2,"[11.733433509789464, 11.733433509789462]",11.733433509789464,11.733433509789462,0,1,1,0.9716390954798,1.9716390954798,1.0283609045201998,3.0,1,1.7216390954798002,0,4.0,3.0,1,2,2,0,2,0,0,6,6,8,,,,,,,253.64657929100213,253.64657929100213,254.66075041599106,255.38029658299638,255.5941638329823,255.5941638329823,255.5941638329823,256.6275047499803,256.6275047499803,256.6275047499803,256.6275047499803,257.6461607499805,200008,006,2023-04-14_11h37.19.572,DMS_et_12-36,2022.2.4,None,
24,PRED,12,0.9716390954798,2,images/picture_3.png,images/picture_1.png,0,"[11.733433509789464, 11.733433509789462]",11.733433509789464,11.733433509789462,images/picture_2.png,1,"[11.733433509789462, -11.733433509789466]",11.733433509789462,-11.733433509789464,images/picture_3.png,2,"[-11.733433509789466, -11.733433509789462]",-11.733433509789464,-11.733433509789462,0,1,1,0.9716390954798,1.9716390954798,1.0283609045201998,3.0,1,1.7216390954798002,0,4.0,3.0,1,2,2,0,2,0,0,7,7,6,,,,,,,257.6461607499805,257.6461607499805,258.66093541600276,259.3802359580004,259.5941937500029,259.5941937500029,259.5941937500029,260.6274530829978,260.6274530829978,260.6274530829978,260.6274530829978,261.62802345800446,200008,006,2023-04-14_11h37.19.572,DMS_et_12-36,2022.2.4,None,
22,PRED,12,0.9716390954798,2,images/picture_3.png,images/picture_1.png,0,"[11.733433509789464, 11.733433509789462]",11.733433509789464,11.733433509789462,images/picture_2.png,1,"[-11.733433509789466, -11.733433509789462]",-11.733433509789464,-11.733433509789462,images/picture_3.png,2,"[11.733433509789462, -11.733433509789466]",11.733433509789462,-11.733433509789464,0,1,1,0.9716390954798,1.9716390954798,1.0283609045201998,3.0,1,1.7216390954798002,0,4.0,3.0,1,2,2,0,2,0,0,8,8,4,,,,,,,261.62802345800446,261.62802345800446,262.62747904099524,263.36098487500567,263.59418670798186,263.59418670798186,263.59418670798186,264.6274845000007,264.6274845000007,264.6274845000007,264.6274845000007,265.6672862909909,200008,006,2023-04-14_11h37.19.572,DMS_et_12-36,2022.2.4,None,
,,,,,,,,,,,,,,,,,,,,,,,,,,,,,,,,,,,2,0,2,0,,,,,,,,,265.6672862909909,277.7007670409803,,,,,,,,,,,,,200008,006,2023-04-14_11h37.19.572,DMS_et_12-36,2022.2.4,None,
27,UNPRED,12,0.9716390954798,2,images/picture_3.png,images/picture_1.png,0,"[11.733433509789462, -11.733433509789466]",11.733433509789462,-11.733433509789464,images/picture_2.png,1,"[11.733433509789464, 11.733433509789462]",11.733433509789464,11.733433509789462,images/picture_3.png,2,"[-11.733433509789466, -11.733433509789462]",-11.733433509789464,-11.733433509789462,0,1,1,0.9716390954798,1.9716390954798,1.0283609045201998,3.0,1,1.7216390954798002,0,4.0,3.0,1,2,3,0,3,0,0,0,0,0,,,,,,,277.7007670409803,277.7007670409803,278.7135932910023,279.42768345799414,279.66103374998784,279.66103374998784,279.66103374998784,280.6942336659995,280.6942336659995,280.6942336659995,280.6942336659995,281.69383891599136,200008,006,2023-04-14_11h37.19.572,DMS_et_12-36,2022.2.4,None,
28,UNPRED,12,0.9716390954798,0,images/picture_1.png,images/picture_1.png,0,"[-11.733433509789466, -11.733433509789462]",-11.733433509789464,-11.733433509789462,images/picture_2.png,1,"[-11.733433509789462, 11.733433509789464]",-11.733433509789462,11.733433509789464,images/picture_3.png,2,"[11.733433509789462, -11.733433509789466]",11.733433509789462,-11.733433509789464,0,1,1,0.9716390954798,1.9716390954798,1.0283609045201998,3.0,1,1.7216390954798002,0,4.0,3.0,1,2,3,0,3,0,0,1,1,1,,,,,,,281.69383891599136,281.69383891599136,282.69420858300873,283.4274881659949,283.6608140830067,283.6608140830067,283.6608140830067,284.69433079098235,284.69433079098235,284.69433079098235,284.69433079098235,285.69366429100046,200008,006,2023-04-14_11h37.19.572,DMS_et_12-36,2022.2.4,None,
30,UNPRED,12,0.9716390954798,1,images/picture_2.png,images/picture_1.png,0,"[11.733433509789464, 11.733433509789462]",11.733433509789464,11.733433509789462,images/picture_2.png,1,"[-11.733433509789462, 11.733433509789464]",-11.733433509789462,11.733433509789464,images/picture_3.png,2,"[11.733433509789462, -11.733433509789466]",11.733433509789462,-11.733433509789464,0,1,1,0.9716390954798,1.9716390954798,1.0283609045201998,3.0,1,1.7216390954798002,0,4.0,3.0,1,2,3,0,3,0,0,2,2,3,,,,,,,285.69366429100046,285.69366429100046,286.6942476659897,287.4275995409989,287.66094162498484,287.66094162498484,287.66094162498484,288.69424129099934,288.69424129099934,288.69424129099934,288.69424129099934,289.6936292499886,200008,006,2023-04-14_11h37.19.572,DMS_et_12-36,2022.2.4,None,
34,UNPRED,12,0.9716390954798,0,images/picture_1.png,images/picture_1.png,0,"[-11.733433509789466, -11.733433509789462]",-11.733433509789464,-11.733433509789462,images/picture_2.png,1,"[11.733433509789462, -11.733433509789466]",11.733433509789462,-11.733433509789464,images/picture_3.png,2,"[11.733433509789464, 11.733433509789462]",11.733433509789464,11.733433509789462,0,1,1,0.9716390954798,1.9716390954798,1.0283609045201998,3.0,1,1.7216390954798002,0,4.0,3.0,1,2,3,0,3,0,0,3,3,7,,,,,,,289.6936292499886,289.6936292499886,290.69422633299837,291.4272816249868,291.6606109160057,291.6606109160057,291.6606109160057,292.6942693750025,292.6942693750025,292.6942693750025,292.6942693750025,293.71313070799806,200008,006,2023-04-14_11h37.19.572,DMS_et_12-36,2022.2.4,None,
35,UNPRED,12,0.9716390954798,2,images/picture_3.png,images/picture_1.png,0,"[-11.733433509789462, 11.733433509789464]",-11.733433509789462,11.733433509789464,images/picture_2.png,1,"[-11.733433509789466, -11.733433509789462]",-11.733433509789464,-11.733433509789462,images/picture_3.png,2,"[11.733433509789464, 11.733433509789462]",11.733433509789464,11.733433509789462,0,1,1,0.9716390954798,1.9716390954798,1.0283609045201998,3.0,1,1.7216390954798002,0,4.0,3.0,1,2,3,0,3,0,0,4,4,8,,,,,,,293.71313070799806,293.71313070799806,294.72772274998715,295.4470395829994,295.66074341599597,295.66074341599597,295.66074341599597,296.6942314580083,296.6942314580083,296.6942314580083,296.6942314580083,297.6932355829922,200008,006,2023-04-14_11h37.19.572,DMS_et_12-36,2022.2.4,None,
31,UNPRED,12,0.9716390954798,0,images/picture_1.png,images/picture_1.png,0,"[11.733433509789462, -11.733433509789466]",11.733433509789462,-11.733433509789464,images/picture_2.png,1,"[11.733433509789464, 11.733433509789462]",11.733433509789464,11.733433509789462,images/picture_3.png,2,"[-11.733433509789462, 11.733433509789464]",-11.733433509789462,11.733433509789464,0,1,1,0.9716390954798,1.9716390954798,1.0283609045201998,3.0,1,1.7216390954798002,0,4.0,3.0,1,2,3,0,3,0,0,5,5,4,,,,,,,297.6932355829922,297.6932355829922,298.6942012909858,299.4275856659806,299.6609722909925,299.6609722909925,299.6609722909925,300.6942718749924,300.6942718749924,300.6942718749924,300.6942718749924,301.69412899998133,200008,006,2023-04-14_11h37.19.572,DMS_et_12-36,2022.2.4,None,
32,UNPRED,12,0.9716390954798,0,images/picture_1.png,images/picture_1.png,0,"[11.733433509789464, 11.733433509789462]",11.733433509789464,11.733433509789462,images/picture_2.png,1,"[11.733433509789462, -11.733433509789466]",11.733433509789462,-11.733433509789464,images/picture_3.png,2,"[-11.733433509789462, 11.733433509789464]",-11.733433509789462,11.733433509789464,0,1,1,0.9716390954798,1.9716390954798,1.0283609045201998,3.0,1,1.7216390954798002,0,4.0,3.0,1,2,3,0,3,0,0,6,6,5,,,,,,,301.69412899998133,301.69412899998133,302.69419466599356,303.4277721660037,303.6609361250012,303.6609361250012,303.6609361250012,304.6940784580074,304.6940784580074,304.6940784580074,304.6940784580074,305.6935685829958,200008,006,2023-04-14_11h37.19.572,DMS_et_12-36,2022.2.4,None,
29,UNPRED,12,0.9716390954798,1,images/picture_2.png,images/picture_1.png,0,"[-11.733433509789466, -11.733433509789462]",-11.733433509789464,-11.733433509789462,images/picture_2.png,1,"[11.733433509789464, 11.733433509789462]",11.733433509789464,11.733433509789462,images/picture_3.png,2,"[11.733433509789462, -11.733433509789466]",11.733433509789462,-11.733433509789464,0,1,1,0.9716390954798,1.9716390954798,1.0283609045201998,3.0,1,1.7216390954798002,0,4.0,3.0,1,2,3,0,3,0,0,7,7,2,,,,,,,305.6935685829958,305.6935685829958,306.6942718329956,307.4275014580053,307.66096558299614,307.66096558299614,307.66096558299614,308.69423645798815,308.69423645798815,308.69423645798815,308.69423645798815,309.6936090409872,200008,006,2023-04-14_11h37.19.572,DMS_et_12-36,2022.2.4,None,
33,UNPRED,12,0.9716390954798,1,images/picture_2.png,images/picture_1.png,0,"[11.733433509789464, 11.733433509789462]",11.733433509789464,11.733433509789462,images/picture_2.png,1,"[11.733433509789462, -11.733433509789466]",11.733433509789462,-11.733433509789464,images/picture_3.png,2,"[-11.733433509789466, -11.733433509789462]",-11.733433509789464,-11.733433509789462,0,1,1,0.9716390954798,1.9716390954798,1.0283609045201998,3.0,1,1.7216390954798002,0,4.0,3.0,1,2,3,0,3,0,0,8,8,6,,,,,,,309.6936090409872,309.6936090409872,310.69418958298047,311.4275232079963,311.66094645799603,311.66094645799603,311.66094645799603,312.6939065409824,312.6939065409824,312.6939065409824,312.6939065409824,313.7455505830003,200008,006,2023-04-14_11h37.19.572,DMS_et_12-36,2022.2.4,None,
,,,,,,,,,,,,,,,,,,,,,,,,,,,,,,,,,,,3,0,3,0,,,,,,,,,313.7455505830003,325.78899658299633,,,,,,,,,,,,,200008,006,2023-04-14_11h37.19.572,DMS_et_12-36,2022.2.4,None,
39,PRED,12,0.9716390954798,2,images/picture_3.png,images/picture_1.png,0,"[11.733433509789462, -11.733433509789466]",11.733433509789462,-11.733433509789464,images/picture_2.png,1,"[-11.733433509789462, 11.733433509789464]",-11.733433509789462,11.733433509789464,images/picture_3.png,2,"[11.733433509789464, 11.733433509789462]",11.733433509789464,11.733433509789462,0,1,1,0.9716390954798,1.9716390954798,1.0283609045201998,3.0,1,1.7216390954798002,0,4.0,3.0,1,2,4,0,4,0,0,0,0,3,,,,,,,325.78899658299633,325.78899658299633,326.79423299999326,327.51381791598396,327.7475925000035,327.7475925000035,327.7475925000035,328.78046824998455,328.78046824998455,328.78046824998455,328.78046824998455,329.81300679099513,200008,006,2023-04-14_11h37.19.572,DMS_et_12-36,2022.2.4,None,
36,PRED,12,0.9716390954798,2,images/picture_3.png,images/picture_1.png,0,"[-11.733433509789466, -11.733433509789462]",-11.733433509789464,-11.733433509789462,images/picture_2.png,1,"[11.733433509789462, -11.733433509789466]",11.733433509789462,-11.733433509789464,images/picture_3.png,2,"[-11.733433509789462, 11.733433509789464]",-11.733433509789462,11.733433509789464,0,1,1,0.9716390954798,1.9716390954798,1.0283609045201998,3.0,1,1.7216390954798002,0,4.0,3.0,1,2,4,0,4,0,0,1,1,0,,,,,,,329.81300679099513,329.81300679099513,330.82768612500513,331.54713008299586,331.76096891600173,331.76096891600173,331.76096891600173,332.79388233300415,332.79388233300415,332.79388233300415,332.79388233300415,333.81387208300293,200008,006,2023-04-14_11h37.19.572,DMS_et_12-36,2022.2.4,None,
42,PRED,12,0.9716390954798,2,images/picture_3.png,images/picture_1.png,0,"[11.733433509789462, -11.733433509789466]",11.733433509789462,-11.733433509789464,images/picture_2.png,1,"[-11.733433509789466, -11.733433509789462]",-11.733433509789464,-11.733433509789462,images/picture_3.png,2,"[11.733433509789464, 11.733433509789462]",11.733433509789464,11.733433509789462,0,1,1,0.9716390954798,1.9716390954798,1.0283609045201998,3.0,1,1.7216390954798002,0,4.0,3.0,1,2,4,0,4,0,0,2,2,6,,,,,,,333.81387208300293,333.81387208300293,334.8275042499881,335.54711195800337,335.76092979099485,335.76092979099485,335.76092979099485,336.794471125002,336.794471125002,336.794471125002,336.794471125002,337.81357900000876,200008,006,2023-04-14_11h37.19.572,DMS_et_12-36,2022.2.4,None,
44,PRED,12,0.9716390954798,2,images/picture_3.png,images/picture_1.png,0,"[11.733433509789464, 11.733433509789462]",11.733433509789464,11.733433509789462,images/picture_2.png,1,"[-11.733433509789466, -11.733433509789462]",-11.733433509789464,-11.733433509789462,images/picture_3.png,2,"[11.733433509789462, -11.733433509789466]",11.733433509789462,-11.733433509789464,0,1,1,0.9716390954798,1.9716390954798,1.0283609045201998,3.0,1,1.7216390954798002,0,4.0,3.0,1,2,4,0,4,0,0,3,3,8,,,,,,,337.81357900000876,337.81357900000876,338.8276928749983,339.5472844580072,339.76095662498847,339.76095662498847,339.76095662498847,340.7942225410079,340.7942225410079,340.7942225410079,340.7942225410079,341.8128359580005,200008,006,2023-04-14_11h37.19.572,DMS_et_12-36,2022.2.4,None,
38,PRED,12,0.9716390954798,2,images/picture_3.png,images/picture_1.png,0,"[-11.733433509789462, 11.733433509789464]",-11.733433509789462,11.733433509789464,images/picture_2.png,1,"[11.733433509789462, -11.733433509789466]",11.733433509789462,-11.733433509789464,images/picture_3.png,2,"[-11.733433509789466, -11.733433509789462]",-11.733433509789464,-11.733433509789462,0,1,1,0.9716390954798,1.9716390954798,1.0283609045201998,3.0,1,1.7216390954798002,0,4.0,3.0,1,2,4,0,4,0,0,4,4,2,,,,,,,341.8128359580005,341.8128359580005,342.8273196659866,343.54607054099324,343.7607286660059,343.7607286660059,343.7607286660059,344.79424345798907,344.79424345798907,344.79424345798907,344.79424345798907,345.81312095798785,200008,006,2023-04-14_11h37.19.572,DMS_et_12-36,2022.2.4,None,
43,PRED,12,0.9716390954798,2,images/picture_3.png,images/picture_1.png,0,"[-11.733433509789462, 11.733433509789464]",-11.733433509789462,11.733433509789464,images/picture_2.png,1,"[11.733433509789464, 11.733433509789462]",11.733433509789464,11.733433509789462,images/picture_3.png,2,"[11.733433509789462, -11.733433509789466]",11.733433509789462,-11.733433509789464,0,1,1,0.9716390954798,1.9716390954798,1.0283609045201998,3.0,1,1.7216390954798002,0,4.0,3.0,1,2,4,0,4,0,0,5,5,7,,,,,,,345.81312095798785,345.81312095798785,346.82770241599064,347.5477132500091,347.7607844999875,347.7607844999875,347.7607844999875,348.79424220800865,348.79424220800865,348.79424220800865,348.79424220800865,349.8130584159808,200008,006,2023-04-14_11h37.19.572,DMS_et_12-36,2022.2.4,None,
40,PRED,12,0.9716390954798,2,images/picture_3.png,images/picture_1.png,0,"[-11.733433509789462, 11.733433509789464]",-11.733433509789462,11.733433509789464,images/picture_2.png,1,"[-11.733433509789466, -11.733433509789462]",-11.733433509789464,-11.733433509789462,images/picture_3.png,2,"[11.733433509789462, -11.733433509789466]",11.733433509789462,-11.733433509789464,0,1,1,0.9716390954798,1.9716390954798,1.0283609045201998,3.0,1,1.7216390954798002,0,4.0,3.0,1,2,4,0,4,0,0,6,6,4,,,,,,,349.8130584159808,349.8130584159808,350.8276713749801,351.5471722079965,351.7609697910084,351.7609697910084,351.7609697910084,352.79426470800536,352.79426470800536,352.79426470800536,352.79426470800536,353.79485262499657,200008,006,2023-04-14_11h37.19.572,DMS_et_12-36,2022.2.4,None,
37,PRED,12,0.9716390954798,2,images/picture_3.png,images/picture_1.png,0,"[-11.733433509789462, 11.733433509789464]",-11.733433509789462,11.733433509789464,images/picture_2.png,1,"[11.733433509789464, 11.733433509789462]",11.733433509789464,11.733433509789462,images/picture_3.png,2,"[-11.733433509789466, -11.733433509789462]",-11.733433509789464,-11.733433509789462,0,1,1,0.9716390954798,1.9716390954798,1.0283609045201998,3.0,1,1.7216390954798002,0,4.0,3.0,1,2,4,0,4,0,0,7,7,1,,,,,,,353.79485262499657,353.79485262499657,354.79428141599055,355.5276584579842,355.7609314160072,355.7609314160072,355.7609314160072,356.7942494160088,356.7942494160088,356.7942494160088,356.7942494160088,357.813251124986,200008,006,2023-04-14_11h37.19.572,DMS_et_12-36,2022.2.4,None,
41,PRED,12,0.9716390954798,2,images/picture_3.png,images/picture_1.png,0,"[-11.733433509789466, -11.733433509789462]",-11.733433509789464,-11.733433509789462,images/picture_2.png,1,"[11.733433509789464, 11.733433509789462]",11.733433509789464,11.733433509789462,images/picture_3.png,2,"[-11.733433509789462, 11.733433509789464]",-11.733433509789462,11.733433509789464,0,1,1,0.9716390954798,1.9716390954798,1.0283609045201998,3.0,1,1.7216390954798002,0,4.0,3.0,1,2,4,0,4,0,0,8,8,5,,,,,,,357.813251124986,357.813251124986,358.827659750008,359.54714787498233,359.7609226249915,359.7609226249915,359.7609226249915,360.794277457986,360.794277457986,360.794277457986,360.794277457986,361.9005819580052,200008,006,2023-04-14_11h37.19.572,DMS_et_12-36,2022.2.4,None,
,,,,,,,,,,,,,,,,,,,,,,,,,,,,,,,,,,,4,0,4,0,,,,,,,,,361.9005819580052,373.91766295800335,,,,,,,,,,,,,200008,006,2023-04-14_11h37.19.572,DMS_et_12-36,2022.2.4,None,
52,UNPRED,12,0.9716390954798,1,images/picture_2.png,images/picture_1.png,0,"[11.733433509789462, -11.733433509789466]",11.733433509789462,-11.733433509789464,images/picture_2.png,1,"[-11.733433509789462, 11.733433509789464]",-11.733433509789462,11.733433509789464,images/picture_3.png,2,"[-11.733433509789466, -11.733433509789462]",-11.733433509789464,-11.733433509789462,0,1,1,0.9716390954798,1.9716390954798,1.0283609045201998,3.0,1,1.7216390954798002,0,4.0,3.0,1,2,5,0,5,0,0,0,0,7,,,,,,,373.91766295800335,373.91766295800335,374.92768520800746,375.64697645799606,375.89426245799405,375.89426245799405,375.89426245799405,376.9277516659931,376.9277516659931,376.9277516659931,376.9139196249889,377.9269361659826,200008,006,2023-04-14_11h37.19.572,DMS_et_12-36,2022.2.4,None,
49,UNPRED,12,0.9716390954798,1,images/picture_2.png,images/picture_1.png,0,"[11.733433509789462, -11.733433509789466]",11.733433509789462,-11.733433509789464,images/picture_2.png,1,"[-11.733433509789466, -11.733433509789462]",-11.733433509789464,-11.733433509789462,images/picture_3.png,2,"[-11.733433509789462, 11.733433509789464]",-11.733433509789462,11.733433509789464,0,1,1,0.9716390954798,1.9716390954798,1.0283609045201998,3.0,1,1.7216390954798002,0,4.0,3.0,1,2,5,0,5,0,0,1,1,4,,,,,,,377.9269361659826,377.9269361659826,378.92769945799955,379.6609947079851,379.8942318329937,379.8942318329937,379.8942318329937,380.9277430829825,380.9277430829825,380.9277430829825,380.9277430829825,381.9270707499818,200008,006,2023-04-14_11h37.19.572,DMS_et_12-36,2022.2.4,None,
53,UNPRED,12,0.9716390954798,0,images/picture_1.png,images/picture_1.png,0,"[11.733433509789464, 11.733433509789462]",11.733433509789464,11.733433509789462,images/picture_2.png,1,"[-11.733433509789466, -11.733433509789462]",-11.733433509789464,-11.733433509789462,images/picture_3.png,2,"[11.733433509789462, -11.733433509789466]",11.733433509789462,-11.733433509789464,0,1,1,0.9716390954798,1.9716390954798,1.0283609045201998,3.0,1,1.7216390954798002,0,4.0,3.0,1,2,5,0,5,0,0,2,2,8,,,,,,,381.9270707499818,381.9270707499818,382.92769124999177,383.66071887500584,383.8939866249857,383.8939866249857,383.8939866249857,384.92791545798536,384.92791545798536,384.92791545798536,384.92791545798536,385.92738433298655,200008,006,2023-04-14_11h37.19.572,DMS_et_12-36,2022.2.4,None,
46,UNPRED,12,0.9716390954798,0,images/picture_1.png,images/picture_1.png,0,"[11.733433509789464, 11.733433509789462]",11.733433509789464,11.733433509789462,images/picture_2.png,1,"[11.733433509789462, -11.733433509789466]",11.733433509789462,-11.733433509789464,images/picture_3.png,2,"[-11.733433509789462, 11.733433509789464]",-11.733433509789462,11.733433509789464,0,1,1,0.9716390954798,1.9716390954798,1.0283609045201998,3.0,1,1.7216390954798002,0,4.0,3.0,1,2,5,0,5,0,0,3,3,1,,,,,,,385.92738433298655,385.92738433298655,386.92768204098684,387.6610300829925,387.8944594579807,387.8944594579807,387.8944594579807,388.92772966600023,388.92772966600023,388.92772966600023,388.92772966600023,389.94656708298135,200008,006,2023-04-14_11h37.19.572,DMS_et_12-36,2022.2.4,None,
50,UNPRED,12,0.9716390954798,2,images/picture_3.png,images/picture_1.png,0,"[-11.733433509789462, 11.733433509789464]",-11.733433509789462,11.733433509789464,images/picture_2.png,1,"[11.733433509789462, -11.733433509789466]",11.733433509789462,-11.733433509789464,images/picture_3.png,2,"[11.733433509789464, 11.733433509789462]",11.733433509789464,11.733433509789462,0,1,1,0.9716390954798,1.9716390954798,1.0283609045201998,3.0,1,1.7216390954798002,0,4.0,3.0,1,2,5,0,5,0,0,4,4,5,,,,,,,389.94656708298135,389.94656708298135,390.960845374997,391.68066662500496,391.89417741599027,391.89417741599027,391.89417741599027,392.9276947909966,392.9276947909966,392.9276947909966,392.9276947909966,393.92850745798205,200008,006,2023-04-14_11h37.19.572,DMS_et_12-36,2022.2.4,None,
48,UNPRED,12,0.9716390954798,2,images/picture_3.png,images/picture_1.png,0,"[11.733433509789464, 11.733433509789462]",11.733433509789464,11.733433509789462,images/picture_2.png,1,"[-11.733433509789466, -11.733433509789462]",-11.733433509789464,-11.733433509789462,images/picture_3.png,2,"[-11.733433509789462, 11.733433509789464]",-11.733433509789462,11.733433509789464,0,1,1,0.9716390954798,1.9716390954798,1.0283609045201998,3.0,1,1.7216390954798002,0,4.0,3.0,1,2,5,0,5,0,0,5,5,3,,,,,,,393.92850745798205,393.92850745798205,394.92733383298037,395.6609347499907,395.89442891598446,395.89442891598446,395.89442891598446,396.9277263749973,396.9277263749973,396.9277263749973,396.9277263749973,397.94669991600676,200008,006,2023-04-14_11h37.19.572,DMS_et_12-36,2022.2.4,None,
51,UNPRED,12,0.9716390954798,2,images/picture_3.png,images/picture_1.png,0,"[-11.733433509789466, -11.733433509789462]",-11.733433509789464,-11.733433509789462,images/picture_2.png,1,"[11.733433509789462, -11.733433509789466]",11.733433509789462,-11.733433509789464,images/picture_3.png,2,"[-11.733433509789462, 11.733433509789464]",-11.733433509789462,11.733433509789464,0,1,1,0.9716390954798,1.9716390954798,1.0283609045201998,3.0,1,1.7216390954798002,0,4.0,3.0,1,2,5,0,5,0,0,6,6,6,,,,,,,397.94669991600676,397.94669991600676,398.9609888329869,399.68091274998733,399.89426229099627,399.89426229099627,399.89426229099627,400.9277107079979,400.9277107079979,400.9277107079979,400.9277107079979,401.9275677499827,200008,006,2023-04-14_11h37.19.572,DMS_et_12-36,2022.2.4,None,
47,UNPRED,12,0.9716390954798,1,images/picture_2.png,images/picture_1.png,0,"[11.733433509789462, -11.733433509789466]",11.733433509789462,-11.733433509789464,images/picture_2.png,1,"[11.733433509789464, 11.733433509789462]",11.733433509789464,11.733433509789462,images/picture_3.png,2,"[-11.733433509789462, 11.733433509789464]",-11.733433509789462,11.733433509789464,0,1,1,0.9716390954798,1.9716390954798,1.0283609045201998,3.0,1,1.7216390954798002,0,4.0,3.0,1,2,5,0,5,0,0,7,7,2,,,,,,,401.9275677499827,401.9275677499827,402.9277556249872,403.6610053750046,403.8942782499944,403.8942782499944,403.8942782499944,404.9274233749893,404.9274233749893,404.9274233749893,404.9274233749893,405.9271672909963,200008,006,2023-04-14_11h37.19.572,DMS_et_12-36,2022.2.4,None,
45,UNPRED,12,0.9716390954798,0,images/picture_1.png,images/picture_1.png,0,"[-11.733433509789466, -11.733433509789462]",-11.733433509789464,-11.733433509789462,images/picture_2.png,1,"[11.733433509789464, 11.733433509789462]",11.733433509789464,11.733433509789462,images/picture_3.png,2,"[11.733433509789462, -11.733433509789466]",11.733433509789462,-11.733433509789464,0,1,1,0.9716390954798,1.9716390954798,1.0283609045201998,3.0,1,1.7216390954798002,0,4.0,3.0,1,2,5,0,5,0,0,8,8,0,,,,,,,405.9271672909963,405.9271672909963,406.92769483299344,407.6610817909823,407.89441729098326,407.89441729098326,407.89441729098326,408.927743999986,408.927743999986,408.927743999986,408.927743999986,409.9962999999989,200008,006,2023-04-14_11h37.19.572,DMS_et_12-36,2022.2.4,None,
,,,,,,,,,,,,,,,,,,,,,,,,,,,,,,,,,,,5,0,5,0,,,,,,,,,409.9962999999989,422.02697779098526,,,,,,,,,,,,,200008,006,2023-04-14_11h37.19.572,DMS_et_12-36,2022.2.4,None,
54,PRED,12,0.9716390954798,2,images/picture_3.png,images/picture_1.png,0,"[-11.733433509789462, 11.733433509789464]",-11.733433509789462,11.733433509789464,images/picture_2.png,1,"[-11.733433509789466, -11.733433509789462]",-11.733433509789464,-11.733433509789462,images/picture_3.png,2,"[11.733433509789464, 11.733433509789462]",11.733433509789464,11.733433509789462,0,1,1,0.9716390954798,1.9716390954798,1.0283609045201998,3.0,1,1.7216390954798002,0,4.0,3.0,1,2,6,0,6,0,0,0,0,0,,,,,,,422.02697779098526,422.02697779098526,423.0276862909959,423.76112908299547,423.9940844999801,423.9940844999801,423.9940844999801,425.027516208007,425.027516208007,425.027516208007,425.01279054098995,426.0471477909887,200008,006,2023-04-14_11h37.19.572,DMS_et_12-36,2022.2.4,None,
58,PRED,12,0.9716390954798,2,images/picture_3.png,images/picture_1.png,0,"[-11.733433509789462, 11.733433509789464]",-11.733433509789462,11.733433509789464,images/picture_2.png,1,"[11.733433509789462, -11.733433509789466]",11.733433509789462,-11.733433509789464,images/picture_3.png,2,"[-11.733433509789466, -11.733433509789462]",-11.733433509789464,-11.733433509789462,0,1,1,0.9716390954798,1.9716390954798,1.0283609045201998,3.0,1,1.7216390954798002,0,4.0,3.0,1,2,6,0,6,0,0,1,1,4,,,,,,,426.0471477909887,426.0471477909887,427.0609728329873,427.7809699579957,427.9942988329858,427.9942988329858,427.9942988329858,429.027691041003,429.027691041003,429.027691041003,429.027691041003,430.04707441598293,200008,006,2023-04-14_11h37.19.572,DMS_et_12-36,2022.2.4,None,
57,PRED,12,0.9716390954798,2,images/picture_3.png,images/picture_1.png,0,"[-11.733433509789462, 11.733433509789464]",-11.733433509789462,11.733433509789464,images/picture_2.png,1,"[-11.733433509789466, -11.733433509789462]",-11.733433509789464,-11.733433509789462,images/picture_3.png,2,"[11.733433509789462, -11.733433509789466]",11.733433509789462,-11.733433509789464,0,1,1,0.9716390954798,1.9716390954798,1.0283609045201998,3.0,1,1.7216390954798002,0,4.0,3.0,1,2,6,0,6,0,0,2,2,3,,,,,,,430.04707441598293,430.04707441598293,431.06102487500175,431.7805945829896,431.9945167079859,431.9945167079859,431.9945167079859,433.02770762500586,433.02770762500586,433.02770762500586,433.02770762500586,434.0464012080047,200008,006,2023-04-14_11h37.19.572,DMS_et_12-36,2022.2.4,None,
61,PRED,12,0.9716390954798,2,images/picture_3.png,images/picture_1.png,0,"[-11.733433509789462, 11.733433509789464]",-11.733433509789462,11.733433509789464,images/picture_2.png,1,"[11.733433509789462, -11.733433509789466]",11.733433509789462,-11.733433509789464,images/picture_3.png,2,"[-11.733433509789466, -11.733433509789462]",-11.733433509789464,-11.733433509789462,0,1,1,0.9716390954798,1.9716390954798,1.0283609045201998,3.0,1,1.7216390954798002,0,4.0,3.0,1,2,6,0,6,0,0,3,3,7,,,,,,,434.0464012080047,434.0464012080047,435.0606876249949,435.7796572079824,435.99405562499305,435.99405562499305,435.99405562499305,437.02771150000626,437.02771150000626,437.02771150000626,437.02771150000626,438.04658908298006,200008,006,2023-04-14_11h37.19.572,DMS_et_12-36,2022.2.4,None,
62,PRED,12,0.9716390954798,2,images/picture_3.png,images/picture_1.png,0,"[-11.733433509789466, -11.733433509789462]",-11.733433509789464,-11.733433509789462,images/picture_2.png,1,"[11.733433509789462, -11.733433509789466]",11.733433509789462,-11.733433509789464,images/picture_3.png,2,"[11.733433509789464, 11.733433509789462]",11.733433509789464,11.733433509789462,0,1,1,0.9716390954798,1.9716390954798,1.0283609045201998,3.0,1,1.7216390954798002,0,4.0,3.0,1,2,6,0,6,0,0,4,4,8,,,,,,,438.04658908298006,438.04658908298006,439.0608056659985,439.7804381659953,439.99444479099475,439.99444479099475,439.99444479099475,441.02775595799903,441.02775595799903,441.02775595799903,441.02775595799903,442.04658829100663,200008,006,2023-04-14_11h37.19.572,DMS_et_12-36,2022.2.4,None,
59,PRED,12,0.9716390954798,2,images/picture_3.png,images/picture_1.png,0,"[11.733433509789464, 11.733433509789462]",11.733433509789464,11.733433509789462,images/picture_2.png,1,"[-11.733433509789466, -11.733433509789462]",-11.733433509789464,-11.733433509789462,images/picture_3.png,2,"[11.733433509789462, -11.733433509789466]",11.733433509789462,-11.733433509789464,0,1,1,0.9716390954798,1.9716390954798,1.0283609045201998,3.0,1,1.7216390954798002,0,4.0,3.0,1,2,6,0,6,0,0,5,5,5,,,,,,,442.04658829100663,442.04658829100663,443.0609972499951,443.7806962909817,443.99445304099936,443.99445304099936,443.99445304099936,445.02777416599565,445.02777416599565,445.02777416599565,445.02777416599565,446.0277496659837,200008,006,2023-04-14_11h37.19.572,DMS_et_12-36,2022.2.4,None,
56,PRED,12,0.9716390954798,2,images/picture_3.png,images/picture_1.png,0,"[11.733433509789464, 11.733433509789462]",11.733433509789464,11.733433509789462,images/picture_2.png,1,"[-11.733433509789466, -11.733433509789462]",-11.733433509789464,-11.733433509789462,images/picture_3.png,2,"[-11.733433509789462, 11.733433509789464]",-11.733433509789462,11.733433509789464,0,1,1,0.9716390954798,1.9716390954798,1.0283609045201998,3.0,1,1.7216390954798002,0,4.0,3.0,1,2,6,0,6,0,0,6,6,2,,,,,,,446.0277496659837,446.0277496659837,447.02773083298234,447.7609954579966,447.9940965829883,447.9940965829883,447.9940965829883,449.0277285829943,449.0277285829943,449.0277285829943,449.0277285829943,450.0464509160083,200008,006,2023-04-14_11h37.19.572,DMS_et_12-36,2022.2.4,None,
55,PRED,12,0.9716390954798,2,images/picture_3.png,images/picture_1.png,0,"[11.733433509789464, 11.733433509789462]",11.733433509789464,11.733433509789462,images/picture_2.png,1,"[-11.733433509789466, -11.733433509789462]",-11.733433509789464,-11.733433509789462,images/picture_3.png,2,"[11.733433509789462, -11.733433509789466]",11.733433509789462,-11.733433509789464,0,1,1,0.9716390954798,1.9716390954798,1.0283609045201998,3.0,1,1.7216390954798002,0,4.0,3.0,1,2,6,0,6,0,0,7,7,1,,,,,,,450.0464509160083,450.0464509160083,451.0610663749976,451.7805772910069,451.9944649999961,451.9944649999961,451.9944649999961,453.02772670798004,453.02772670798004,453.02772670798004,453.02772670798004,454.04634400000214,200008,006,2023-04-14_11h37.19.572,DMS_et_12-36,2022.2.4,None,
60,PRED,12,0.9716390954798,2,images/picture_3.png,images/picture_1.png,0,"[-11.733433509789462, 11.733433509789464]",-11.733433509789462,11.733433509789464,images/picture_2.png,1,"[-11.733433509789466, -11.733433509789462]",-11.733433509789464,-11.733433509789462,images/picture_3.png,2,"[11.733433509789462, -11.733433509789466]",11.733433509789462,-11.733433509789464,0,1,1,0.9716390954798,1.9716390954798,1.0283609045201998,3.0,1,1.7216390954798002,0,4.0,3.0,1,2,6,0,6,0,0,8,8,6,,,,,,,454.04634400000214,454.04634400000214,455.0610128749977,455.7796105000016,455.9940399999905,455.9940399999905,455.9940399999905,457.0277442499937,457.0277442499937,457.0277442499937,457.0277442499937,458.1026447909826,200008,006,2023-04-14_11h37.19.572,DMS_et_12-36,2022.2.4,None,
,,,,,,,,,,,,,,,,,,,,,,,,,,,,,,,,,,,6,0,6,0,,,,,,,,,458.1026447909826,470.13675404098467,,,,,,,,,,,,,200008,006,2023-04-14_11h37.19.572,DMS_et_12-36,2022.2.4,None,
70,UNPRED,12,0.9716390954798,2,images/picture_3.png,images/picture_1.png,0,"[-11.733433509789462, 11.733433509789464]",-11.733433509789462,11.733433509789464,images/picture_2.png,1,"[11.733433509789462, -11.733433509789466]",11.733433509789462,-11.733433509789464,images/picture_3.png,2,"[-11.733433509789466, -11.733433509789462]",-11.733433509789464,-11.733433509789462,0,1,1,0.9716390954798,1.9716390954798,1.0283609045201998,3.0,1,1.7216390954798002,0,4.0,3.0,1,2,7,0,7,0,0,0,0,7,,,,,,,470.13675404098467,470.13675404098467,471.1471484579961,471.86113966599805,472.0944516659947,472.0944516659947,472.0944516659947,473.1277488330088,473.1277488330088,473.1277488330088,473.1277488330088,474.1471922500059,200008,006,2023-04-14_11h37.19.572,DMS_et_12-36,2022.2.4,None,
65,UNPRED,12,0.9716390954798,2,images/picture_3.png,images/picture_1.png,0,"[-11.733433509789462, 11.733433509789464]",-11.733433509789462,11.733433509789464,images/picture_2.png,1,"[11.733433509789464, 11.733433509789462]",11.733433509789464,11.733433509789462,images/picture_3.png,2,"[11.733433509789462, -11.733433509789466]",11.733433509789462,-11.733433509789464,0,1,1,0.9716390954798,1.9716390954798,1.0283609045201998,3.0,1,1.7216390954798002,0,4.0,3.0,1,2,7,0,7,0,0,1,1,2,,,,,,,474.1471922500059,474.1471922500059,475.1608452500077,475.8799026659981,476.09413154100184,476.09413154100184,476.09413154100184,477.1275326249888,477.1275326249888,477.1275326249888,477.1275326249888,478.146762999997,200008,006,2023-04-14_11h37.19.572,DMS_et_12-36,2022.2.4,None,
66,UNPRED,12,0.9716390954798,2,images/picture_3.png,images/picture_1.png,0,"[-11.733433509789466, -11.733433509789462]",-11.733433509789464,-11.733433509789462,images/picture_2.png,1,"[11.733433509789462, -11.733433509789466]",11.733433509789462,-11.733433509789464,images/picture_3.png,2,"[-11.733433509789462, 11.733433509789464]",-11.733433509789462,11.733433509789464,0,1,1,0.9716390954798,1.9716390954798,1.0283609045201998,3.0,1,1.7216390954798002,0,4.0,3.0,1,2,7,0,7,0,0,2,2,3,,,,,,,478.146762999997,478.146762999997,479.1610262079921,479.8806086249824,480.0945220410067,480.0945220410067,480.0945220410067,481.1277533749817,481.1277533749817,481.1277533749817,481.1277533749817,482.1465056659945,200008,006,2023-04-14_11h37.19.572,DMS_et_12-36,2022.2.4,None,
67,UNPRED,12,0.9716390954798,2,images/picture_3.png,images/picture_1.png,0,"[-11.733433509789462, 11.733433509789464]",-11.733433509789462,11.733433509789464,images/picture_2.png,1,"[-11.733433509789466, -11.733433509789462]",-11.733433509789464,-11.733433509789462,images/picture_3.png,2,"[11.733433509789462, -11.733433509789466]",11.733433509789462,-11.733433509789464,0,1,1,0.9716390954798,1.9716390954798,1.0283609045201998,3.0,1,1.7216390954798002,0,4.0,3.0,1,2,7,0,7,0,0,3,3,4,,,,,,,482.1465056659945,482.1465056659945,483.161156999995,483.8809626250004,484.094501124986,484.094501124986,484.094501124986,485.127767915983,485.127767915983,485.127767915983,485.127767915983,486.1275429999805,200008,006,2023-04-14_11h37.19.572,DMS_et_12-36,2022.2.4,None,
69,UNPRED,12,0.9716390954798,0,images/picture_1.png,images/picture_1.png,0,"[11.733433509789464, 11.733433509789462]",11.733433509789464,11.733433509789462,images/picture_2.png,1,"[-11.733433509789466, -11.733433509789462]",-11.733433509789464,-11.733433509789462,images/picture_3.png,2,"[11.733433509789462, -11.733433509789466]",11.733433509789462,-11.733433509789464,0,1,1,0.9716390954798,1.9716390954798,1.0283609045201998,3.0,1,1.7216390954798002,0,4.0,3.0,1,2,7,0,7,0,0,4,4,6,,,,,,,486.1275429999805,486.1275429999805,487.12752087498666,487.86113841598853,488.0945040000079,488.0945040000079,488.0945040000079,489.1279016250046,489.1279016250046,489.1279016250046,489.1279016250046,490.12745895798435,200008,006,2023-04-14_11h37.19.572,DMS_et_12-36,2022.2.4,None,
68,UNPRED,12,0.9716390954798,0,images/picture_1.png,images/picture_1.png,0,"[11.733433509789464, 11.733433509789462]",11.733433509789464,11.733433509789462,images/picture_2.png,1,"[-11.733433509789466, -11.733433509789462]",-11.733433509789464,-11.733433509789462,images/picture_3.png,2,"[-11.733433509789462, 11.733433509789464]",-11.733433509789462,11.733433509789464,0,1,1,0.9716390954798,1.9716390954798,1.0283609045201998,3.0,1,1.7216390954798002,0,4.0,3.0,1,2,7,0,7,0,0,5,5,5,,,,,,,490.12745895798435,490.12745895798435,491.1278035409923,491.8611533329822,492.0944496660086,492.0944496660086,492.0944496660086,493.1276654159883,493.1276654159883,493.1276654159883,493.1276654159883,494.12687466599164,200008,006,2023-04-14_11h37.19.572,DMS_et_12-36,2022.2.4,None,
71,UNPRED,12,0.9716390954798,1,images/picture_2.png,images/picture_1.png,0,"[11.733433509789464, 11.733433509789462]",11.733433509789464,11.733433509789462,images/picture_2.png,1,"[11.733433509789462, -11.733433509789466]",11.733433509789462,-11.733433509789464,images/picture_3.png,2,"[-11.733433509789466, -11.733433509789462]",-11.733433509789464,-11.733433509789462,0,1,1,0.9716390954798,1.9716390954798,1.0283609045201998,3.0,1,1.7216390954798002,0,4.0,3.0,1,2,7,0,7,0,0,6,6,8,,,,,,,494.12687466599164,494.12687466599164,495.12774966598954,495.8611499579856,496.0944971249846,496.0944971249846,496.0944971249846,497.1275682080013,497.1275682080013,497.1275682080013,497.1275682080013,498.1272360830044,200008,006,2023-04-14_11h37.19.572,DMS_et_12-36,2022.2.4,None,
64,UNPRED,12,0.9716390954798,1,images/picture_2.png,images/picture_1.png,0,"[11.733433509789464, 11.733433509789462]",11.733433509789464,11.733433509789462,images/picture_2.png,1,"[11.733433509789462, -11.733433509789466]",11.733433509789462,-11.733433509789464,images/picture_3.png,2,"[-11.733433509789462, 11.733433509789464]",-11.733433509789462,11.733433509789464,0,1,1,0.9716390954798,1.9716390954798,1.0283609045201998,3.0,1,1.7216390954798002,0,4.0,3.0,1,2,7,0,7,0,0,7,7,1,,,,,,,498.1272360830044,498.1272360830044,499.12769141598255,499.8611818749923,500.09442220799974,500.09442220799974,500.09442220799974,501.12773775000824,501.12773775000824,501.12773775000824,501.12773775000824,502.12737695800024,200008,006,2023-04-14_11h37.19.572,DMS_et_12-36,2022.2.4,None,
63,UNPRED,12,0.9716390954798,0,images/picture_1.png,images/picture_1.png,0,"[-11.733433509789466, -11.733433509789462]",-11.733433509789464,-11.733433509789462,images/picture_2.png,1,"[11.733433509789462, -11.733433509789466]",11.733433509789462,-11.733433509789464,images/picture_3.png,2,"[-11.733433509789462, 11.733433509789464]",-11.733433509789462,11.733433509789464,0,1,1,0.9716390954798,1.9716390954798,1.0283609045201998,3.0,1,1.7216390954798002,0,4.0,3.0,1,2,7,0,7,0,0,8,8,0,,,,,,,502.12737695800024,502.12737695800024,503.12772933300585,503.8611705410003,504.09445533299004,504.09445533299004,504.09445533299004,505.12775787498686,505.12775787498686,505.12775787498686,505.12775787498686,506.2144072910014,200008,006,2023-04-14_11h37.19.572,DMS_et_12-36,2022.2.4,None,
,,,,,,,,,,,,,,,,,,,,,,,,,,,,,,,,,,,7,0,7,0,,,,,,,,,506.2144072910014,518.2619888749905,,,,,,,,,,,,,200008,006,2023-04-14_11h37.19.572,DMS_et_12-36,2022.2.4,None,
77,PRED,12,0.9716390954798,2,images/picture_3.png,images/picture_1.png,0,"[-11.733433509789462, 11.733433509789464]",-11.733433509789462,11.733433509789464,images/picture_2.png,1,"[-11.733433509789466, -11.733433509789462]",-11.733433509789464,-11.733433509789462,images/picture_3.png,2,"[11.733433509789462, -11.733433509789466]",11.733433509789462,-11.733433509789464,0,1,1,0.9716390954798,1.9716390954798,1.0283609045201998,3.0,1,1.7216390954798002,0,4.0,3.0,1,2,8,0,8,0,0,0,0,5,,,,,,,518.2619888749905,518.2619888749905,519.2612546659948,519.9944170409872,520.2279591659899,520.2279591659899,520.2279591659899,521.261262999993,521.261262999993,521.261262999993,521.2476529999985,522.2800094999839,200008,006,2023-04-14_11h37.19.572,DMS_et_12-36,2022.2.4,None,
78,PRED,12,0.9716390954798,2,images/picture_3.png,images/picture_1.png,0,"[11.733433509789462, -11.733433509789466]",11.733433509789462,-11.733433509789464,images/picture_2.png,1,"[-11.733433509789462, 11.733433509789464]",-11.733433509789462,11.733433509789464,images/picture_3.png,2,"[11.733433509789464, 11.733433509789462]",11.733433509789464,11.733433509789462,0,1,1,0.9716390954798,1.9716390954798,1.0283609045201998,3.0,1,1.7216390954798002,0,4.0,3.0,1,2,8,0,8,0,0,1,1,6,,,,,,,522.2800094999839,522.2800094999839,523.2945193329942,524.0146595409897,524.2278317080054,524.2278317080054,524.2278317080054,525.2613114579872,525.2613114579872,525.2613114579872,525.2613114579872,526.2813247909944,200008,006,2023-04-14_11h37.19.572,DMS_et_12-36,2022.2.4,None,
79,PRED,12,0.9716390954798,2,images/picture_3.png,images/picture_1.png,0,"[11.733433509789464, 11.733433509789462]",11.733433509789464,11.733433509789462,images/picture_2.png,1,"[-11.733433509789466, -11.733433509789462]",-11.733433509789464,-11.733433509789462,images/picture_3.png,2,"[-11.733433509789462, 11.733433509789464]",-11.733433509789462,11.733433509789464,0,1,1,0.9716390954798,1.9716390954798,1.0283609045201998,3.0,1,1.7216390954798002,0,4.0,3.0,1,2,8,0,8,0,0,2,2,7,,,,,,,526.2813247909944,526.2813247909944,527.2941256659979,528.0132220000087,528.2277747500048,528.2277747500048,528.2277747500048,529.2612117079843,529.2612117079843,529.2612117079843,529.2612117079843,530.2801209999889,200008,006,2023-04-14_11h37.19.572,DMS_et_12-36,2022.2.4,None,
72,PRED,12,0.9716390954798,2,images/picture_3.png,images/picture_1.png,0,"[11.733433509789462, -11.733433509789466]",11.733433509789462,-11.733433509789464,images/picture_2.png,1,"[-11.733433509789462, 11.733433509789464]",-11.733433509789462,11.733433509789464,images/picture_3.png,2,"[-11.733433509789466, -11.733433509789462]",-11.733433509789464,-11.733433509789462,0,1,1,0.9716390954798,1.9716390954798,1.0283609045201998,3.0,1,1.7216390954798002,0,4.0,3.0,1,2,8,0,8,0,0,3,3,0,,,,,,,530.2801209999889,530.2801209999889,531.2945144579862,532.014125332993,532.2277582079987,532.2277582079987,532.2277582079987,533.2612333330035,533.2612333330035,533.2612333330035,533.2612333330035,534.2799460829992,200008,006,2023-04-14_11h37.19.572,DMS_et_12-36,2022.2.4,None,
76,PRED,12,0.9716390954798,2,images/picture_3.png,images/picture_1.png,0,"[11.733433509789464, 11.733433509789462]",11.733433509789464,11.733433509789462,images/picture_2.png,1,"[-11.733433509789466, -11.733433509789462]",-11.733433509789464,-11.733433509789462,images/picture_3.png,2,"[-11.733433509789462, 11.733433509789464]",-11.733433509789462,11.733433509789464,0,1,1,0.9716390954798,1.9716390954798,1.0283609045201998,3.0,1,1.7216390954798002,0,4.0,3.0,1,2,8,0,8,0,0,4,4,4,,,,,,,534.2799460829992,534.2799460829992,535.294560624985,536.0137701659987,536.2277652909979,536.2277652909979,536.2277652909979,537.2611938329937,537.2611938329937,537.2611938329937,537.2611938329937,538.2620709580078,200008,006,2023-04-14_11h37.19.572,DMS_et_12-36,2022.2.4,None,
75,PRED,12,0.9716390954798,2,images/picture_3.png,images/picture_1.png,0,"[-11.733433509789466, -11.733433509789462]",-11.733433509789464,-11.733433509789462,images/picture_2.png,1,"[11.733433509789462, -11.733433509789466]",11.733433509789462,-11.733433509789464,images/picture_3.png,2,"[11.733433509789464, 11.733433509789462]",11.733433509789464,11.733433509789462,0,1,1,0.9716390954798,1.9716390954798,1.0283609045201998,3.0,1,1.7216390954798002,0,4.0,3.0,1,2,8,0,8,0,0,5,5,3,,,,,,,538.2620709580078,538.2620709580078,539.2612287499942,539.9945583750086,540.2279428750044,540.2279428750044,540.2279428750044,541.2612192499801,541.2612192499801,541.2612192499801,541.2612192499801,542.2801192500046,200008,006,2023-04-14_11h37.19.572,DMS_et_12-36,2022.2.4,None,
73,PRED,12,0.9716390954798,2,images/picture_3.png,images/picture_1.png,0,"[-11.733433509789466, -11.733433509789462]",-11.733433509789464,-11.733433509789462,images/picture_2.png,1,"[-11.733433509789462, 11.733433509789464]",-11.733433509789462,11.733433509789464,images/picture_3.png,2,"[11.733433509789462, -11.733433509789466]",11.733433509789462,-11.733433509789464,0,1,1,0.9716390954798,1.9716390954798,1.0283609045201998,3.0,1,1.7216390954798002,0,4.0,3.0,1,2,8,0,8,0,0,6,6,1,,,,,,,542.2801192500046,542.2801192500046,543.2947011250071,544.0134793329926,544.2277626249997,544.2277626249997,544.2277626249997,545.2612389159913,545.2612389159913,545.2612389159913,545.2612389159913,546.280425999983,200008,006,2023-04-14_11h37.19.572,DMS_et_12-36,2022.2.4,None,
80,PRED,12,0.9716390954798,2,images/picture_3.png,images/picture_1.png,0,"[11.733433509789464, 11.733433509789462]",11.733433509789464,11.733433509789462,images/picture_2.png,1,"[-11.733433509789466, -11.733433509789462]",-11.733433509789464,-11.733433509789462,images/picture_3.png,2,"[-11.733433509789462, 11.733433509789464]",-11.733433509789462,11.733433509789464,0,1,1,0.9716390954798,1.9716390954798,1.0283609045201998,3.0,1,1.7216390954798002,0,4.0,3.0,1,2,8,0,8,0,0,7,7,8,,,,,,,546.280425999983,546.280425999983,547.2945132080058,548.0137747910048,548.2275474159978,548.2275474159978,548.2275474159978,549.2612135829986,549.2612135829986,549.2612135829986,549.2612135829986,550.2801416660077,200008,006,2023-04-14_11h37.19.572,DMS_et_12-36,2022.2.4,None,
74,PRED,12,0.9716390954798,2,images/picture_3.png,images/picture_1.png,0,"[11.733433509789464, 11.733433509789462]",11.733433509789464,11.733433509789462,images/picture_2.png,1,"[11.733433509789462, -11.733433509789466]",11.733433509789462,-11.733433509789464,images/picture_3.png,2,"[-11.733433509789462, 11.733433509789464]",-11.733433509789462,11.733433509789464,0,1,1,0.9716390954798,1.9716390954798,1.0283609045201998,3.0,1,1.7216390954798002,0,4.0,3.0,1,2,8,0,8,0,0,8,8,2,,,,,,,550.2801416660077,550.2801416660077,551.2945099579811,552.0141816249816,552.2277329159842,552.2277329159842,552.2277329159842,553.2609846660052,553.2609846660052,553.2609846660052,553.2609846660052,554.3525801659853,200008,006,2023-04-14_11h37.19.572,DMS_et_12-36,2022.2.4,None,
,,,,,,,,,,,,,,,,,,,,,,,,,,,,,,,,,,,8,0,8,0,,,,,,,,,554.3525801659853,566.3907191249891,,,,,,,,,,,,,200008,006,2023-04-14_11h37.19.572,DMS_et_12-36,2022.2.4,None,
87,UNPRED,12,0.9716390954798,2,images/picture_3.png,images/picture_1.png,0,"[-11.733433509789466, -11.733433509789462]",-11.733433509789464,-11.733433509789462,images/picture_2.png,1,"[11.733433509789462, -11.733433509789466]",11.733433509789462,-11.733433509789464,images/picture_3.png,2,"[-11.733433509789462, 11.733433509789464]",-11.733433509789462,11.733433509789464,0,1,1,0.9716390954798,1.9716390954798,1.0283609045201998,3.0,1,1.7216390954798002,0,4.0,3.0,1,2,9,0,9,0,0,0,0,6,,,,,,,566.3907191249891,566.3907191249891,567.3942438329977,568.1276329160028,568.3607109579898,568.3607109579898,568.3607109579898,569.394105082989,569.394105082989,569.394105082989,569.379512790998,570.3931561659847,200008,006,2023-04-14_11h37.19.572,DMS_et_12-36,2022.2.4,None,
88,UNPRED,12,0.9716390954798,0,images/picture_1.png,images/picture_1.png,0,"[11.733433509789462, -11.733433509789466]",11.733433509789462,-11.733433509789464,images/picture_2.png,1,"[-11.733433509789462, 11.733433509789464]",-11.733433509789462,11.733433509789464,images/picture_3.png,2,"[-11.733433509789466, -11.733433509789462]",-11.733433509789464,-11.733433509789462,0,1,1,0.9716390954798,1.9716390954798,1.0283609045201998,3.0,1,1.7216390954798002,0,4.0,3.0,1,2,9,0,9,0,0,1,1,7,,,,,,,570.3931561659847,570.3931561659847,571.3943393749942,572.1275250409963,572.360991124995,572.360991124995,572.360991124995,573.3942278329923,573.3942278329923,573.3942278329923,573.3942278329923,574.3932777910086,200008,006,2023-04-14_11h37.19.572,DMS_et_12-36,2022.2.4,None,
82,UNPRED,12,0.9716390954798,1,images/picture_2.png,images/picture_1.png,0,"[11.733433509789464, 11.733433509789462]",11.733433509789464,11.733433509789462,images/picture_2.png,1,"[-11.733433509789466, -11.733433509789462]",-11.733433509789464,-11.733433509789462,images/picture_3.png,2,"[-11.733433509789462, 11.733433509789464]",-11.733433509789462,11.733433509789464,0,1,1,0.9716390954798,1.9716390954798,1.0283609045201998,3.0,1,1.7216390954798002,0,4.0,3.0,1,2,9,0,9,0,0,2,2,1,,,,,,,574.3932777910086,574.3932777910086,575.3943062500039,576.1277406660083,576.3609057499852,576.3609057499852,576.3609057499852,577.3942468749883,577.3942468749883,577.3942468749883,577.3942468749883,578.3937816249963,200008,006,2023-04-14_11h37.19.572,DMS_et_12-36,2022.2.4,None,
89,UNPRED,12,0.9716390954798,0,images/picture_1.png,images/picture_1.png,0,"[11.733433509789464, 11.733433509789462]",11.733433509789464,11.733433509789462,images/picture_2.png,1,"[11.733433509789462, -11.733433509789466]",11.733433509789462,-11.733433509789464,images/picture_3.png,2,"[-11.733433509789466, -11.733433509789462]",-11.733433509789464,-11.733433509789462,0,1,1,0.9716390954798,1.9716390954798,1.0283609045201998,3.0,1,1.7216390954798002,0,4.0,3.0,1,2,9,0,9,0,0,3,3,8,,,,,,,578.3937816249963,578.3937816249963,579.3940772909846,580.1275454160059,580.3609714999911,580.3609714999911,580.3609714999911,581.3942771659931,581.3942771659931,581.3942771659931,581.3942771659931,582.3941112080065,200008,006,2023-04-14_11h37.19.572,DMS_et_12-36,2022.2.4,None,
81,UNPRED,12,0.9716390954798,1,images/picture_2.png,images/picture_1.png,0,"[11.733433509789462, -11.733433509789466]",11.733433509789462,-11.733433509789464,images/picture_2.png,1,"[-11.733433509789466, -11.733433509789462]",-11.733433509789464,-11.733433509789462,images/picture_3.png,2,"[-11.733433509789462, 11.733433509789464]",-11.733433509789462,11.733433509789464,0,1,1,0.9716390954798,1.9716390954798,1.0283609045201998,3.0,1,1.7216390954798002,0,4.0,3.0,1,2,9,0,9,0,0,4,4,0,,,,,,,582.3941112080065,582.3941112080065,583.3942958329862,584.1275240409886,584.3610002079804,584.3610002079804,584.3610002079804,585.3943047079956,585.3943047079956,585.3943047079956,585.3943047079956,586.4133768749889,200008,006,2023-04-14_11h37.19.572,DMS_et_12-36,2022.2.4,None,
83,UNPRED,12,0.9716390954798,2,images/picture_3.png,images/picture_1.png,0,"[-11.733433509789462, 11.733433509789464]",-11.733433509789462,11.733433509789464,images/picture_2.png,1,"[11.733433509789462, -11.733433509789466]",11.733433509789462,-11.733433509789464,images/picture_3.png,2,"[11.733433509789464, 11.733433509789462]",11.733433509789464,11.733433509789462,0,1,1,0.9716390954798,1.9716390954798,1.0283609045201998,3.0,1,1.7216390954798002,0,4.0,3.0,1,2,9,0,9,0,0,5,5,2,,,,,,,586.4133768749889,586.4133768749889,587.4275179159886,588.1477875830024,588.3609503750049,588.3609503750049,588.3609503750049,589.3940575830056,589.3940575830056,589.3940575830056,589.3940575830056,590.4131840409827,200008,006,2023-04-14_11h37.19.572,DMS_et_12-36,2022.2.4,None,
84,UNPRED,12,0.9716390954798,2,images/picture_3.png,images/picture_1.png,0,"[11.733433509789462, -11.733433509789466]",11.733433509789462,-11.733433509789464,images/picture_2.png,1,"[-11.733433509789466, -11.733433509789462]",-11.733433509789464,-11.733433509789462,images/picture_3.png,2,"[11.733433509789464, 11.733433509789462]",11.733433509789464,11.733433509789462,0,1,1,0.9716390954798,1.9716390954798,1.0283609045201998,3.0,1,1.7216390954798002,0,4.0,3.0,1,2,9,0,9,0,0,6,6,3,,,,,,,590.4131840409827,590.4131840409827,591.4276828329894,592.1468764999881,592.3609818749828,592.3609818749828,592.3609818749828,593.3943489159865,593.3943489159865,593.3943489159865,593.3943489159865,594.3937032079848,200008,006,2023-04-14_11h37.19.572,DMS_et_12-36,2022.2.4,None,
85,UNPRED,12,0.9716390954798,0,images/picture_1.png,images/picture_1.png,0,"[-11.733433509789466, -11.733433509789462]",-11.733433509789464,-11.733433509789462,images/picture_2.png,1,"[11.733433509789464, 11.733433509789462]",11.733433509789464,11.733433509789462,images/picture_3.png,2,"[-11.733433509789462, 11.733433509789464]",-11.733433509789462,11.733433509789464,0,1,1,0.9716390954798,1.9716390954798,1.0283609045201998,3.0,1,1.7216390954798002,0,4.0,3.0,1,2,9,0,9,0,0,7,7,4,,,,,,,594.3937032079848,594.3937032079848,595.3942427909933,596.1278052080015,596.3609069999948,596.3609069999948,596.3609069999948,597.3942289160041,597.3942289160041,597.3942289160041,597.3942289160041,598.4130556249875,200008,006,2023-04-14_11h37.19.572,DMS_et_12-36,2022.2.4,None,
86,UNPRED,12,0.9716390954798,2,images/picture_3.png,images/picture_1.png,0,"[-11.733433509789462, 11.733433509789464]",-11.733433509789462,11.733433509789464,images/picture_2.png,1,"[11.733433509789462, -11.733433509789466]",11.733433509789462,-11.733433509789464,images/picture_3.png,2,"[11.733433509789464, 11.733433509789462]",11.733433509789464,11.733433509789462,0,1,1,0.9716390954798,1.9716390954798,1.0283609045201998,3.0,1,1.7216390954798002,0,4.0,3.0,1,2,9,0,9,0,0,8,8,5,,,,,,,598.4130556249875,598.4130556249875,599.4273796659836,600.1469678329886,600.3609771659831,600.3609771659831,600.3609771659831,601.3943092499976,601.3943092499976,601.3943092499976,601.3943092499976,602.4929009579937,200008,006,2023-04-14_11h37.19.572,DMS_et_12-36,2022.2.4,None,
,,,,,,,,,,,,,,,,,,,,,,,,,,,,,,,,,,,9,0,9,0,,,,,,,,,602.4929009579937,614.5192666249932,,,,,,,,,,,,,200008,006,2023-04-14_11h37.19.572,DMS_et_12-36,2022.2.4,None,
96,PRED,12,0.9716390954798,1,images/picture_2.png,images/picture_1.png,0,"[11.733433509789462, -11.733433509789466]",11.733433509789462,-11.733433509789464,images/picture_2.png,1,"[-11.733433509789462, 11.733433509789464]",-11.733433509789462,11.733433509789464,images/picture_3.png,2,"[-11.733433509789466, -11.733433509789462]",-11.733433509789464,-11.733433509789462,0,1,1,0.9716390954798,1.9716390954798,1.0283609045201998,3.0,1,1.7216390954798002,0,4.0,3.0,1,2,10,0,10,0,0,0,0,6,,,,,,,614.5192666249932,614.5192666249932,615.5277190409834,616.247472957999,616.4944275410089,616.4944275410089,616.4944275410089,617.5276597909979,617.5276597909979,617.5276597909979,617.514154000004,618.5271534579806,200008,006,2023-04-14_11h37.19.572,DMS_et_12-36,2022.2.4,None,
91,PRED,12,0.9716390954798,1,images/picture_2.png,images/picture_1.png,0,"[11.733433509789462, -11.733433509789466]",11.733433509789462,-11.733433509789464,images/picture_2.png,1,"[-11.733433509789462, 11.733433509789464]",-11.733433509789462,11.733433509789464,images/picture_3.png,2,"[-11.733433509789466, -11.733433509789462]",-11.733433509789464,-11.733433509789462,0,1,1,0.9716390954798,1.9716390954798,1.0283609045201998,3.0,1,1.7216390954798002,0,4.0,3.0,1,2,10,0,10,0,0,1,1,1,,,,,,,618.5271534579806,618.5271534579806,619.5272990000085,620.2606591660006,620.4939993750013,620.4939993750013,620.4939993750013,621.5277952909819,621.5277952909819,621.5277952909819,621.5277952909819,622.5271101660037,200008,006,2023-04-14_11h37.19.572,DMS_et_12-36,2022.2.4,None,
98,PRED,12,0.9716390954798,1,images/picture_2.png,images/picture_1.png,0,"[11.733433509789462, -11.733433509789466]",11.733433509789462,-11.733433509789464,images/picture_2.png,1,"[11.733433509789464, 11.733433509789462]",11.733433509789464,11.733433509789462,images/picture_3.png,2,"[-11.733433509789462, 11.733433509789464]",-11.733433509789462,11.733433509789464,0,1,1,0.9716390954798,1.9716390954798,1.0283609045201998,3.0,1,1.7216390954798002,0,4.0,3.0,1,2,10,0,10,0,0,2,2,8,,,,,,,622.5271101660037,622.5271101660037,623.5277265830082,624.2609429580043,624.4942122909997,624.4942122909997,624.4942122909997,625.5275021659909,625.5275021659909,625.5275021659909,625.5275021659909,626.527113958,200008,006,2023-04-14_11h37.19.572,DMS_et_12-36,2022.2.4,None,
92,PRED,12,0.9716390954798,1,images/picture_2.png,images/picture_1.png,0,"[-11.733433509789462, 11.733433509789464]",-11.733433509789462,11.733433509789464,images/picture_2.png,1,"[-11.733433509789466, -11.733433509789462]",-11.733433509789464,-11.733433509789462,images/picture_3.png,2,"[11.733433509789464, 11.733433509789462]",11.733433509789464,11.733433509789462,0,1,1,0.9716390954798,1.9716390954798,1.0283609045201998,3.0,1,1.7216390954798002,0,4.0,3.0,1,2,10,0,10,0,0,3,3,2,,,,,,,626.527113958,626.527113958,627.527489665983,628.2609328329854,628.494255166006,628.494255166006,628.494255166006,629.5277244159952,629.5277244159952,629.5277244159952,629.5277244159952,630.5272754159814,200008,006,2023-04-14_11h37.19.572,DMS_et_12-36,2022.2.4,None,
95,PRED,12,0.9716390954798,1,images/picture_2.png,images/picture_1.png,0,"[11.733433509789462, -11.733433509789466]",11.733433509789462,-11.733433509789464,images/picture_2.png,1,"[-11.733433509789462, 11.733433509789464]",-11.733433509789462,11.733433509789464,images/picture_3.png,2,"[11.733433509789464, 11.733433509789462]",11.733433509789464,11.733433509789462,0,1,1,0.9716390954798,1.9716390954798,1.0283609045201998,3.0,1,1.7216390954798002,0,4.0,3.0,1,2,10,0,10,0,0,4,4,5,,,,,,,630.5272754159814,630.5272754159814,631.5274926660059,632.2609258329903,632.4942433749966,632.4942433749966,632.4942433749966,633.5274583330029,633.5274583330029,633.5274583330029,633.5274583330029,634.5270304160076,200008,006,2023-04-14_11h37.19.572,DMS_et_12-36,2022.2.4,None,
90,PRED,12,0.9716390954798,1,images/picture_2.png,images/picture_1.png,0,"[11.733433509789462, -11.733433509789466]",11.733433509789462,-11.733433509789464,images/picture_2.png,1,"[-11.733433509789462, 11.733433509789464]",-11.733433509789462,11.733433509789464,images/picture_3.png,2,"[11.733433509789464, 11.733433509789462]",11.733433509789464,11.733433509789462,0,1,1,0.9716390954798,1.9716390954798,1.0283609045201998,3.0,1,1.7216390954798002,0,4.0,3.0,1,2,10,0,10,0,0,5,5,0,,,,,,,634.5270304160076,634.5270304160076,635.5276864579937,636.2609655410051,636.4942736660014,636.4942736660014,636.4942736660014,637.5275194580026,637.5275194580026,637.5275194580026,637.5275194580026,638.5271121659898,200008,006,2023-04-14_11h37.19.572,DMS_et_12-36,2022.2.4,None,
94,PRED,12,0.9716390954798,1,images/picture_2.png,images/picture_1.png,0,"[-11.733433509789466, -11.733433509789462]",-11.733433509789464,-11.733433509789462,images/picture_2.png,1,"[11.733433509789464, 11.733433509789462]",11.733433509789464,11.733433509789462,images/picture_3.png,2,"[11.733433509789462, -11.733433509789466]",11.733433509789462,-11.733433509789464,0,1,1,0.9716390954798,1.9716390954798,1.0283609045201998,3.0,1,1.7216390954798002,0,4.0,3.0,1,2,10,0,10,0,0,6,6,4,,,,,,,638.5271121659898,638.5271121659898,639.5275954160024,640.2605427909875,640.4940994159842,640.4940994159842,640.4940994159842,641.5276989580016,641.5276989580016,641.5276989580016,641.5276989580016,642.5270660409878,200008,006,2023-04-14_11h37.19.572,DMS_et_12-36,2022.2.4,None,
97,PRED,12,0.9716390954798,1,images/picture_2.png,images/picture_1.png,0,"[11.733433509789462, -11.733433509789466]",11.733433509789462,-11.733433509789464,images/picture_2.png,1,"[-11.733433509789462, 11.733433509789464]",-11.733433509789462,11.733433509789464,images/picture_3.png,2,"[11.733433509789464, 11.733433509789462]",11.733433509789464,11.733433509789462,0,1,1,0.9716390954798,1.9716390954798,1.0283609045201998,3.0,1,1.7216390954798002,0,4.0,3.0,1,2,10,0,10,0,0,7,7,7,,,,,,,642.5270660409878,642.5270660409878,643.527710416005,644.2609569999913,644.4941973329987,644.4941973329987,644.4941973329987,645.5280132500047,645.5280132500047,645.5280132500047,645.5280132500047,646.527092415985,200008,006,2023-04-14_11h37.19.572,DMS_et_12-36,2022.2.4,None,
93,PRED,12,0.9716390954798,1,images/picture_2.png,images/picture_1.png,0,"[-11.733433509789466, -11.733433509789462]",-11.733433509789464,-11.733433509789462,images/picture_2.png,1,"[11.733433509789462, -11.733433509789466]",11.733433509789462,-11.733433509789464,images/picture_3.png,2,"[-11.733433509789462, 11.733433509789464]",-11.733433509789462,11.733433509789464,0,1,1,0.9716390954798,1.9716390954798,1.0283609045201998,3.0,1,1.7216390954798002,0,4.0,3.0,1,2,10,0,10,0,0,8,8,3,,,,,,,646.527092415985,646.527092415985,647.5277685000037,648.2609345410019,648.4942532499845,648.4942532499845,648.4942532499845,649.52770508299,649.52770508299,649.52770508299,649.52770508299,650.6220757499977,200008,006,2023-04-14_11h37.19.572,DMS_et_12-36,2022.2.4,None,
,,,,,,,,,,,,,,,,,,,,,,,,,,,,,,,,,,,10,0,10,0,,,,,,,,,650.6220757499977,662.6603991249867,,,,,,,,,,,,,200008,006,2023-04-14_11h37.19.572,DMS_et_12-36,2022.2.4,None,
102,UNPRED,12,0.9716390954798,2,images/picture_3.png,images/picture_1.png,0,"[-11.733433509789462, 11.733433509789464]",-11.733433509789462,11.733433509789464,images/picture_2.png,1,"[-11.733433509789466, -11.733433509789462]",-11.733433509789464,-11.733433509789462,images/picture_3.png,2,"[11.733433509789462, -11.733433509789466]",11.733433509789462,-11.733433509789464,0,1,1,0.9716390954798,1.9716390954798,1.0283609045201998,3.0,1,1.7216390954798002,0,4.0,3.0,1,2,11,0,11,0,0,0,0,3,,,,,,,662.6603991249867,662.6603991249867,663.6609648749873,664.3942181659804,664.6275064999936,664.6275064999936,664.6275064999936,665.660960624984,665.660960624984,665.660960624984,665.6469560829864,666.6797630410001,200008,006,2023-04-14_11h37.19.572,DMS_et_12-36,2022.2.4,None,
101,UNPRED,12,0.9716390954798,2,images/picture_3.png,images/picture_1.png,0,"[11.733433509789462, -11.733433509789466]",11.733433509789462,-11.733433509789464,images/picture_2.png,1,"[-11.733433509789462, 11.733433509789464]",-11.733433509789462,11.733433509789464,images/picture_3.png,2,"[11.733433509789464, 11.733433509789462]",11.733433509789464,11.733433509789462,0,1,1,0.9716390954798,1.9716390954798,1.0283609045201998,3.0,1,1.7216390954798002,0,4.0,3.0,1,2,11,0,11,0,0,1,1,2,,,,,,,666.6797630410001,666.6797630410001,667.6942892909865,668.413783750002,668.627734040987,668.627734040987,668.627734040987,669.6609707500029,669.6609707500029,669.6609707500029,669.6609707500029,670.6603451659903,200008,006,2023-04-14_11h37.19.572,DMS_et_12-36,2022.2.4,None,
99,UNPRED,12,0.9716390954798,0,images/picture_1.png,images/picture_1.png,0,"[-11.733433509789466, -11.733433509789462]",-11.733433509789464,-11.733433509789462,images/picture_2.png,1,"[-11.733433509789462, 11.733433509789464]",-11.733433509789462,11.733433509789464,images/picture_3.png,2,"[11.733433509789464, 11.733433509789462]",11.733433509789464,11.733433509789462,0,1,1,0.9716390954798,1.9716390954798,1.0283609045201998,3.0,1,1.7216390954798002,0,4.0,3.0,1,2,11,0,11,0,0,2,2,0,,,,,,,670.6603451659903,670.6603451659903,671.6608264579845,672.3943423329911,672.6274970829836,672.6274970829836,672.6274970829836,673.6611039160052,673.6611039160052,673.6611039160052,673.6611039160052,674.6802163749817,200008,006,2023-04-14_11h37.19.572,DMS_et_12-36,2022.2.4,None,
104,UNPRED,12,0.9716390954798,2,images/picture_3.png,images/picture_1.png,0,"[-11.733433509789462, 11.733433509789464]",-11.733433509789462,11.733433509789464,images/picture_2.png,1,"[11.733433509789462, -11.733433509789466]",11.733433509789462,-11.733433509789464,images/picture_3.png,2,"[11.733433509789464, 11.733433509789462]",11.733433509789464,11.733433509789462,0,1,1,0.9716390954798,1.9716390954798,1.0283609045201998,3.0,1,1.7216390954798002,0,4.0,3.0,1,2,11,0,11,0,0,3,3,5,,,,,,,674.6802163749817,674.6802163749817,675.6942071660014,676.4137458750047,676.6276311249821,676.6276311249821,676.6276311249821,677.6609750829812,677.6609750829812,677.6609750829812,677.6609750829812,678.6604425410042,200008,006,2023-04-14_11h37.19.572,DMS_et_12-36,2022.2.4,None,
107,UNPRED,12,0.9716390954798,0,images/picture_1.png,images/picture_1.png,0,"[11.733433509789464, 11.733433509789462]",11.733433509789464,11.733433509789462,images/picture_2.png,1,"[11.733433509789462, -11.733433509789466]",11.733433509789462,-11.733433509789464,images/picture_3.png,2,"[-11.733433509789466, -11.733433509789462]",-11.733433509789464,-11.733433509789462,0,1,1,0.9716390954798,1.9716390954798,1.0283609045201998,3.0,1,1.7216390954798002,0,4.0,3.0,1,2,11,0,11,0,0,4,4,8,,,,,,,678.6604425410042,678.6604425410042,679.6609655409993,680.3942670830002,680.6275062499917,680.6275062499917,680.6275062499917,681.6607402079972,681.6607402079972,681.6607402079972,681.6607402079972,682.6797965829901,200008,006,2023-04-14_11h37.19.572,DMS_et_12-36,2022.2.4,None,
106,UNPRED,12,0.9716390954798,2,images/picture_3.png,images/picture_1.png,0,"[-11.733433509789462, 11.733433509789464]",-11.733433509789462,11.733433509789464,images/picture_2.png,1,"[11.733433509789464, 11.733433509789462]",11.733433509789464,11.733433509789462,images/picture_3.png,2,"[-11.733433509789466, -11.733433509789462]",-11.733433509789464,-11.733433509789462,0,1,1,0.9716390954798,1.9716390954798,1.0283609045201998,3.0,1,1.7216390954798002,0,4.0,3.0,1,2,11,0,11,0,0,5,5,7,,,,,,,682.6797965829901,682.6797965829901,683.6942746659915,684.4139206249965,684.6275068329996,684.6275068329996,684.6275068329996,685.6609239999962,685.6609239999962,685.6609239999962,685.6609239999962,686.6609788750065,200008,006,2023-04-14_11h37.19.572,DMS_et_12-36,2022.2.4,None,
105,UNPRED,12,0.9716390954798,0,images/picture_1.png,images/picture_1.png,0,"[11.733433509789462, -11.733433509789466]",11.733433509789462,-11.733433509789464,images/picture_2.png,1,"[11.733433509789464, 11.733433509789462]",11.733433509789464,11.733433509789462,images/picture_3.png,2,"[-11.733433509789462, 11.733433509789464]",-11.733433509789462,11.733433509789464,0,1,1,0.9716390954798,1.9716390954798,1.0283609045201998,3.0,1,1.7216390954798002,0,4.0,3.0,1,2,11,0,11,0,0,6,6,6,,,,,,,686.6609788750065,686.6609788750065,687.6609857500007,688.3941749579972,688.6277120829909,688.6277120829909,688.6277120829909,689.6603364580078,689.6603364580078,689.6603364580078,689.6603364580078,690.6605169999821,200008,006,2023-04-14_11h37.19.572,DMS_et_12-36,2022.2.4,None,
100,UNPRED,12,0.9716390954798,0,images/picture_1.png,images/picture_1.png,0,"[11.733433509789464, 11.733433509789462]",11.733433509789464,11.733433509789462,images/picture_2.png,1,"[-11.733433509789466, -11.733433509789462]",-11.733433509789464,-11.733433509789462,images/picture_3.png,2,"[-11.733433509789462, 11.733433509789464]",-11.733433509789462,11.733433509789464,0,1,1,0.9716390954798,1.9716390954798,1.0283609045201998,3.0,1,1.7216390954798002,0,4.0,3.0,1,2,11,0,11,0,0,7,7,1,,,,,,,690.6605169999821,690.6605169999821,691.6608130410023,692.3940972079872,692.6275399579899,692.6275399579899,692.6275399579899,693.6609982500086,693.6609982500086,693.6609982500086,693.6609982500086,694.6797597080003,200008,006,2023-04-14_11h37.19.572,DMS_et_12-36,2022.2.4,None,
103,UNPRED,12,0.9716390954798,2,images/picture_3.png,images/picture_1.png,0,"[-11.733433509789462, 11.733433509789464]",-11.733433509789462,11.733433509789464,images/picture_2.png,1,"[11.733433509789462, -11.733433509789466]",11.733433509789462,-11.733433509789464,images/picture_3.png,2,"[11.733433509789464, 11.733433509789462]",11.733433509789464,11.733433509789462,0,1,1,0.9716390954798,1.9716390954798,1.0283609045201998,3.0,1,1.7216390954798002,0,4.0,3.0,1,2,11,0,11,0,0,8,8,4,,,,,,,694.6797597080003,694.6797597080003,695.6942336659995,696.4141829999862,696.6275185830018,696.6275185830018,696.6275185830018,697.6609890410036,697.6609890410036,697.6609890410036,697.6609890410036,698.829128915997,200008,006,2023-04-14_11h37.19.572,DMS_et_12-36,2022.2.4,None,
,,,,,,,,,,,,,,,,,,,,,,,,,,,,,,,,,,,11,0,11,0,,,,,,,,,698.829128915997,710.9579707499943,,,,,,,,,,,,,200008,006,2023-04-14_11h37.19.572,DMS_et_12-36,2022.2.4,None,
,,,,,,,,,,,,,,,,,,,,,,,,,,,,,,,,,,,,,,,,,,,,,,,710.9579707499943,723.4909244159935,,,,,,,,,,,,,,,,,,,
