trial_count,blockType,blockNum,delay_time,stimImage_i,stimImage,responseImage1,responseImage1_i,responseImage1_pos,responseImage1_X,responseImage1_Y,responseImage2,responseImage2_i,responseImage2_pos,responseImage2_X,responseImage2_Y,responseImage3,responseImage3_i,responseImage3_pos,responseImage3_X,responseImage3_Y,cue_onset,cue_dur,delay_onset,delay_dur,resp_onset,resp_dur,rest_onset,rest_dur,circle_dur,circle_onset,blocks.thisRepN,blocks.thisTrialN,blocks.thisN,blocks.thisIndex,trials.thisRepN,trials.thisTrialN,trials.thisN,trials.thisIndex,key_resp.started,text.started,key_resp.keys,key_resp.rt,text_2.started,text_2.stopped,etRecord.started,sample.started,Delay.started,sample.stopped,Delay.stopped,Response_1.started,Response_2.started,Response_3.started,Response_1.stopped,Response_2.stopped,Response_3.stopped,polygon.started,etRecord.stopped,polygon.stopped,participant,session,date,expName,psychopyVersion,frameRate,
,,,,,,,,,,,,,,,,,,,,,,,,,,,,,,,,,,,,,,,26.217421083012596,26.217421083012596,t,42.68825662502786,,,,,,,,,,,,,,,,,200002,003,2023-03-16_15h48.13.007,DMS_BEST_eyetracking_DAN_base_12-36_looped_10minWORKING,2022.2.4,None,
2,PRED,12,0.7866366950709505,0,images/picture_1.png,images/picture_1.png,0,"[11.733433509789462, -11.733433509789466]",11.733433509789462,-11.733433509789464,images/picture_2.png,1,"[11.733433509789464, 11.733433509789462]",11.733433509789464,11.733433509789462,images/picture_3.png,2,"[-11.733433509789462, 11.733433509789464]",-11.733433509789462,11.733433509789464,0,1,1,0.7866366950709505,1.7866366950709505,1.2133633049290495,3,1,1.5366366950709505,0,0,0,0,0,0,0,0,2,,,,,68.92856262502028,80.96807366603753,,,,,,,,,,,,,,,200002,003,2023-03-16_15h48.13.007,DMS_BEST_eyetracking_DAN_base_12-36_looped_10minWORKING,2022.2.4,None,
2,PRED,12,0.7866366950709505,0,images/picture_1.png,images/picture_1.png,0,"[11.733433509789462, -11.733433509789466]",11.733433509789462,-11.733433509789464,images/picture_2.png,1,"[11.733433509789464, 11.733433509789462]",11.733433509789464,11.733433509789462,images/picture_3.png,2,"[-11.733433509789462, 11.733433509789464]",-11.733433509789462,11.733433509789464,0,1,1,0.7866366950709505,1.7866366950709505,1.2133633049290495,3,1,1.5366366950709505,0,0,0,0,0,0,0,0,2,,,,,,,0.005151540972292423,80.96807366603753,80.96807366603753,81.97585887502646,82.50920179102104,82.74214854103047,82.74214854103047,82.74214854103047,83.96204754099017,83.96204754099017,83.96204754099017,83.96204754099017,4.008438999997452,84.97532895801123,200002,003,2023-03-16_15h48.13.007,DMS_BEST_eyetracking_DAN_base_12-36_looped_10minWORKING,2022.2.4,None,
6,PRED,12,0.8337670821117834,0,images/picture_1.png,images/picture_1.png,0,"[11.733433509789462, -11.733433509789466]",11.733433509789462,-11.733433509789464,images/picture_2.png,1,"[-11.733433509789462, 11.733433509789464]",-11.733433509789462,11.733433509789464,images/picture_3.png,2,"[11.733433509789464, 11.733433509789462]",11.733433509789464,11.733433509789462,0,1,1,0.8337670821117834,1.8337670821117835,1.1662329178882165,3,1,1.5837670821117835,0,0,0,0,0,0,1,1,6,,,,,,,,,,,,,,,,,,,,,200002,003,2023-03-16_15h48.13.007,DMS_BEST_eyetracking_DAN_base_12-36_looped_10minWORKING,2022.2.4,None,
6,PRED,12,0.8337670821117834,0,images/picture_1.png,images/picture_1.png,0,"[11.733433509789462, -11.733433509789466]",11.733433509789462,-11.733433509789464,images/picture_2.png,1,"[-11.733433509789462, 11.733433509789464]",-11.733433509789462,11.733433509789464,images/picture_3.png,2,"[11.733433509789464, 11.733433509789462]",11.733433509789464,11.733433509789462,0,1,1,0.8337670821117834,1.8337670821117835,1.1662329178882165,3,1,1.5837670821117835,0,0,0,0,0,0,1,1,6,,,,,,,0.0015774999628774822,84.97532895801123,84.97532895801123,85.97531275002984,86.56124595802976,86.80897920799907,86.80897920799907,86.80897920799907,87.97591545799514,87.97591545799514,87.97591545799514,87.97591545799514,3.9989124999847263,88.99526408303063,200002,003,2023-03-16_15h48.13.007,DMS_BEST_eyetracking_DAN_base_12-36_looped_10minWORKING,2022.2.4,None,
5,PRED,12,1.0268288373494867,0,images/picture_1.png,images/picture_1.png,0,"[11.733433509789462, -11.733433509789466]",11.733433509789462,-11.733433509789464,images/picture_2.png,1,"[11.733433509789464, 11.733433509789462]",11.733433509789464,11.733433509789462,images/picture_3.png,2,"[-11.733433509789466, -11.733433509789462]",-11.733433509789464,-11.733433509789462,0,1,1,1.0268288373494867,2.0268288373494867,0.9731711626505132,3,1,1.7768288373494867,0,0,0,0,0,0,2,2,5,,,,,,,,,,,,,,,,,,,,,200002,003,2023-03-16_15h48.13.007,DMS_BEST_eyetracking_DAN_base_12-36_looped_10minWORKING,2022.2.4,None,
5,PRED,12,1.0268288373494867,0,images/picture_1.png,images/picture_1.png,0,"[11.733433509789462, -11.733433509789466]",11.733433509789462,-11.733433509789464,images/picture_2.png,1,"[11.733433509789464, 11.733433509789462]",11.733433509789464,11.733433509789462,images/picture_3.png,2,"[-11.733433509789466, -11.733433509789462]",-11.733433509789464,-11.733433509789462,0,1,1,1.0268288373494867,2.0268288373494867,0.9731711626505132,3,1,1.7768288373494867,0,0,0,0,0,0,2,2,5,,,,,,,0.003625375044066459,88.99526408303063,88.99526408303063,90.0091617910075,90.77583404100733,90.9959152500378,90.9959152500378,90.9959152500378,91.9758729999885,91.9758729999885,91.9758729999885,91.9758729999885,4.029955166042782,92.97577404102776,200002,003,2023-03-16_15h48.13.007,DMS_BEST_eyetracking_DAN_base_12-36_looped_10minWORKING,2022.2.4,None,
4,PRED,12,0.7409444624462205,0,images/picture_1.png,images/picture_1.png,0,"[-11.733433509789466, -11.733433509789462]",-11.733433509789464,-11.733433509789462,images/picture_2.png,1,"[11.733433509789464, 11.733433509789462]",11.733433509789464,11.733433509789462,images/picture_3.png,2,"[11.733433509789462, -11.733433509789466]",11.733433509789462,-11.733433509789464,0,1,1,0.7409444624462205,1.7409444624462205,1.2590555375537795,3,1,1.4909444624462205,0,0,0,0,0,0,3,3,4,,,,,,,,,,,,,,,,,,,,,200002,003,2023-03-16_15h48.13.007,DMS_BEST_eyetracking_DAN_base_12-36_looped_10minWORKING,2022.2.4,None,
4,PRED,12,0.7409444624462205,0,images/picture_1.png,images/picture_1.png,0,"[-11.733433509789466, -11.733433509789462]",-11.733433509789464,-11.733433509789462,images/picture_2.png,1,"[11.733433509789464, 11.733433509789462]",11.733433509789464,11.733433509789462,images/picture_3.png,2,"[11.733433509789462, -11.733433509789466]",11.733433509789462,-11.733433509789464,0,1,1,0.7409444624462205,1.7409444624462205,1.2590555375537795,3,1,1.4909444624462205,0,0,0,0,0,0,3,3,4,,,,,,,0.0034868339425884187,93.01032983302139,93.01032983302139,94.00909779098583,94.5089905000059,94.74249483301537,94.74249483301537,94.74249483301537,96.00887800002238,96.00887800002238,96.00887800002238,96.00887800002238,3.996541749977041,97.0286262499867,200002,003,2023-03-16_15h48.13.007,DMS_BEST_eyetracking_DAN_base_12-36_looped_10minWORKING,2022.2.4,None,
7,PRED,12,0.8166591853721775,0,images/picture_1.png,images/picture_1.png,0,"[11.733433509789464, 11.733433509789462]",11.733433509789464,11.733433509789462,images/picture_2.png,1,"[-11.733433509789462, 11.733433509789464]",-11.733433509789462,11.733433509789464,images/picture_3.png,2,"[11.733433509789462, -11.733433509789466]",11.733433509789462,-11.733433509789464,0,1,1,0.8166591853721775,1.8166591853721776,1.1833408146278224,3,1,1.5666591853721776,0,0,0,0,0,0,4,4,7,,,,,,,,,,,,,,,,,,,,,200002,003,2023-03-16_15h48.13.007,DMS_BEST_eyetracking_DAN_base_12-36_looped_10minWORKING,2022.2.4,None,
7,PRED,12,0.8166591853721775,0,images/picture_1.png,images/picture_1.png,0,"[11.733433509789464, 11.733433509789462]",11.733433509789464,11.733433509789462,images/picture_2.png,1,"[-11.733433509789462, 11.733433509789464]",-11.733433509789462,11.733433509789464,images/picture_3.png,2,"[11.733433509789462, -11.733433509789466]",11.733433509789462,-11.733433509789464,0,1,1,0.8166591853721775,1.8166591853721776,1.1833408146278224,3,1,1.5666591853721776,0,0,0,0,0,0,4,4,7,,,,,,,0.0033197919838130474,97.0286262499867,97.0286262499867,98.04237024998292,98.60913599998457,98.82915479101939,98.82915479101939,98.82915479101939,100.0091615410056,100.0091615410056,100.0091615410056,100.0091615410056,4.029622542031575,101.00911879102932,200002,003,2023-03-16_15h48.13.007,DMS_BEST_eyetracking_DAN_base_12-36_looped_10minWORKING,2022.2.4,None,
1,PRED,12,1.0690364702273143,0,images/picture_1.png,images/picture_1.png,0,"[11.733433509789464, 11.733433509789462]",11.733433509789464,11.733433509789462,images/picture_2.png,1,"[-11.733433509789466, -11.733433509789462]",-11.733433509789464,-11.733433509789462,images/picture_3.png,2,"[-11.733433509789462, 11.733433509789464]",-11.733433509789462,11.733433509789464,0,1,1,1.0690364702273143,2.0690364702273145,0.9309635297726856,3,1,1.8190364702273143,0,0,0,0,0,0,5,5,1,,,,,,,,,,,,,,,,,,,,,200002,003,2023-03-16_15h48.13.007,DMS_BEST_eyetracking_DAN_base_12-36_looped_10minWORKING,2022.2.4,None,
1,PRED,12,1.0690364702273143,0,images/picture_1.png,images/picture_1.png,0,"[11.733433509789464, 11.733433509789462]",11.733433509789464,11.733433509789462,images/picture_2.png,1,"[-11.733433509789466, -11.733433509789462]",-11.733433509789464,-11.733433509789462,images/picture_3.png,2,"[-11.733433509789462, 11.733433509789464]",-11.733433509789462,11.733433509789464,0,1,1,1.0690364702273143,2.0690364702273145,0.9309635297726856,3,1,1.8190364702273143,0,0,0,0,0,0,5,5,1,,,,,,,0.0036048750043846667,101.04352995799854,101.04352995799854,102.04242354101734,102.8761417909991,103.10897616599686,103.10897616599686,103.10897616599686,104.04255729098804,104.04255729098804,104.04255729098804,104.04255729098804,3.9974582080030814,105.04368966602487,200002,003,2023-03-16_15h48.13.007,DMS_BEST_eyetracking_DAN_base_12-36_looped_10minWORKING,2022.2.4,None,
8,PRED,12,0.9446059609674244,0,images/picture_1.png,images/picture_1.png,0,"[11.733433509789464, 11.733433509789462]",11.733433509789464,11.733433509789462,images/picture_2.png,1,"[11.733433509789462, -11.733433509789466]",11.733433509789462,-11.733433509789464,images/picture_3.png,2,"[-11.733433509789466, -11.733433509789462]",-11.733433509789464,-11.733433509789462,0,1,1,0.9446059609674244,1.9446059609674244,1.0553940390325756,3,1,1.6946059609674244,0,0,0,0,0,0,6,6,8,,,,,,,,,,,,,,,,,,,,,200002,003,2023-03-16_15h48.13.007,DMS_BEST_eyetracking_DAN_base_12-36_looped_10minWORKING,2022.2.4,None,
8,PRED,12,0.9446059609674244,0,images/picture_1.png,images/picture_1.png,0,"[11.733433509789464, 11.733433509789462]",11.733433509789464,11.733433509789462,images/picture_2.png,1,"[11.733433509789462, -11.733433509789466]",11.733433509789462,-11.733433509789464,images/picture_3.png,2,"[-11.733433509789466, -11.733433509789462]",-11.733433509789464,-11.733433509789462,0,1,1,0.9446059609674244,1.9446059609674244,1.0553940390325756,3,1,1.6946059609674244,0,0,0,0,0,0,6,6,8,,,,,,,0.0034015420242212713,105.04368966602487,105.04368966602487,106.04255433299113,106.7422097910312,106.9753779580351,106.9753779580351,106.9753779580351,108.04249200003687,108.04249200003687,108.04249200003687,108.04249200003687,3.9966105420025997,109.06201162503567,200002,003,2023-03-16_15h48.13.007,DMS_BEST_eyetracking_DAN_base_12-36_looped_10minWORKING,2022.2.4,None,
0,PRED,12,1.0932124741749047,0,images/picture_1.png,images/picture_1.png,0,"[11.733433509789464, 11.733433509789462]",11.733433509789464,11.733433509789462,images/picture_2.png,1,"[11.733433509789462, -11.733433509789466]",11.733433509789462,-11.733433509789464,images/picture_3.png,2,"[-11.733433509789466, -11.733433509789462]",-11.733433509789464,-11.733433509789462,0,1,1,1.0932124741749047,2.093212474174905,0.9067875258250953,3,1,1.8432124741749052,0,0,0,0,0,0,7,7,0,,,,,,,,,,,,,,,,,,,,,200002,003,2023-03-16_15h48.13.007,DMS_BEST_eyetracking_DAN_base_12-36_looped_10minWORKING,2022.2.4,None,
0,PRED,12,1.0932124741749047,0,images/picture_1.png,images/picture_1.png,0,"[11.733433509789464, 11.733433509789462]",11.733433509789464,11.733433509789462,images/picture_2.png,1,"[11.733433509789462, -11.733433509789466]",11.733433509789462,-11.733433509789464,images/picture_3.png,2,"[-11.733433509789466, -11.733433509789462]",-11.733433509789464,-11.733433509789462,0,1,1,1.0932124741749047,2.093212474174905,0.9067875258250953,3,1,1.8432124741749052,0,0,0,0,0,0,7,7,0,,,,,,,0.0036113749956712127,109.06201162503567,109.06201162503567,110.07590262498707,110.90887049998855,111.1284871249809,111.1284871249809,111.1284871249809,112.04262625001138,112.04262625001138,112.04262625001138,112.04262625001138,4.0298771249945275,113.04260870802682,200002,003,2023-03-16_15h48.13.007,DMS_BEST_eyetracking_DAN_base_12-36_looped_10minWORKING,2022.2.4,None,
3,PRED,12,1.0390025817227015,0,images/picture_1.png,images/picture_1.png,0,"[11.733433509789464, 11.733433509789462]",11.733433509789464,11.733433509789462,images/picture_2.png,1,"[-11.733433509789462, 11.733433509789464]",-11.733433509789462,11.733433509789464,images/picture_3.png,2,"[-11.733433509789466, -11.733433509789462]",-11.733433509789464,-11.733433509789462,0,1,1,1.0390025817227015,2.039002581722701,0.9609974182772985,3,1,1.7890025817227015,0,0,0,0,0,0,8,8,3,,,,,,,,,,,,,,,,,,,,,200002,003,2023-03-16_15h48.13.007,DMS_BEST_eyetracking_DAN_base_12-36_looped_10minWORKING,2022.2.4,None,
3,PRED,12,1.0390025817227015,0,images/picture_1.png,images/picture_1.png,0,"[11.733433509789464, 11.733433509789462]",11.733433509789464,11.733433509789462,images/picture_2.png,1,"[-11.733433509789462, 11.733433509789464]",-11.733433509789462,11.733433509789464,images/picture_3.png,2,"[-11.733433509789466, -11.733433509789462]",-11.733433509789464,-11.733433509789462,0,1,1,1.0390025817227015,2.039002581722701,0.9609974182772985,3,1,1.7890025817227015,0,0,0,0,0,0,8,8,3,,,,,,,0.0036149999941699207,113.09517874999437,113.09517874999437,114.10917062498629,114.8953008329845,115.10895220801467,115.10895220801467,115.10895220801467,116.07585125003243,116.07585125003243,116.07585125003243,116.07585125003243,4.028916875016876,117.07540345803136,200002,003,2023-03-16_15h48.13.007,DMS_BEST_eyetracking_DAN_base_12-36_looped_10minWORKING,2022.2.4,None,
,,,,,,,,,,,,,,,,,,,,,,,,,,,,,,,0,0,0,0,,,,,,,,,117.12768095801584,129.16579850000562,,,,,,,,,,,,,,,200002,003,2023-03-16_15h48.13.007,DMS_BEST_eyetracking_DAN_base_12-36_looped_10minWORKING,2022.2.4,None,
16,UNPRED,12,0.6695029069671112,1,images/picture_2.png,images/picture_1.png,0,"[11.733433509789464, 11.733433509789462]",11.733433509789464,11.733433509789462,images/picture_2.png,1,"[-11.733433509789462, 11.733433509789464]",-11.733433509789462,11.733433509789464,images/picture_3.png,2,"[11.733433509789462, -11.733433509789466]",11.733433509789462,-11.733433509789464,0,1,1,0.6695029069671112,1.6695029069671112,1.3304970930328888,3,1,1.4195029069671112,0,1,0,1,0,0,0,0,7,,,,,,,,,,,,,,,,,,,,,200002,003,2023-03-16_15h48.13.007,DMS_BEST_eyetracking_DAN_base_12-36_looped_10minWORKING,2022.2.4,None,
16,UNPRED,12,0.6695029069671112,1,images/picture_2.png,images/picture_1.png,0,"[11.733433509789464, 11.733433509789462]",11.733433509789464,11.733433509789462,images/picture_2.png,1,"[-11.733433509789462, 11.733433509789464]",-11.733433509789462,11.733433509789464,images/picture_3.png,2,"[11.733433509789462, -11.733433509789466]",11.733433509789462,-11.733433509789464,0,1,1,0.6695029069671112,1.6695029069671112,1.3304970930328888,3,1,1.4195029069671112,0,1,0,1,0,0,0,0,7,,,,,,,0.005151624965947121,129.16579850000562,129.16579850000562,130.17581741599133,130.5952206249931,130.82902112498414,130.82902112498414,130.82902112498414,132.16192983300425,132.16192983300425,132.16192983300425,132.16192983300425,4.009069041989278,133.19577824999578,200002,003,2023-03-16_15h48.13.007,DMS_BEST_eyetracking_DAN_base_12-36_looped_10minWORKING,2022.2.4,None,
13,UNPRED,12,1.090917271492266,1,images/picture_2.png,images/picture_1.png,0,"[11.733433509789464, 11.733433509789462]",11.733433509789464,11.733433509789462,images/picture_2.png,1,"[-11.733433509789462, 11.733433509789464]",-11.733433509789462,11.733433509789464,images/picture_3.png,2,"[11.733433509789462, -11.733433509789466]",11.733433509789462,-11.733433509789464,0,1,1,1.090917271492266,2.0909172714922657,0.909082728507734,3,1,1.840917271492266,0,1,0,1,0,0,1,1,4,,,,,,,,,,,,,,,,,,,,,200002,003,2023-03-16_15h48.13.007,DMS_BEST_eyetracking_DAN_base_12-36_looped_10minWORKING,2022.2.4,None,
13,UNPRED,12,1.090917271492266,1,images/picture_2.png,images/picture_1.png,0,"[11.733433509789464, 11.733433509789462]",11.733433509789464,11.733433509789462,images/picture_2.png,1,"[-11.733433509789462, 11.733433509789464]",-11.733433509789462,11.733433509789464,images/picture_3.png,2,"[11.733433509789462, -11.733433509789466]",11.733433509789462,-11.733433509789464,0,1,1,1.090917271492266,2.0909172714922657,0.909082728507734,3,1,1.840917271492266,0,1,0,1,0,0,1,1,4,,,,,,,0.00499225000385195,133.19577824999578,133.19577824999578,134.20916883298196,135.04279479099205,135.2618706250214,135.2618706250214,135.2618706250214,136.17589700000826,136.17589700000826,136.17589700000826,136.17589700000826,4.029723459039815,137.17543433298124,200002,003,2023-03-16_15h48.13.007,DMS_BEST_eyetracking_DAN_base_12-36_looped_10minWORKING,2022.2.4,None,
12,UNPRED,12,0.5944405189826347,1,images/picture_2.png,images/picture_1.png,0,"[-11.733433509789462, 11.733433509789464]",-11.733433509789462,11.733433509789464,images/picture_2.png,1,"[11.733433509789462, -11.733433509789466]",11.733433509789462,-11.733433509789464,images/picture_3.png,2,"[-11.733433509789466, -11.733433509789462]",-11.733433509789464,-11.733433509789462,0,1,1,0.5944405189826347,1.5944405189826347,1.4055594810173653,3,1,1.3444405189826347,0,1,0,1,0,0,2,2,3,,,,,,,,,,,,,,,,,,,,,200002,003,2023-03-16_15h48.13.007,DMS_BEST_eyetracking_DAN_base_12-36_looped_10minWORKING,2022.2.4,None,
12,UNPRED,12,0.5944405189826347,1,images/picture_2.png,images/picture_1.png,0,"[-11.733433509789462, 11.733433509789464]",-11.733433509789462,11.733433509789464,images/picture_2.png,1,"[11.733433509789462, -11.733433509789466]",11.733433509789462,-11.733433509789464,images/picture_3.png,2,"[-11.733433509789466, -11.733433509789462]",-11.733433509789464,-11.733433509789462,0,1,1,0.5944405189826347,1.5944405189826347,1.4055594810173653,3,1,1.3444405189826347,0,1,0,1,0,0,2,2,3,,,,,,,0.0040936669684015214,137.2090627499856,137.2090627499856,138.2092526659835,138.56200770800933,138.79564224998467,138.79564224998467,138.79564224998467,140.20917708298657,140.20917708298657,140.20917708298657,140.20917708298657,3.997107333969325,141.228617958026,200002,003,2023-03-16_15h48.13.007,DMS_BEST_eyetracking_DAN_base_12-36_looped_10minWORKING,2022.2.4,None,
17,UNPRED,12,0.7534258885793286,2,images/picture_3.png,images/picture_1.png,0,"[-11.733433509789462, 11.733433509789464]",-11.733433509789462,11.733433509789464,images/picture_2.png,1,"[11.733433509789462, -11.733433509789466]",11.733433509789462,-11.733433509789464,images/picture_3.png,2,"[-11.733433509789466, -11.733433509789462]",-11.733433509789464,-11.733433509789462,0,1,1,0.7534258885793286,1.7534258885793286,1.2465741114206714,3,1,1.5034258885793286,0,1,0,1,0,0,3,3,8,,,,,,,,,,,,,,,,,,,,,200002,003,2023-03-16_15h48.13.007,DMS_BEST_eyetracking_DAN_base_12-36_looped_10minWORKING,2022.2.4,None,
17,UNPRED,12,0.7534258885793286,2,images/picture_3.png,images/picture_1.png,0,"[-11.733433509789462, 11.733433509789464]",-11.733433509789462,11.733433509789464,images/picture_2.png,1,"[11.733433509789462, -11.733433509789466]",11.733433509789462,-11.733433509789464,images/picture_3.png,2,"[-11.733433509789466, -11.733433509789462]",-11.733433509789464,-11.733433509789462,0,1,1,0.7534258885793286,1.7534258885793286,1.2465741114206714,3,1,1.5034258885793286,0,1,0,1,0,0,3,3,8,,,,,,,0.004393833049107343,141.228617958026,141.228617958026,142.2426110410015,142.7426032910007,142.9619298329926,142.9619298329926,142.9619298329926,144.2094049580046,144.2094049580046,144.2094049580046,144.2094049580046,4.030535583035089,145.20919033302926,200002,003,2023-03-16_15h48.13.007,DMS_BEST_eyetracking_DAN_base_12-36_looped_10minWORKING,2022.2.4,None,
10,UNPRED,12,0.7309206939832297,0,images/picture_1.png,images/picture_1.png,0,"[-11.733433509789466, -11.733433509789462]",-11.733433509789464,-11.733433509789462,images/picture_2.png,1,"[11.733433509789464, 11.733433509789462]",11.733433509789464,11.733433509789462,images/picture_3.png,2,"[-11.733433509789462, 11.733433509789464]",-11.733433509789462,11.733433509789464,0,1,1,0.7309206939832297,1.7309206939832298,1.2690793060167702,3,1,1.4809206939832298,0,1,0,1,0,0,4,4,1,,,,,,,,,,,,,,,,,,,,,200002,003,2023-03-16_15h48.13.007,DMS_BEST_eyetracking_DAN_base_12-36_looped_10minWORKING,2022.2.4,None,
10,UNPRED,12,0.7309206939832297,0,images/picture_1.png,images/picture_1.png,0,"[-11.733433509789466, -11.733433509789462]",-11.733433509789464,-11.733433509789462,images/picture_2.png,1,"[11.733433509789464, 11.733433509789462]",11.733433509789464,11.733433509789462,images/picture_3.png,2,"[-11.733433509789462, 11.733433509789464]",-11.733433509789462,11.733433509789464,0,1,1,0.7309206939832297,1.7309206939832298,1.2690793060167702,3,1,1.4809206939832298,0,1,0,1,0,0,4,4,1,,,,,,,0.006002040987368673,145.2620307499892,145.2620307499892,146.27582212502602,146.74234529101523,146.97595170798013,146.97595170798013,146.97595170798013,148.24256595800398,148.24256595800398,148.24256595800398,148.24256595800398,4.0297049159999005,149.24260045803385,200002,003,2023-03-16_15h48.13.007,DMS_BEST_eyetracking_DAN_base_12-36_looped_10minWORKING,2022.2.4,None,
9,UNPRED,12,1.0763731672129595,1,images/picture_2.png,images/picture_1.png,0,"[11.733433509789462, -11.733433509789466]",11.733433509789462,-11.733433509789464,images/picture_2.png,1,"[11.733433509789464, 11.733433509789462]",11.733433509789464,11.733433509789462,images/picture_3.png,2,"[-11.733433509789466, -11.733433509789462]",-11.733433509789464,-11.733433509789462,0,1,1,1.0763731672129595,2.07637316721296,0.9236268327870404,3,1,1.82637316721296,0,1,0,1,0,0,5,5,0,,,,,,,,,,,,,,,,,,,,,200002,003,2023-03-16_15h48.13.007,DMS_BEST_eyetracking_DAN_base_12-36_looped_10minWORKING,2022.2.4,None,
9,UNPRED,12,1.0763731672129595,1,images/picture_2.png,images/picture_1.png,0,"[11.733433509789462, -11.733433509789466]",11.733433509789462,-11.733433509789464,images/picture_2.png,1,"[11.733433509789464, 11.733433509789462]",11.733433509789464,11.733433509789462,images/picture_3.png,2,"[-11.733433509789466, -11.733433509789462]",-11.733433509789464,-11.733433509789462,0,1,1,1.0763731672129595,2.07637316721296,0.9236268327870404,3,1,1.82637316721296,0,1,0,1,0,0,5,5,0,,,,,,,0.006685708009172231,149.29841695801588,149.29841695801588,150.30908937501954,151.12852891598595,151.3421932500205,151.3421932500205,151.3421932500205,152.27593699999852,152.27593699999852,152.27593699999852,152.27593699999852,4.029562790994532,153.27569354098523,200002,003,2023-03-16_15h48.13.007,DMS_BEST_eyetracking_DAN_base_12-36_looped_10minWORKING,2022.2.4,None,
11,UNPRED,12,0.9145577463689932,2,images/picture_3.png,images/picture_1.png,0,"[-11.733433509789462, 11.733433509789464]",-11.733433509789462,11.733433509789464,images/picture_2.png,1,"[11.733433509789464, 11.733433509789462]",11.733433509789464,11.733433509789462,images/picture_3.png,2,"[11.733433509789462, -11.733433509789466]",11.733433509789462,-11.733433509789464,0,1,1,0.9145577463689932,1.914557746368993,1.0854422536310069,3,1,1.6645577463689931,0,1,0,1,0,0,6,6,2,,,,,,,,,,,,,,,,,,,,,200002,003,2023-03-16_15h48.13.007,DMS_BEST_eyetracking_DAN_base_12-36_looped_10minWORKING,2022.2.4,None,
11,UNPRED,12,0.9145577463689932,2,images/picture_3.png,images/picture_1.png,0,"[-11.733433509789462, 11.733433509789464]",-11.733433509789462,11.733433509789464,images/picture_2.png,1,"[11.733433509789464, 11.733433509789462]",11.733433509789464,11.733433509789462,images/picture_3.png,2,"[11.733433509789462, -11.733433509789466]",11.733433509789462,-11.733433509789464,0,1,1,0.9145577463689932,1.914557746368993,1.0854422536310069,3,1,1.6645577463689931,0,1,0,1,0,0,6,6,2,,,,,,,0.0035069999867118895,153.30998975003604,153.30998975003604,154.30922175000887,154.97569854103494,155.20915158302523,155.20915158302523,155.20915158302523,156.30919125000946,156.30919125000946,156.30919125000946,156.30919125000946,3.996194207982626,157.30951633298537,200002,003,2023-03-16_15h48.13.007,DMS_BEST_eyetracking_DAN_base_12-36_looped_10minWORKING,2022.2.4,None,
15,UNPRED,12,1.0744407214590128,1,images/picture_2.png,images/picture_1.png,0,"[11.733433509789464, 11.733433509789462]",11.733433509789464,11.733433509789462,images/picture_2.png,1,"[11.733433509789462, -11.733433509789466]",11.733433509789462,-11.733433509789464,images/picture_3.png,2,"[-11.733433509789466, -11.733433509789462]",-11.733433509789464,-11.733433509789462,0,1,1,1.0744407214590128,2.0744407214590126,0.9255592785409872,3,1,1.8244407214590128,0,1,0,1,0,0,7,7,6,,,,,,,,,,,,,,,,,,,,,200002,003,2023-03-16_15h48.13.007,DMS_BEST_eyetracking_DAN_base_12-36_looped_10minWORKING,2022.2.4,None,
15,UNPRED,12,1.0744407214590128,1,images/picture_2.png,images/picture_1.png,0,"[11.733433509789464, 11.733433509789462]",11.733433509789464,11.733433509789462,images/picture_2.png,1,"[11.733433509789462, -11.733433509789466]",11.733433509789462,-11.733433509789464,images/picture_3.png,2,"[-11.733433509789466, -11.733433509789462]",-11.733433509789464,-11.733433509789462,0,1,1,1.0744407214590128,2.0744407214590126,0.9255592785409872,3,1,1.8244407214590128,0,1,0,1,0,0,7,7,6,,,,,,,0.002327333961147815,157.30951633298537,157.30951633298537,158.30948212498333,159.14250324998284,159.375591833028,159.375591833028,159.375591833028,160.30923891603015,160.30923891603015,160.30923891603015,160.30923891603015,3.9996087919571437,161.32880083302734,200002,003,2023-03-16_15h48.13.007,DMS_BEST_eyetracking_DAN_base_12-36_looped_10minWORKING,2022.2.4,None,
14,UNPRED,12,0.5449175114551901,1,images/picture_2.png,images/picture_1.png,0,"[-11.733433509789462, 11.733433509789464]",-11.733433509789462,11.733433509789464,images/picture_2.png,1,"[11.733433509789462, -11.733433509789466]",11.733433509789462,-11.733433509789464,images/picture_3.png,2,"[-11.733433509789466, -11.733433509789462]",-11.733433509789464,-11.733433509789462,0,1,1,0.5449175114551901,1.5449175114551899,1.4550824885448101,3,1,1.2949175114551899,0,1,0,1,0,0,8,8,5,,,,,,,,,,,,,,,,,,,,,200002,003,2023-03-16_15h48.13.007,DMS_BEST_eyetracking_DAN_base_12-36_looped_10minWORKING,2022.2.4,None,
14,UNPRED,12,0.5449175114551901,1,images/picture_2.png,images/picture_1.png,0,"[-11.733433509789462, 11.733433509789464]",-11.733433509789462,11.733433509789464,images/picture_2.png,1,"[11.733433509789462, -11.733433509789466]",11.733433509789462,-11.733433509789464,images/picture_3.png,2,"[-11.733433509789466, -11.733433509789462]",-11.733433509789464,-11.733433509789462,0,1,1,0.5449175114551901,1.5449175114551899,1.4550824885448101,3,1,1.2949175114551899,0,1,0,1,0,0,8,8,5,,,,,,,0.005079415976069868,161.32880083302734,161.32880083302734,162.34257416601758,162.62885845801793,162.84243687498383,162.84243687498383,162.84243687498383,164.30932499998016,164.30932499998016,164.30932499998016,164.30932499998016,4.029667166003492,165.309172749985,200002,003,2023-03-16_15h48.13.007,DMS_BEST_eyetracking_DAN_base_12-36_looped_10minWORKING,2022.2.4,None,
,,,,,,,,,,,,,,,,,,,,,,,,,,,,,,,1,0,1,0,,,,,,,,,165.3942558330018,177.42824308300624,,,,,,,,,,,,,,,200002,003,2023-03-16_15h48.13.007,DMS_BEST_eyetracking_DAN_base_12-36_looped_10minWORKING,2022.2.4,None,
19,PRED,12,0.8087344139692607,0,images/picture_1.png,images/picture_1.png,0,"[-11.733433509789466, -11.733433509789462]",-11.733433509789464,-11.733433509789462,images/picture_2.png,1,"[11.733433509789464, 11.733433509789462]",11.733433509789464,11.733433509789462,images/picture_3.png,2,"[-11.733433509789462, 11.733433509789464]",-11.733433509789462,11.733433509789464,0,1,1,0.8087344139692607,1.8087344139692607,1.1912655860307393,3,1,1.5587344139692607,0,2,0,2,0,0,0,0,1,,,,,,,,,,,,,,,,,,,,,200002,003,2023-03-16_15h48.13.007,DMS_BEST_eyetracking_DAN_base_12-36_looped_10minWORKING,2022.2.4,None,
19,PRED,12,0.8087344139692607,0,images/picture_1.png,images/picture_1.png,0,"[-11.733433509789466, -11.733433509789462]",-11.733433509789464,-11.733433509789462,images/picture_2.png,1,"[11.733433509789464, 11.733433509789462]",11.733433509789464,11.733433509789462,images/picture_3.png,2,"[-11.733433509789462, 11.733433509789464]",-11.733433509789462,11.733433509789464,0,1,1,0.8087344139692607,1.8087344139692607,1.1912655860307393,3,1,1.5587344139692607,0,2,0,2,0,0,0,0,1,,,,,,,0.0034955829614773393,177.42824308300624,177.42824308300624,178.44228349998593,178.99575624999125,179.22897383302916,179.22897383302916,179.22897383302916,180.42874904099153,180.42874904099153,180.42874904099153,180.42874904099153,4.014508124964777,181.44195125001715,200002,003,2023-03-16_15h48.13.007,DMS_BEST_eyetracking_DAN_base_12-36_looped_10minWORKING,2022.2.4,None,
22,PRED,12,0.6144834074856915,0,images/picture_1.png,images/picture_1.png,0,"[11.733433509789462, -11.733433509789466]",11.733433509789462,-11.733433509789464,images/picture_2.png,1,"[-11.733433509789466, -11.733433509789462]",-11.733433509789464,-11.733433509789462,images/picture_3.png,2,"[11.733433509789464, 11.733433509789462]",11.733433509789464,11.733433509789462,0,1,1,0.6144834074856915,1.6144834074856915,1.3855165925143085,3,1,1.3644834074856915,0,2,0,2,0,0,1,1,4,,,,,,,,,,,,,,,,,,,,,200002,003,2023-03-16_15h48.13.007,DMS_BEST_eyetracking_DAN_base_12-36_looped_10minWORKING,2022.2.4,None,
22,PRED,12,0.6144834074856915,0,images/picture_1.png,images/picture_1.png,0,"[11.733433509789462, -11.733433509789466]",11.733433509789462,-11.733433509789464,images/picture_2.png,1,"[-11.733433509789466, -11.733433509789462]",-11.733433509789464,-11.733433509789462,images/picture_3.png,2,"[11.733433509789464, 11.733433509789462]",11.733433509789464,11.733433509789462,0,1,1,0.6144834074856915,1.6144834074856915,1.3855165925143085,3,1,1.3644834074856915,0,2,0,2,0,0,1,1,4,,,,,,,0.002852874982636422,181.44195125001715,181.44195125001715,182.44242795801256,182.8091778330272,183.06185566599015,183.06185566599015,183.06185566599015,184.46087950002402,184.46087950002402,184.46087950002402,184.4420691250125,3.9967171250027604,185.44257891603047,200002,003,2023-03-16_15h48.13.007,DMS_BEST_eyetracking_DAN_base_12-36_looped_10minWORKING,2022.2.4,None,
23,PRED,12,0.91776321805136,0,images/picture_1.png,images/picture_1.png,0,"[-11.733433509789462, 11.733433509789464]",-11.733433509789462,11.733433509789464,images/picture_2.png,1,"[-11.733433509789466, -11.733433509789462]",-11.733433509789464,-11.733433509789462,images/picture_3.png,2,"[11.733433509789464, 11.733433509789462]",11.733433509789464,11.733433509789462,0,1,1,0.91776321805136,1.9177632180513602,1.08223678194864,3,1,1.6677632180513602,0,2,0,2,0,0,2,2,5,,,,,,,,,,,,,,,,,,,,,200002,003,2023-03-16_15h48.13.007,DMS_BEST_eyetracking_DAN_base_12-36_looped_10minWORKING,2022.2.4,None,
23,PRED,12,0.91776321805136,0,images/picture_1.png,images/picture_1.png,0,"[-11.733433509789462, 11.733433509789464]",-11.733433509789462,11.733433509789464,images/picture_2.png,1,"[-11.733433509789466, -11.733433509789462]",-11.733433509789464,-11.733433509789462,images/picture_3.png,2,"[11.733433509789464, 11.733433509789462]",11.733433509789464,11.733433509789462,0,1,1,0.91776321805136,1.9177632180513602,1.08223678194864,3,1,1.6677632180513602,0,2,0,2,0,0,2,2,5,,,,,,,0.003470833005849272,185.44257891603047,185.44257891603047,186.44245745800436,187.10908658301923,187.36190087499563,187.36190087499563,187.36190087499563,188.4420242080232,188.4420242080232,188.4420242080232,188.4420242080232,3.9976480419863947,189.44316875003278,200002,003,2023-03-16_15h48.13.007,DMS_BEST_eyetracking_DAN_base_12-36_looped_10minWORKING,2022.2.4,None,
18,PRED,12,0.9229737036720462,0,images/picture_1.png,images/picture_1.png,0,"[-11.733433509789462, 11.733433509789464]",-11.733433509789462,11.733433509789464,images/picture_2.png,1,"[-11.733433509789466, -11.733433509789462]",-11.733433509789464,-11.733433509789462,images/picture_3.png,2,"[11.733433509789464, 11.733433509789462]",11.733433509789464,11.733433509789462,0,1,1,0.9229737036720462,1.9229737036720465,1.0770262963279538,3,1,1.6729737036720462,0,2,0,2,0,0,3,3,0,,,,,,,,,,,,,,,,,,,,,200002,003,2023-03-16_15h48.13.007,DMS_BEST_eyetracking_DAN_base_12-36_looped_10minWORKING,2022.2.4,None,
18,PRED,12,0.9229737036720462,0,images/picture_1.png,images/picture_1.png,0,"[-11.733433509789462, 11.733433509789464]",-11.733433509789462,11.733433509789464,images/picture_2.png,1,"[-11.733433509789466, -11.733433509789462]",-11.733433509789464,-11.733433509789462,images/picture_3.png,2,"[11.733433509789464, 11.733433509789462]",11.733433509789464,11.733433509789462,0,1,1,0.9229737036720462,1.9229737036720465,1.0770262963279538,3,1,1.6729737036720462,0,2,0,2,0,0,3,3,0,,,,,,,0.0035132080083712935,189.44316875003278,189.44316875003278,190.44246004102752,191.12867379101226,191.36191241600318,191.36191241600318,191.36191241600318,192.44249287503771,192.44249287503771,192.44249287503771,192.44249287503771,3.996550625015516,193.44133095798315,200002,003,2023-03-16_15h48.13.007,DMS_BEST_eyetracking_DAN_base_12-36_looped_10minWORKING,2022.2.4,None,
21,PRED,12,0.8001413386099281,0,images/picture_1.png,images/picture_1.png,0,"[-11.733433509789462, 11.733433509789464]",-11.733433509789462,11.733433509789464,images/picture_2.png,1,"[11.733433509789464, 11.733433509789462]",11.733433509789464,11.733433509789462,images/picture_3.png,2,"[-11.733433509789466, -11.733433509789462]",-11.733433509789464,-11.733433509789462,0,1,1,0.8001413386099281,1.800141338609928,1.199858661390072,3,1,1.550141338609928,0,2,0,2,0,0,4,4,3,,,,,,,,,,,,,,,,,,,,,200002,003,2023-03-16_15h48.13.007,DMS_BEST_eyetracking_DAN_base_12-36_looped_10minWORKING,2022.2.4,None,
21,PRED,12,0.8001413386099281,0,images/picture_1.png,images/picture_1.png,0,"[-11.733433509789462, 11.733433509789464]",-11.733433509789462,11.733433509789464,images/picture_2.png,1,"[11.733433509789464, 11.733433509789462]",11.733433509789464,11.733433509789462,images/picture_3.png,2,"[-11.733433509789466, -11.733433509789462]",-11.733433509789464,-11.733433509789462,0,1,1,0.8001413386099281,1.800141338609928,1.199858661390072,3,1,1.550141338609928,0,2,0,2,0,0,4,4,3,,,,,,,0.0029597090324386954,193.44133095798315,193.44133095798315,194.44239579100395,194.995500791003,195.24213587498525,195.24213587498525,195.24213587498525,196.44237741600955,196.44237741600955,196.44237741600955,196.44237741600955,3.9979582499945536,197.46199199999683,200002,003,2023-03-16_15h48.13.007,DMS_BEST_eyetracking_DAN_base_12-36_looped_10minWORKING,2022.2.4,None,
24,PRED,12,0.7381198879054409,0,images/picture_1.png,images/picture_1.png,0,"[-11.733433509789462, 11.733433509789464]",-11.733433509789462,11.733433509789464,images/picture_2.png,1,"[11.733433509789462, -11.733433509789466]",11.733433509789462,-11.733433509789464,images/picture_3.png,2,"[11.733433509789464, 11.733433509789462]",11.733433509789464,11.733433509789462,0,1,1,0.7381198879054409,1.738119887905441,1.261880112094559,3,1,1.488119887905441,0,2,0,2,0,0,5,5,6,,,,,,,,,,,,,,,,,,,,,200002,003,2023-03-16_15h48.13.007,DMS_BEST_eyetracking_DAN_base_12-36_looped_10minWORKING,2022.2.4,None,
24,PRED,12,0.7381198879054409,0,images/picture_1.png,images/picture_1.png,0,"[-11.733433509789462, 11.733433509789464]",-11.733433509789462,11.733433509789464,images/picture_2.png,1,"[11.733433509789462, -11.733433509789466]",11.733433509789462,-11.733433509789464,images/picture_3.png,2,"[11.733433509789464, 11.733433509789462]",11.733433509789464,11.733433509789462,0,1,1,0.7381198879054409,1.738119887905441,1.261880112094559,3,1,1.488119887905441,0,2,0,2,0,0,5,5,6,,,,,,,0.003526749962475151,197.46199199999683,197.46199199999683,198.47521137498552,198.96116112498567,199.17536812502658,199.17536812502658,199.17536812502658,200.44239233300323,200.44239233300323,200.44239233300323,200.44239233300323,4.028865166998003,201.4423989999923,200002,003,2023-03-16_15h48.13.007,DMS_BEST_eyetracking_DAN_base_12-36_looped_10minWORKING,2022.2.4,None,
25,PRED,12,0.6358474441612062,0,images/picture_1.png,images/picture_1.png,0,"[11.733433509789464, 11.733433509789462]",11.733433509789464,11.733433509789462,images/picture_2.png,1,"[11.733433509789462, -11.733433509789466]",11.733433509789462,-11.733433509789464,images/picture_3.png,2,"[-11.733433509789466, -11.733433509789462]",-11.733433509789464,-11.733433509789462,0,1,1,0.6358474441612062,1.635847444161206,1.364152555838794,3,1,1.385847444161206,0,2,0,2,0,0,6,6,7,,,,,,,,,,,,,,,,,,,,,200002,003,2023-03-16_15h48.13.007,DMS_BEST_eyetracking_DAN_base_12-36_looped_10minWORKING,2022.2.4,None,
25,PRED,12,0.6358474441612062,0,images/picture_1.png,images/picture_1.png,0,"[11.733433509789464, 11.733433509789462]",11.733433509789464,11.733433509789462,images/picture_2.png,1,"[11.733433509789462, -11.733433509789466]",11.733433509789462,-11.733433509789464,images/picture_3.png,2,"[-11.733433509789466, -11.733433509789462]",-11.733433509789464,-11.733433509789462,0,1,1,0.6358474441612062,1.635847444161206,1.364152555838794,3,1,1.385847444161206,0,2,0,2,0,0,6,6,7,,,,,,,0.003624624980147928,201.49537366599543,201.49537366599543,202.5090369579848,202.89483541599475,203.108694708033,203.108694708033,203.108694708033,204.4756681250292,204.4756681250292,204.4756681250292,204.4756681250292,4.029960084008053,205.47567308298312,200002,003,2023-03-16_15h48.13.007,DMS_BEST_eyetracking_DAN_base_12-36_looped_10minWORKING,2022.2.4,None,
26,PRED,12,0.5326433948390947,0,images/picture_1.png,images/picture_1.png,0,"[11.733433509789464, 11.733433509789462]",11.733433509789464,11.733433509789462,images/picture_2.png,1,"[-11.733433509789466, -11.733433509789462]",-11.733433509789464,-11.733433509789462,images/picture_3.png,2,"[-11.733433509789462, 11.733433509789464]",-11.733433509789462,11.733433509789464,0,1,1,0.5326433948390947,1.5326433948390947,1.4673566051609053,3,1,1.2826433948390947,0,2,0,2,0,0,7,7,8,,,,,,,,,,,,,,,,,,,,,200002,003,2023-03-16_15h48.13.007,DMS_BEST_eyetracking_DAN_base_12-36_looped_10minWORKING,2022.2.4,None,
26,PRED,12,0.5326433948390947,0,images/picture_1.png,images/picture_1.png,0,"[11.733433509789464, 11.733433509789462]",11.733433509789464,11.733433509789462,images/picture_2.png,1,"[-11.733433509789466, -11.733433509789462]",-11.733433509789464,-11.733433509789462,images/picture_3.png,2,"[-11.733433509789462, 11.733433509789464]",-11.733433509789462,11.733433509789464,0,1,1,0.5326433948390947,1.5326433948390947,1.4673566051609053,3,1,1.2826433948390947,0,2,0,2,0,0,7,7,8,,,,,,,0.0033902919967658818,205.51009883300867,205.51009883300867,206.5091133749811,206.79535687499447,207.04202304099454,207.04202304099454,207.04202304099454,208.508588583034,208.508588583034,208.508588583034,208.508588583034,3.996962999983225,209.5100040829857,200002,003,2023-03-16_15h48.13.007,DMS_BEST_eyetracking_DAN_base_12-36_looped_10minWORKING,2022.2.4,None,
20,PRED,12,0.5111920481875195,0,images/picture_1.png,images/picture_1.png,0,"[-11.733433509789466, -11.733433509789462]",-11.733433509789464,-11.733433509789462,images/picture_2.png,1,"[11.733433509789464, 11.733433509789462]",11.733433509789464,11.733433509789462,images/picture_3.png,2,"[-11.733433509789462, 11.733433509789464]",-11.733433509789462,11.733433509789464,0,1,1,0.5111920481875195,1.5111920481875196,1.4888079518124804,3,1,1.2611920481875196,0,2,0,2,0,0,8,8,2,,,,,,,,,,,,,,,,,,,,,200002,003,2023-03-16_15h48.13.007,DMS_BEST_eyetracking_DAN_base_12-36_looped_10minWORKING,2022.2.4,None,
20,PRED,12,0.5111920481875195,0,images/picture_1.png,images/picture_1.png,0,"[-11.733433509789466, -11.733433509789462]",-11.733433509789464,-11.733433509789462,images/picture_2.png,1,"[11.733433509789464, 11.733433509789462]",11.733433509789464,11.733433509789462,images/picture_3.png,2,"[-11.733433509789462, 11.733433509789464]",-11.733433509789462,11.733433509789464,0,1,1,0.5111920481875195,1.5111920481875196,1.4888079518124804,3,1,1.2611920481875196,0,2,0,2,0,0,8,8,2,,,,,,,0.0034815000253729522,209.5100040829857,209.5100040829857,210.50892287498573,210.77570150000975,211.00873545801733,211.00873545801733,211.00873545801733,212.50910354102962,212.50910354102962,212.50910354102962,212.50910354102962,3.997285458026454,213.56402191601228,200002,003,2023-03-16_15h48.13.007,DMS_BEST_eyetracking_DAN_base_12-36_looped_10minWORKING,2022.2.4,None,
,,,,,,,,,,,,,,,,,,,,,,,,,,,,,,,2,0,2,0,,,,,,,,,213.56402191601228,225.59668945800513,,,,,,,,,,,,,,,200002,003,2023-03-16_15h48.13.007,DMS_BEST_eyetracking_DAN_base_12-36_looped_10minWORKING,2022.2.4,None,
28,UNPRED,12,0.8573369995722357,2,images/picture_3.png,images/picture_1.png,0,"[11.733433509789462, -11.733433509789466]",11.733433509789462,-11.733433509789464,images/picture_2.png,1,"[-11.733433509789462, 11.733433509789464]",-11.733433509789462,11.733433509789464,images/picture_3.png,2,"[11.733433509789464, 11.733433509789462]",11.733433509789464,11.733433509789462,0,1,1,0.8573369995722357,1.857336999572236,1.1426630004277645,3,1,1.6073369995722355,0,3,0,3,0,0,0,0,1,,,,,,,,,,,,,,,,,,,,,200002,003,2023-03-16_15h48.13.007,DMS_BEST_eyetracking_DAN_base_12-36_looped_10minWORKING,2022.2.4,None,
28,UNPRED,12,0.8573369995722357,2,images/picture_3.png,images/picture_1.png,0,"[11.733433509789462, -11.733433509789466]",11.733433509789462,-11.733433509789464,images/picture_2.png,1,"[-11.733433509789462, 11.733433509789464]",-11.733433509789462,11.733433509789464,images/picture_3.png,2,"[11.733433509789464, 11.733433509789462]",11.733433509789464,11.733433509789462,0,1,1,0.8573369995722357,1.857336999572236,1.1426630004277645,3,1,1.6073369995722355,0,3,0,3,0,0,0,0,1,,,,,,,0.00370195897994563,225.59668945800513,225.59668945800513,226.60888954100665,227.20911612501368,227.44200254103635,227.44200254103635,227.44200254103635,228.59439462498995,228.59439462498995,228.59439462498995,228.59439462498995,4.009165208961349,229.62748845800525,200002,003,2023-03-16_15h48.13.007,DMS_BEST_eyetracking_DAN_base_12-36_looped_10minWORKING,2022.2.4,None,
35,UNPRED,12,0.645791309321063,0,images/picture_1.png,images/picture_1.png,0,"[11.733433509789462, -11.733433509789466]",11.733433509789462,-11.733433509789464,images/picture_2.png,1,"[-11.733433509789462, 11.733433509789464]",-11.733433509789462,11.733433509789464,images/picture_3.png,2,"[-11.733433509789466, -11.733433509789462]",-11.733433509789464,-11.733433509789462,0,1,1,0.645791309321063,1.6457913093210632,1.3542086906789372,3,1,1.3957913093210628,0,3,0,3,0,0,1,1,8,,,,,,,,,,,,,,,,,,,,,200002,003,2023-03-16_15h48.13.007,DMS_BEST_eyetracking_DAN_base_12-36_looped_10minWORKING,2022.2.4,None,
35,UNPRED,12,0.645791309321063,0,images/picture_1.png,images/picture_1.png,0,"[11.733433509789462, -11.733433509789466]",11.733433509789462,-11.733433509789464,images/picture_2.png,1,"[-11.733433509789462, 11.733433509789464]",-11.733433509789462,11.733433509789464,images/picture_3.png,2,"[-11.733433509789466, -11.733433509789462]",-11.733433509789464,-11.733433509789462,0,1,1,0.645791309321063,1.6457913093210632,1.3542086906789372,3,1,1.3957913093210628,0,3,0,3,0,0,1,1,8,,,,,,,0.004816000000573695,229.62748845800525,229.62748845800525,230.64238025003579,231.02873158303555,231.24212291598087,231.24212291598087,231.24212291598087,232.60894733300665,232.60894733300665,232.60894733300665,232.60894733300665,4.03018899995368,233.60896587499883,200002,003,2023-03-16_15h48.13.007,DMS_BEST_eyetracking_DAN_base_12-36_looped_10minWORKING,2022.2.4,None,
32,UNPRED,12,0.7248215370580734,1,images/picture_2.png,images/picture_1.png,0,"[-11.733433509789466, -11.733433509789462]",-11.733433509789464,-11.733433509789462,images/picture_2.png,1,"[-11.733433509789462, 11.733433509789464]",-11.733433509789462,11.733433509789464,images/picture_3.png,2,"[11.733433509789462, -11.733433509789466]",11.733433509789462,-11.733433509789464,0,1,1,0.7248215370580734,1.7248215370580735,1.2751784629419265,3,1,1.4748215370580735,0,3,0,3,0,0,2,2,5,,,,,,,,,,,,,,,,,,,,,200002,003,2023-03-16_15h48.13.007,DMS_BEST_eyetracking_DAN_base_12-36_looped_10minWORKING,2022.2.4,None,
32,UNPRED,12,0.7248215370580734,1,images/picture_2.png,images/picture_1.png,0,"[-11.733433509789466, -11.733433509789462]",-11.733433509789464,-11.733433509789462,images/picture_2.png,1,"[-11.733433509789462, 11.733433509789464]",-11.733433509789462,11.733433509789464,images/picture_3.png,2,"[11.733433509789462, -11.733433509789466]",11.733433509789462,-11.733433509789464,0,1,1,0.7248215370580734,1.7248215370580735,1.2751784629419265,3,1,1.4748215370580735,0,3,0,3,0,0,2,2,5,,,,,,,0.007987875025719404,233.66164033301175,233.66164033301175,234.67564999999013,235.14237925002817,235.36226895800792,235.36226895800792,235.36226895800792,236.642132457986,236.642132457986,236.642132457986,236.642132457986,4.0298428750247695,237.64237420802237,200002,003,2023-03-16_15h48.13.007,DMS_BEST_eyetracking_DAN_base_12-36_looped_10minWORKING,2022.2.4,None,
30,UNPRED,12,1.0775079144338446,2,images/picture_3.png,images/picture_1.png,0,"[11.733433509789464, 11.733433509789462]",11.733433509789464,11.733433509789462,images/picture_2.png,1,"[-11.733433509789466, -11.733433509789462]",-11.733433509789464,-11.733433509789462,images/picture_3.png,2,"[11.733433509789462, -11.733433509789466]",11.733433509789462,-11.733433509789464,0,1,1,1.0775079144338446,2.077507914433845,0.9224920855661554,3,1,1.8275079144338449,0,3,0,3,0,0,3,3,3,,,,,,,,,,,,,,,,,,,,,200002,003,2023-03-16_15h48.13.007,DMS_BEST_eyetracking_DAN_base_12-36_looped_10minWORKING,2022.2.4,None,
30,UNPRED,12,1.0775079144338446,2,images/picture_3.png,images/picture_1.png,0,"[11.733433509789464, 11.733433509789462]",11.733433509789464,11.733433509789462,images/picture_2.png,1,"[-11.733433509789466, -11.733433509789462]",-11.733433509789464,-11.733433509789462,images/picture_3.png,2,"[11.733433509789462, -11.733433509789466]",11.733433509789462,-11.733433509789464,0,1,1,1.0775079144338446,2.077507914433845,0.9224920855661554,3,1,1.8275079144338449,0,3,0,3,0,0,3,3,3,,,,,,,0.0034142090007662773,237.67640083300648,237.67640083300648,238.67547925002873,239.50859979103552,239.74187762499787,239.74187762499787,239.74187762499787,240.67566754098516,240.67566754098516,240.67566754098516,240.67566754098516,3.9967059589689597,241.6765698749805,200002,003,2023-03-16_15h48.13.007,DMS_BEST_eyetracking_DAN_base_12-36_looped_10minWORKING,2022.2.4,None,
27,UNPRED,12,1.098495871677085,2,images/picture_3.png,images/picture_1.png,0,"[-11.733433509789462, 11.733433509789464]",-11.733433509789462,11.733433509789464,images/picture_2.png,1,"[-11.733433509789466, -11.733433509789462]",-11.733433509789464,-11.733433509789462,images/picture_3.png,2,"[11.733433509789464, 11.733433509789462]",11.733433509789464,11.733433509789462,0,1,1,1.098495871677085,2.098495871677085,0.9015041283229149,3,1,1.848495871677085,0,3,0,3,0,0,4,4,0,,,,,,,,,,,,,,,,,,,,,200002,003,2023-03-16_15h48.13.007,DMS_BEST_eyetracking_DAN_base_12-36_looped_10minWORKING,2022.2.4,None,
27,UNPRED,12,1.098495871677085,2,images/picture_3.png,images/picture_1.png,0,"[-11.733433509789462, 11.733433509789464]",-11.733433509789462,11.733433509789464,images/picture_2.png,1,"[-11.733433509789466, -11.733433509789462]",-11.733433509789464,-11.733433509789462,images/picture_3.png,2,"[11.733433509789464, 11.733433509789462]",11.733433509789464,11.733433509789462,0,1,1,1.098495871677085,2.098495871677085,0.9015041283229149,3,1,1.848495871677085,0,3,0,3,0,0,4,4,0,,,,,,,0.003433624980971217,241.6765698749805,241.6765698749805,242.67566070798784,243.528126374993,243.77527445799205,243.77527445799205,243.77527445799205,244.67565766599728,244.67565766599728,244.67565766599728,244.67565766599728,3.9970721669960767,245.69533179100836,200002,003,2023-03-16_15h48.13.007,DMS_BEST_eyetracking_DAN_base_12-36_looped_10minWORKING,2022.2.4,None,
31,UNPRED,12,1.0430922049272031,2,images/picture_3.png,images/picture_1.png,0,"[-11.733433509789466, -11.733433509789462]",-11.733433509789464,-11.733433509789462,images/picture_2.png,1,"[11.733433509789464, 11.733433509789462]",11.733433509789464,11.733433509789462,images/picture_3.png,2,"[11.733433509789462, -11.733433509789466]",11.733433509789462,-11.733433509789464,0,1,1,1.0430922049272031,2.043092204927204,0.9569077950727968,3,1,1.7930922049272031,0,3,0,3,0,0,5,5,4,,,,,,,,,,,,,,,,,,,,,200002,003,2023-03-16_15h48.13.007,DMS_BEST_eyetracking_DAN_base_12-36_looped_10minWORKING,2022.2.4,None,
31,UNPRED,12,1.0430922049272031,2,images/picture_3.png,images/picture_1.png,0,"[-11.733433509789466, -11.733433509789462]",-11.733433509789464,-11.733433509789462,images/picture_2.png,1,"[11.733433509789464, 11.733433509789462]",11.733433509789464,11.733433509789462,images/picture_3.png,2,"[11.733433509789462, -11.733433509789466]",11.733433509789462,-11.733433509789464,0,1,1,1.0430922049272031,2.043092204927204,0.9569077950727968,3,1,1.7930922049272031,0,3,0,3,0,0,5,5,4,,,,,,,0.0034294169745408,245.69533179100836,245.69533179100836,246.7089991660323,247.49516520800535,247.70869141601725,247.70869141601725,247.70869141601725,248.67564916599076,248.67564916599076,248.67564916599076,248.67564916599076,4.029396708996501,249.67523462499958,200002,003,2023-03-16_15h48.13.007,DMS_BEST_eyetracking_DAN_base_12-36_looped_10minWORKING,2022.2.4,None,
33,UNPRED,12,0.927833567610231,0,images/picture_1.png,images/picture_1.png,0,"[-11.733433509789466, -11.733433509789462]",-11.733433509789464,-11.733433509789462,images/picture_2.png,1,"[11.733433509789464, 11.733433509789462]",11.733433509789464,11.733433509789462,images/picture_3.png,2,"[11.733433509789462, -11.733433509789466]",11.733433509789462,-11.733433509789464,0,1,1,0.927833567610231,1.927833567610231,1.072166432389769,3,1,1.677833567610231,0,3,0,3,0,0,6,6,6,,,,,,,,,,,,,,,,,,,,,200002,003,2023-03-16_15h48.13.007,DMS_BEST_eyetracking_DAN_base_12-36_looped_10minWORKING,2022.2.4,None,
33,UNPRED,12,0.927833567610231,0,images/picture_1.png,images/picture_1.png,0,"[-11.733433509789466, -11.733433509789462]",-11.733433509789464,-11.733433509789462,images/picture_2.png,1,"[11.733433509789464, 11.733433509789462]",11.733433509789464,11.733433509789462,images/picture_3.png,2,"[11.733433509789462, -11.733433509789466]",11.733433509789462,-11.733433509789464,0,1,1,0.927833567610231,1.927833567610231,1.072166432389769,3,1,1.677833567610231,0,3,0,3,0,0,6,6,6,,,,,,,0.0030499579734168947,249.7078586249845,249.7078586249845,250.7089220000198,251.39480875001755,251.62880845798645,251.62880845798645,251.62880845798645,252.70884033298353,252.70884033298353,252.70884033298353,252.70884033298353,3.9975202920031734,253.72881587501615,200002,003,2023-03-16_15h48.13.007,DMS_BEST_eyetracking_DAN_base_12-36_looped_10minWORKING,2022.2.4,None,
29,UNPRED,12,1.1947953454236846,0,images/picture_1.png,images/picture_1.png,0,"[-11.733433509789466, -11.733433509789462]",-11.733433509789464,-11.733433509789462,images/picture_2.png,1,"[11.733433509789464, 11.733433509789462]",11.733433509789464,11.733433509789462,images/picture_3.png,2,"[11.733433509789462, -11.733433509789466]",11.733433509789462,-11.733433509789464,0,1,1,1.1947953454236846,2.1947953454236844,0.8052046545763154,3,1,1.9447953454236844,0,3,0,3,0,0,7,7,2,,,,,,,,,,,,,,,,,,,,,200002,003,2023-03-16_15h48.13.007,DMS_BEST_eyetracking_DAN_base_12-36_looped_10minWORKING,2022.2.4,None,
29,UNPRED,12,1.1947953454236846,0,images/picture_1.png,images/picture_1.png,0,"[-11.733433509789466, -11.733433509789462]",-11.733433509789464,-11.733433509789462,images/picture_2.png,1,"[11.733433509789464, 11.733433509789462]",11.733433509789464,11.733433509789462,images/picture_3.png,2,"[11.733433509789462, -11.733433509789466]",11.733433509789462,-11.733433509789464,0,1,1,1.1947953454236846,2.1947953454236844,0.8052046545763154,3,1,1.9447953454236844,0,3,0,3,0,0,7,7,2,,,,,,,0.003575375012587756,253.72881587501615,253.72881587501615,254.74240916600684,255.6759396250127,255.90885858301772,255.90885858301772,255.90885858301772,256.72897670802195,256.72897670802195,256.72897670802195,256.70910587499384,4.029389875009656,257.70916637498885,200002,003,2023-03-16_15h48.13.007,DMS_BEST_eyetracking_DAN_base_12-36_looped_10minWORKING,2022.2.4,None,
34,UNPRED,12,1.142350802843064,1,images/picture_2.png,images/picture_1.png,0,"[11.733433509789462, -11.733433509789466]",11.733433509789462,-11.733433509789464,images/picture_2.png,1,"[11.733433509789464, 11.733433509789462]",11.733433509789464,11.733433509789462,images/picture_3.png,2,"[-11.733433509789466, -11.733433509789462]",-11.733433509789464,-11.733433509789462,0,1,1,1.142350802843064,2.142350802843064,0.8576491971569359,3,1,1.892350802843064,0,3,0,3,0,0,8,8,7,,,,,,,,,,,,,,,,,,,,,200002,003,2023-03-16_15h48.13.007,DMS_BEST_eyetracking_DAN_base_12-36_looped_10minWORKING,2022.2.4,None,
34,UNPRED,12,1.142350802843064,1,images/picture_2.png,images/picture_1.png,0,"[11.733433509789462, -11.733433509789466]",11.733433509789462,-11.733433509789464,images/picture_2.png,1,"[11.733433509789464, 11.733433509789462]",11.733433509789464,11.733433509789462,images/picture_3.png,2,"[-11.733433509789466, -11.733433509789462]",-11.733433509789464,-11.733433509789462,0,1,1,1.142350802843064,2.142350802843064,0.8576491971569359,3,1,1.892350802843064,0,3,0,3,0,0,8,8,7,,,,,,,0.006498875038232654,257.7620068329852,257.7620068329852,258.77560045802966,259.6611047909828,259.87519550003344,259.87519550003344,259.87519550003344,260.74235837499145,260.74235837499145,260.74235837499145,260.74235837499145,4.029667875031009,261.74237745802384,200002,003,2023-03-16_15h48.13.007,DMS_BEST_eyetracking_DAN_base_12-36_looped_10minWORKING,2022.2.4,None,
,,,,,,,,,,,,,,,,,,,,,,,,,,,,,,,3,0,3,0,,,,,,,,,261.84106637502555,273.86427904100856,,,,,,,,,,,,,,,200002,003,2023-03-16_15h48.13.007,DMS_BEST_eyetracking_DAN_base_12-36_looped_10minWORKING,2022.2.4,None,
43,PRED,12,1.0072999927058497,0,images/picture_1.png,images/picture_1.png,0,"[-11.733433509789462, 11.733433509789464]",-11.733433509789462,11.733433509789464,images/picture_2.png,1,"[-11.733433509789466, -11.733433509789462]",-11.733433509789464,-11.733433509789462,images/picture_3.png,2,"[11.733433509789462, -11.733433509789466]",11.733433509789462,-11.733433509789464,0,1,1,1.0072999927058497,2.0072999927058497,0.9927000072941504,3,1,1.7572999927058497,0,4,0,4,0,0,0,0,7,,,,,,,,,,,,,,,,,,,,,200002,003,2023-03-16_15h48.13.007,DMS_BEST_eyetracking_DAN_base_12-36_looped_10minWORKING,2022.2.4,None,
43,PRED,12,1.0072999927058497,0,images/picture_1.png,images/picture_1.png,0,"[-11.733433509789462, 11.733433509789464]",-11.733433509789462,11.733433509789464,images/picture_2.png,1,"[-11.733433509789466, -11.733433509789462]",-11.733433509789464,-11.733433509789462,images/picture_3.png,2,"[11.733433509789462, -11.733433509789466]",11.733433509789462,-11.733433509789464,0,1,1,1.0072999927058497,2.0072999927058497,0.9927000072941504,3,1,1.7572999927058497,0,4,0,4,0,0,0,0,7,,,,,,,0.003646708035375923,273.86427904100856,273.86427904100856,274.8757531250012,275.62838616600493,275.87539291603025,275.87539291603025,275.87539291603025,276.87571087502874,276.87571087502874,276.87571087502874,276.8617439160007,4.008799375034869,277.8957339579938,200002,003,2023-03-16_15h48.13.007,DMS_BEST_eyetracking_DAN_base_12-36_looped_10minWORKING,2022.2.4,None,
39,PRED,12,0.8236671349151782,0,images/picture_1.png,images/picture_1.png,0,"[11.733433509789464, 11.733433509789462]",11.733433509789464,11.733433509789462,images/picture_2.png,1,"[-11.733433509789466, -11.733433509789462]",-11.733433509789464,-11.733433509789462,images/picture_3.png,2,"[11.733433509789462, -11.733433509789466]",11.733433509789462,-11.733433509789464,0,1,1,0.8236671349151782,1.823667134915178,1.176332865084822,3,1,1.573667134915178,0,4,0,4,0,0,1,1,3,,,,,,,,,,,,,,,,,,,,,200002,003,2023-03-16_15h48.13.007,DMS_BEST_eyetracking_DAN_base_12-36_looped_10minWORKING,2022.2.4,None,
39,PRED,12,0.8236671349151782,0,images/picture_1.png,images/picture_1.png,0,"[11.733433509789464, 11.733433509789462]",11.733433509789464,11.733433509789462,images/picture_2.png,1,"[-11.733433509789466, -11.733433509789462]",-11.733433509789464,-11.733433509789462,images/picture_3.png,2,"[11.733433509789462, -11.733433509789466]",11.733433509789462,-11.733433509789464,0,1,1,0.8236671349151782,1.823667134915178,1.176332865084822,3,1,1.573667134915178,0,4,0,4,0,0,1,1,3,,,,,,,0.0036201250040903687,277.8957339579938,277.8957339579938,278.90875250002136,279.47542695800075,279.69430491601815,279.69430491601815,279.69430491601815,280.875712500012,280.875712500012,280.875712500012,280.875712500012,4.0293352080043405,281.87576558301225,200002,003,2023-03-16_15h48.13.007,DMS_BEST_eyetracking_DAN_base_12-36_looped_10minWORKING,2022.2.4,None,
42,PRED,12,0.7898341256875491,0,images/picture_1.png,images/picture_1.png,0,"[-11.733433509789466, -11.733433509789462]",-11.733433509789464,-11.733433509789462,images/picture_2.png,1,"[11.733433509789464, 11.733433509789462]",11.733433509789464,11.733433509789462,images/picture_3.png,2,"[11.733433509789462, -11.733433509789466]",11.733433509789462,-11.733433509789464,0,1,1,0.7898341256875491,1.7898341256875492,1.2101658743124508,3,1,1.5398341256875492,0,4,0,4,0,0,2,2,6,,,,,,,,,,,,,,,,,,,,,200002,003,2023-03-16_15h48.13.007,DMS_BEST_eyetracking_DAN_base_12-36_looped_10minWORKING,2022.2.4,None,
42,PRED,12,0.7898341256875491,0,images/picture_1.png,images/picture_1.png,0,"[-11.733433509789466, -11.733433509789462]",-11.733433509789464,-11.733433509789462,images/picture_2.png,1,"[11.733433509789464, 11.733433509789462]",11.733433509789464,11.733433509789462,images/picture_3.png,2,"[11.733433509789462, -11.733433509789466]",11.733433509789462,-11.733433509789464,0,1,1,0.7898341256875491,1.7898341256875492,1.2101658743124508,3,1,1.5398341256875492,0,4,0,4,0,0,2,2,6,,,,,,,0.0030070830252952874,281.9282425410347,281.9282425410347,282.9423702909844,283.47574620798696,283.6953072909964,283.6953072909964,283.6953072909964,284.9087095410214,284.9087095410214,284.9087095410214,284.9087095410214,4.02786912501324,285.9091234160005,200002,003,2023-03-16_15h48.13.007,DMS_BEST_eyetracking_DAN_base_12-36_looped_10minWORKING,2022.2.4,None,
36,PRED,12,0.7722412316950118,0,images/picture_1.png,images/picture_1.png,0,"[-11.733433509789462, 11.733433509789464]",-11.733433509789462,11.733433509789464,images/picture_2.png,1,"[-11.733433509789466, -11.733433509789462]",-11.733433509789464,-11.733433509789462,images/picture_3.png,2,"[11.733433509789464, 11.733433509789462]",11.733433509789464,11.733433509789462,0,1,1,0.7722412316950118,1.7722412316950118,1.2277587683049882,3,1,1.5222412316950118,0,4,0,4,0,0,3,3,0,,,,,,,,,,,,,,,,,,,,,200002,003,2023-03-16_15h48.13.007,DMS_BEST_eyetracking_DAN_base_12-36_looped_10minWORKING,2022.2.4,None,
36,PRED,12,0.7722412316950118,0,images/picture_1.png,images/picture_1.png,0,"[-11.733433509789462, 11.733433509789464]",-11.733433509789462,11.733433509789464,images/picture_2.png,1,"[-11.733433509789466, -11.733433509789462]",-11.733433509789464,-11.733433509789462,images/picture_3.png,2,"[11.733433509789464, 11.733433509789462]",11.733433509789464,11.733433509789462,0,1,1,0.7722412316950118,1.7722412316950118,1.2277587683049882,3,1,1.5222412316950118,0,4,0,4,0,0,3,3,0,,,,,,,0.0035949170123785734,285.9617266249843,285.9617266249843,286.9756302909809,287.4950127500342,287.7086644159863,287.7086644159863,287.7086644159863,288.94236645800993,288.94236645800993,288.94236645800993,288.94236645800993,4.029009166988544,289.9418166250107,200002,003,2023-03-16_15h48.13.007,DMS_BEST_eyetracking_DAN_base_12-36_looped_10minWORKING,2022.2.4,None,
38,PRED,12,0.6639920865354899,0,images/picture_1.png,images/picture_1.png,0,"[11.733433509789462, -11.733433509789466]",11.733433509789462,-11.733433509789464,images/picture_2.png,1,"[-11.733433509789466, -11.733433509789462]",-11.733433509789464,-11.733433509789462,images/picture_3.png,2,"[-11.733433509789462, 11.733433509789464]",-11.733433509789462,11.733433509789464,0,1,1,0.6639920865354899,1.6639920865354898,1.3360079134645102,3,1,1.4139920865354898,0,4,0,4,0,0,4,4,2,,,,,,,,,,,,,,,,,,,,,200002,003,2023-03-16_15h48.13.007,DMS_BEST_eyetracking_DAN_base_12-36_looped_10minWORKING,2022.2.4,None,
38,PRED,12,0.6639920865354899,0,images/picture_1.png,images/picture_1.png,0,"[11.733433509789462, -11.733433509789466]",11.733433509789462,-11.733433509789464,images/picture_2.png,1,"[-11.733433509789466, -11.733433509789462]",-11.733433509789464,-11.733433509789462,images/picture_3.png,2,"[-11.733433509789462, 11.733433509789464]",-11.733433509789462,11.733433509789464,0,1,1,0.6639920865354899,1.6639920865354898,1.3360079134645102,3,1,1.4139920865354898,0,4,0,4,0,0,4,4,2,,,,,,,0.0013442080235108733,289.97517637501005,289.97517637501005,290.9756841660128,291.39488637499744,291.6284154999885,291.6284154999885,291.6284154999885,292.9756227080361,292.9756227080361,292.9756227080361,292.9756227080361,4.000041666033212,293.9759816250298,200002,003,2023-03-16_15h48.13.007,DMS_BEST_eyetracking_DAN_base_12-36_looped_10minWORKING,2022.2.4,None,
37,PRED,12,0.6575298154213338,0,images/picture_1.png,images/picture_1.png,0,"[11.733433509789464, 11.733433509789462]",11.733433509789464,11.733433509789462,images/picture_2.png,1,"[-11.733433509789462, 11.733433509789464]",-11.733433509789462,11.733433509789464,images/picture_3.png,2,"[-11.733433509789466, -11.733433509789462]",-11.733433509789464,-11.733433509789462,0,1,1,0.6575298154213338,1.6575298154213338,1.3424701845786662,3,1,1.4075298154213338,0,4,0,4,0,0,5,5,1,,,,,,,,,,,,,,,,,,,,,200002,003,2023-03-16_15h48.13.007,DMS_BEST_eyetracking_DAN_base_12-36_looped_10minWORKING,2022.2.4,None,
37,PRED,12,0.6575298154213338,0,images/picture_1.png,images/picture_1.png,0,"[11.733433509789464, 11.733433509789462]",11.733433509789464,11.733433509789462,images/picture_2.png,1,"[-11.733433509789462, 11.733433509789464]",-11.733433509789462,11.733433509789464,images/picture_3.png,2,"[-11.733433509789466, -11.733433509789462]",-11.733433509789464,-11.733433509789462,0,1,1,0.6575298154213338,1.6575298154213338,1.3424701845786662,3,1,1.4075298154213338,0,4,0,4,0,0,5,5,1,,,,,,,0.00297166605014354,293.9759816250298,293.9759816250298,294.97577420802554,295.39498487499077,295.62890279100975,295.62890279100975,295.62890279100975,296.97569225000916,296.97569225000916,296.97569225000916,296.97569225000916,3.9962085830047727,297.97625433298526,200002,003,2023-03-16_15h48.13.007,DMS_BEST_eyetracking_DAN_base_12-36_looped_10minWORKING,2022.2.4,None,
41,PRED,12,1.1049245023102563,0,images/picture_1.png,images/picture_1.png,0,"[11.733433509789462, -11.733433509789466]",11.733433509789462,-11.733433509789464,images/picture_2.png,1,"[-11.733433509789466, -11.733433509789462]",-11.733433509789464,-11.733433509789462,images/picture_3.png,2,"[11.733433509789464, 11.733433509789462]",11.733433509789464,11.733433509789462,0,1,1,1.1049245023102563,2.1049245023102565,0.8950754976897435,3,1,1.8549245023102563,0,4,0,4,0,0,6,6,5,,,,,,,,,,,,,,,,,,,,,200002,003,2023-03-16_15h48.13.007,DMS_BEST_eyetracking_DAN_base_12-36_looped_10minWORKING,2022.2.4,None,
41,PRED,12,1.1049245023102563,0,images/picture_1.png,images/picture_1.png,0,"[11.733433509789462, -11.733433509789466]",11.733433509789462,-11.733433509789464,images/picture_2.png,1,"[-11.733433509789466, -11.733433509789462]",-11.733433509789464,-11.733433509789462,images/picture_3.png,2,"[11.733433509789464, 11.733433509789462]",11.733433509789464,11.733433509789462,0,1,1,1.1049245023102563,2.1049245023102565,0.8950754976897435,3,1,1.8549245023102563,0,4,0,4,0,0,6,6,5,,,,,,,0.003542750026099384,297.97625433298526,297.97625433298526,298.97569808299886,299.8424939159886,300.0753815000062,300.0753815000062,300.0753815000062,300.97556166601134,300.97556166601134,300.97556166601134,300.97556166601134,3.9976304169977084,301.99487595801475,200002,003,2023-03-16_15h48.13.007,DMS_BEST_eyetracking_DAN_base_12-36_looped_10minWORKING,2022.2.4,None,
40,PRED,12,0.9357091648720834,0,images/picture_1.png,images/picture_1.png,0,"[-11.733433509789462, 11.733433509789464]",-11.733433509789462,11.733433509789464,images/picture_2.png,1,"[11.733433509789464, 11.733433509789462]",11.733433509789464,11.733433509789462,images/picture_3.png,2,"[-11.733433509789466, -11.733433509789462]",-11.733433509789464,-11.733433509789462,0,1,1,0.9357091648720834,1.9357091648720837,1.0642908351279166,3,1,1.6857091648720834,0,4,0,4,0,0,7,7,4,,,,,,,,,,,,,,,,,,,,,200002,003,2023-03-16_15h48.13.007,DMS_BEST_eyetracking_DAN_base_12-36_looped_10minWORKING,2022.2.4,None,
40,PRED,12,0.9357091648720834,0,images/picture_1.png,images/picture_1.png,0,"[-11.733433509789462, 11.733433509789464]",-11.733433509789462,11.733433509789464,images/picture_2.png,1,"[11.733433509789464, 11.733433509789462]",11.733433509789464,11.733433509789462,images/picture_3.png,2,"[-11.733433509789466, -11.733433509789462]",-11.733433509789464,-11.733433509789462,0,1,1,0.9357091648720834,1.9357091648720837,1.0642908351279166,3,1,1.6857091648720834,0,4,0,4,0,0,7,7,4,,,,,,,0.003584084042813629,301.99487595801475,301.99487595801475,303.0090384579962,303.69504058302846,303.908748249989,303.908748249989,303.908748249989,304.97559987503337,304.97559987503337,304.97559987503337,304.97559987503337,4.029861292045098,305.97571737499675,200002,003,2023-03-16_15h48.13.007,DMS_BEST_eyetracking_DAN_base_12-36_looped_10minWORKING,2022.2.4,None,
44,PRED,12,0.8088808713367566,0,images/picture_1.png,images/picture_1.png,0,"[11.733433509789462, -11.733433509789466]",11.733433509789462,-11.733433509789464,images/picture_2.png,1,"[-11.733433509789466, -11.733433509789462]",-11.733433509789464,-11.733433509789462,images/picture_3.png,2,"[11.733433509789464, 11.733433509789462]",11.733433509789464,11.733433509789462,0,1,1,0.8088808713367566,1.8088808713367568,1.1911191286632434,3,1,1.5588808713367566,0,4,0,4,0,0,8,8,8,,,,,,,,,,,,,,,,,,,,,200002,003,2023-03-16_15h48.13.007,DMS_BEST_eyetracking_DAN_base_12-36_looped_10minWORKING,2022.2.4,None,
44,PRED,12,0.8088808713367566,0,images/picture_1.png,images/picture_1.png,0,"[11.733433509789462, -11.733433509789466]",11.733433509789462,-11.733433509789464,images/picture_2.png,1,"[-11.733433509789466, -11.733433509789462]",-11.733433509789464,-11.733433509789462,images/picture_3.png,2,"[11.733433509789464, 11.733433509789462]",11.733433509789464,11.733433509789462,0,1,1,0.8088808713367566,1.8088808713367568,1.1911191286632434,3,1,1.5588808713367566,0,4,0,4,0,0,8,8,8,,,,,,,0.003412167017813772,306.0096996250213,306.0096996250213,307.00891691603465,307.5756132910028,307.80875354103046,307.80875354103046,307.80875354103046,309.00954329100205,309.00954329100205,309.00954329100205,309.00954329100205,3.9972252920269966,310.08014645799994,200002,003,2023-03-16_15h48.13.007,DMS_BEST_eyetracking_DAN_base_12-36_looped_10minWORKING,2022.2.4,None,
,,,,,,,,,,,,,,,,,,,,,,,,,,,,,,,4,0,4,0,,,,,,,,,310.08014645799994,322.1132623330341,,,,,,,,,,,,,,,200002,003,2023-03-16_15h48.13.007,DMS_BEST_eyetracking_DAN_base_12-36_looped_10minWORKING,2022.2.4,None,
50,UNPRED,12,1.0412207937339586,1,images/picture_2.png,images/picture_1.png,0,"[11.733433509789464, 11.733433509789462]",11.733433509789464,11.733433509789462,images/picture_2.png,1,"[11.733433509789462, -11.733433509789466]",11.733433509789462,-11.733433509789464,images/picture_3.png,2,"[-11.733433509789466, -11.733433509789462]",-11.733433509789464,-11.733433509789462,0,1,1,1.0412207937339586,2.0412207937339586,0.9587792062660414,3,1,1.7912207937339586,0,5,0,5,0,0,0,0,5,,,,,,,,,,,,,,,,,,,,,200002,003,2023-03-16_15h48.13.007,DMS_BEST_eyetracking_DAN_base_12-36_looped_10minWORKING,2022.2.4,None,
50,UNPRED,12,1.0412207937339586,1,images/picture_2.png,images/picture_1.png,0,"[11.733433509789464, 11.733433509789462]",11.733433509789464,11.733433509789462,images/picture_2.png,1,"[11.733433509789462, -11.733433509789466]",11.733433509789462,-11.733433509789464,images/picture_3.png,2,"[-11.733433509789466, -11.733433509789462]",-11.733433509789464,-11.733433509789462,0,1,1,1.0412207937339586,2.0412207937339586,0.9587792062660414,3,1,1.7912207937339586,0,5,0,5,0,0,0,0,5,,,,,,,0.005203832988627255,322.1132623330341,322.1132623330341,323.12828966602683,323.90871629101457,324.1420601250138,324.1420601250138,324.1420601250138,325.1087232910213,325.1087232910213,325.1087232910213,325.1087232910213,4.008821457973681,326.10895579098724,200002,003,2023-03-16_15h48.13.007,DMS_BEST_eyetracking_DAN_base_12-36_looped_10minWORKING,2022.2.4,None,
48,UNPRED,12,0.8678963925567376,0,images/picture_1.png,images/picture_1.png,0,"[-11.733433509789462, 11.733433509789464]",-11.733433509789462,11.733433509789464,images/picture_2.png,1,"[-11.733433509789466, -11.733433509789462]",-11.733433509789464,-11.733433509789462,images/picture_3.png,2,"[11.733433509789462, -11.733433509789466]",11.733433509789462,-11.733433509789464,0,1,1,0.8678963925567376,1.8678963925567376,1.1321036074432624,3,1,1.6178963925567376,0,5,0,5,0,0,1,1,3,,,,,,,,,,,,,,,,,,,,,200002,003,2023-03-16_15h48.13.007,DMS_BEST_eyetracking_DAN_base_12-36_looped_10minWORKING,2022.2.4,None,
48,UNPRED,12,0.8678963925567376,0,images/picture_1.png,images/picture_1.png,0,"[-11.733433509789462, 11.733433509789464]",-11.733433509789462,11.733433509789464,images/picture_2.png,1,"[-11.733433509789466, -11.733433509789462]",-11.733433509789464,-11.733433509789462,images/picture_3.png,2,"[11.733433509789462, -11.733433509789466]",11.733433509789462,-11.733433509789464,0,1,1,0.8678963925567376,1.8678963925567376,1.1321036074432624,3,1,1.6178963925567376,0,5,0,5,0,0,1,1,3,,,,,,,0.006015249993652105,326.1285133329802,326.1285133329802,327.1423312909901,327.7617612500326,327.99508324998897,327.99508324998897,327.99508324998897,329.142413625028,329.142413625028,329.142413625028,329.10893112502526,4.016165749984793,330.10882983298507,200002,003,2023-03-16_15h48.13.007,DMS_BEST_eyetracking_DAN_base_12-36_looped_10minWORKING,2022.2.4,None,
53,UNPRED,12,0.7026712402700941,0,images/picture_1.png,images/picture_1.png,0,"[-11.733433509789466, -11.733433509789462]",-11.733433509789464,-11.733433509789462,images/picture_2.png,1,"[11.733433509789462, -11.733433509789466]",11.733433509789462,-11.733433509789464,images/picture_3.png,2,"[11.733433509789464, 11.733433509789462]",11.733433509789464,11.733433509789462,0,1,1,0.7026712402700941,1.7026712402700939,1.2973287597299061,3,1,1.4526712402700939,0,5,0,5,0,0,2,2,8,,,,,,,,,,,,,,,,,,,,,200002,003,2023-03-16_15h48.13.007,DMS_BEST_eyetracking_DAN_base_12-36_looped_10minWORKING,2022.2.4,None,
53,UNPRED,12,0.7026712402700941,0,images/picture_1.png,images/picture_1.png,0,"[-11.733433509789466, -11.733433509789462]",-11.733433509789464,-11.733433509789462,images/picture_2.png,1,"[11.733433509789462, -11.733433509789466]",11.733433509789462,-11.733433509789464,images/picture_3.png,2,"[11.733433509789464, 11.733433509789462]",11.733433509789464,11.733433509789462,0,1,1,0.7026712402700941,1.7026712402700939,1.2973287597299061,3,1,1.4526712402700939,0,5,0,5,0,0,2,2,8,,,,,,,0.0034708749735727906,330.14305250003235,330.14305250003235,331.14190958300605,331.6098326659994,331.84203041600995,331.84203041600995,331.84203041600995,333.1423106250004,333.1423106250004,333.1423106250004,333.1423106250004,3.9970199579838663,334.1648205000092,200002,003,2023-03-16_15h48.13.007,DMS_BEST_eyetracking_DAN_base_12-36_looped_10minWORKING,2022.2.4,None,
49,UNPRED,12,1.121817338129412,0,images/picture_1.png,images/picture_1.png,0,"[-11.733433509789462, 11.733433509789464]",-11.733433509789462,11.733433509789464,images/picture_2.png,1,"[-11.733433509789466, -11.733433509789462]",-11.733433509789464,-11.733433509789462,images/picture_3.png,2,"[11.733433509789464, 11.733433509789462]",11.733433509789464,11.733433509789462,0,1,1,1.121817338129412,2.121817338129412,0.8781826618705879,3,1,1.8718173381294119,0,5,0,5,0,0,3,3,4,,,,,,,,,,,,,,,,,,,,,200002,003,2023-03-16_15h48.13.007,DMS_BEST_eyetracking_DAN_base_12-36_looped_10minWORKING,2022.2.4,None,
49,UNPRED,12,1.121817338129412,0,images/picture_1.png,images/picture_1.png,0,"[-11.733433509789462, 11.733433509789464]",-11.733433509789462,11.733433509789464,images/picture_2.png,1,"[-11.733433509789466, -11.733433509789462]",-11.733433509789464,-11.733433509789462,images/picture_3.png,2,"[11.733433509789464, 11.733433509789462]",11.733433509789464,11.733433509789462,0,1,1,1.121817338129412,2.121817338129412,0.8781826618705879,3,1,1.8718173381294119,0,5,0,5,0,0,3,3,4,,,,,,,0.003678290988318622,334.1648205000092,334.1648205000092,335.17562491598073,336.0425051660277,336.262242124998,336.262242124998,336.262242124998,337.1421735830372,337.1421735830372,337.1421735830372,337.1421735830372,4.0298211660119705,338.1423466249835,200002,003,2023-03-16_15h48.13.007,DMS_BEST_eyetracking_DAN_base_12-36_looped_10minWORKING,2022.2.4,None,
46,UNPRED,12,1.198020514585716,2,images/picture_3.png,images/picture_1.png,0,"[-11.733433509789466, -11.733433509789462]",-11.733433509789464,-11.733433509789462,images/picture_2.png,1,"[11.733433509789462, -11.733433509789466]",11.733433509789462,-11.733433509789464,images/picture_3.png,2,"[11.733433509789464, 11.733433509789462]",11.733433509789464,11.733433509789462,0,1,1,1.198020514585716,2.198020514585716,0.8019794854142841,3,1,1.948020514585716,0,5,0,5,0,0,4,4,1,,,,,,,,,,,,,,,,,,,,,200002,003,2023-03-16_15h48.13.007,DMS_BEST_eyetracking_DAN_base_12-36_looped_10minWORKING,2022.2.4,None,
46,UNPRED,12,1.198020514585716,2,images/picture_3.png,images/picture_1.png,0,"[-11.733433509789466, -11.733433509789462]",-11.733433509789464,-11.733433509789462,images/picture_2.png,1,"[11.733433509789462, -11.733433509789466]",11.733433509789462,-11.733433509789464,images/picture_3.png,2,"[11.733433509789464, 11.733433509789462]",11.733433509789464,11.733433509789462,0,1,1,1.198020514585716,2.198020514585716,0.8019794854142841,3,1,1.948020514585716,0,5,0,5,0,0,4,4,1,,,,,,,0.0054510829504579306,338.1952033750131,338.1952033750131,339.2090168329887,340.142324666027,340.37542312499136,340.37542312499136,340.37542312499136,341.1757091250038,341.1757091250038,341.1757091250038,341.1757091250038,4.02905487496173,342.17523500003153,200002,003,2023-03-16_15h48.13.007,DMS_BEST_eyetracking_DAN_base_12-36_looped_10minWORKING,2022.2.4,None,
45,UNPRED,12,0.5718678872980033,2,images/picture_3.png,images/picture_1.png,0,"[11.733433509789462, -11.733433509789466]",11.733433509789462,-11.733433509789464,images/picture_2.png,1,"[-11.733433509789462, 11.733433509789464]",-11.733433509789462,11.733433509789464,images/picture_3.png,2,"[11.733433509789464, 11.733433509789462]",11.733433509789464,11.733433509789462,0,1,1,0.5718678872980033,1.5718678872980032,1.4281321127019968,3,1,1.3218678872980032,0,5,0,5,0,0,5,5,0,,,,,,,,,,,,,,,,,,,,,200002,003,2023-03-16_15h48.13.007,DMS_BEST_eyetracking_DAN_base_12-36_looped_10minWORKING,2022.2.4,None,
45,UNPRED,12,0.5718678872980033,2,images/picture_3.png,images/picture_1.png,0,"[11.733433509789462, -11.733433509789466]",11.733433509789462,-11.733433509789464,images/picture_2.png,1,"[-11.733433509789462, 11.733433509789464]",-11.733433509789462,11.733433509789464,images/picture_3.png,2,"[11.733433509789464, 11.733433509789462]",11.733433509789464,11.733433509789462,0,1,1,0.5718678872980033,1.5718678872980032,1.4281321127019968,3,1,1.3218678872980032,0,5,0,5,0,0,5,5,0,,,,,,,0.0014418329810723662,342.20865995803615,342.20865995803615,343.20892745803576,343.5424524160335,343.7755347909988,343.7755347909988,343.7755347909988,345.2089220000198,345.2089220000198,345.2089220000198,345.2089220000198,3.997952791978605,346.2287350409897,200002,003,2023-03-16_15h48.13.007,DMS_BEST_eyetracking_DAN_base_12-36_looped_10minWORKING,2022.2.4,None,
52,UNPRED,12,0.501844634212257,2,images/picture_3.png,images/picture_1.png,0,"[-11.733433509789462, 11.733433509789464]",-11.733433509789462,11.733433509789464,images/picture_2.png,1,"[-11.733433509789466, -11.733433509789462]",-11.733433509789464,-11.733433509789462,images/picture_3.png,2,"[11.733433509789462, -11.733433509789466]",11.733433509789462,-11.733433509789464,0,1,1,0.501844634212257,1.5018446342122571,1.4981553657877429,3,1,1.2518446342122571,0,5,0,5,0,0,6,6,7,,,,,,,,,,,,,,,,,,,,,200002,003,2023-03-16_15h48.13.007,DMS_BEST_eyetracking_DAN_base_12-36_looped_10minWORKING,2022.2.4,None,
52,UNPRED,12,0.501844634212257,2,images/picture_3.png,images/picture_1.png,0,"[-11.733433509789462, 11.733433509789464]",-11.733433509789462,11.733433509789464,images/picture_2.png,1,"[-11.733433509789466, -11.733433509789462]",-11.733433509789464,-11.733433509789462,images/picture_3.png,2,"[11.733433509789462, -11.733433509789466]",11.733433509789462,-11.733433509789464,0,1,1,0.501844634212257,1.5018446342122571,1.4981553657877429,3,1,1.2518446342122571,0,5,0,5,0,0,6,6,7,,,,,,,0.003285999991931021,346.2287350409897,346.2287350409897,347.2421965000103,347.49501216603676,347.70865254098317,347.70865254098317,347.70865254098317,349.20893562503625,349.20893562503625,349.20893562503625,349.20893562503625,4.083267249981873,350.2918436250184,200002,003,2023-03-16_15h48.13.007,DMS_BEST_eyetracking_DAN_base_12-36_looped_10minWORKING,2022.2.4,None,
51,UNPRED,12,0.5724044082810852,2,images/picture_3.png,images/picture_1.png,0,"[-11.733433509789466, -11.733433509789462]",-11.733433509789464,-11.733433509789462,images/picture_2.png,1,"[-11.733433509789462, 11.733433509789464]",-11.733433509789462,11.733433509789464,images/picture_3.png,2,"[11.733433509789464, 11.733433509789462]",11.733433509789464,11.733433509789462,0,1,1,0.5724044082810852,1.5724044082810849,1.4275955917189151,3,1,1.3224044082810849,0,5,0,5,0,0,7,7,6,,,,,,,,,,,,,,,,,,,,,200002,003,2023-03-16_15h48.13.007,DMS_BEST_eyetracking_DAN_base_12-36_looped_10minWORKING,2022.2.4,None,
51,UNPRED,12,0.5724044082810852,2,images/picture_3.png,images/picture_1.png,0,"[-11.733433509789466, -11.733433509789462]",-11.733433509789464,-11.733433509789462,images/picture_2.png,1,"[-11.733433509789462, 11.733433509789464]",-11.733433509789462,11.733433509789464,images/picture_3.png,2,"[11.733433509789464, 11.733433509789462]",11.733433509789464,11.733433509789462,0,1,1,0.5724044082810852,1.5724044082810849,1.4275955917189151,3,1,1.3224044082810849,0,5,0,5,0,0,7,7,6,,,,,,,0.0012955419952049851,350.2918436250184,350.2918436250184,351.29465837503085,351.6279504999984,351.8611119160196,351.8611119160196,351.8611119160196,353.2949673749972,353.2949673749972,353.2949673749972,353.2949673749972,3.991653041972313,354.3084870830062,200002,003,2023-03-16_15h48.13.007,DMS_BEST_eyetracking_DAN_base_12-36_looped_10minWORKING,2022.2.4,None,
47,UNPRED,12,0.9074699342830084,2,images/picture_3.png,images/picture_1.png,0,"[-11.733433509789462, 11.733433509789464]",-11.733433509789462,11.733433509789464,images/picture_2.png,1,"[-11.733433509789466, -11.733433509789462]",-11.733433509789464,-11.733433509789462,images/picture_3.png,2,"[11.733433509789462, -11.733433509789466]",11.733433509789462,-11.733433509789464,0,1,1,0.9074699342830084,1.9074699342830084,1.0925300657169916,3,1,1.6574699342830084,0,5,0,5,0,0,8,8,2,,,,,,,,,,,,,,,,,,,,,200002,003,2023-03-16_15h48.13.007,DMS_BEST_eyetracking_DAN_base_12-36_looped_10minWORKING,2022.2.4,None,
47,UNPRED,12,0.9074699342830084,2,images/picture_3.png,images/picture_1.png,0,"[-11.733433509789462, 11.733433509789464]",-11.733433509789462,11.733433509789464,images/picture_2.png,1,"[-11.733433509789466, -11.733433509789462]",-11.733433509789464,-11.733433509789462,images/picture_3.png,2,"[11.733433509789462, -11.733433509789466]",11.733433509789462,-11.733433509789464,0,1,1,0.9074699342830084,1.9074699342830084,1.0925300657169916,3,1,1.6574699342830084,0,5,0,5,0,0,8,8,2,,,,,,,0.0032642909791320562,354.3084870830062,354.3084870830062,355.30889450001996,355.9756317079882,356.2087330829818,356.2087330829818,356.2087330829818,357.3089672080241,357.3089672080241,357.3089672080241,357.3089672080241,3.998150625033304,358.3910006250371,200002,003,2023-03-16_15h48.13.007,DMS_BEST_eyetracking_DAN_base_12-36_looped_10minWORKING,2022.2.4,None,
,,,,,,,,,,,,,,,,,,,,,,,,,,,,,,,5,0,5,0,,,,,,,,,358.3910006250371,370.41520270798355,,,,,,,,,,,,,,,200002,003,2023-03-16_15h48.13.007,DMS_BEST_eyetracking_DAN_base_12-36_looped_10minWORKING,2022.2.4,None,
59,PRED,12,0.5297860419431233,0,images/picture_1.png,images/picture_1.png,0,"[11.733433509789462, -11.733433509789466]",11.733433509789462,-11.733433509789464,images/picture_2.png,1,"[-11.733433509789466, -11.733433509789462]",-11.733433509789464,-11.733433509789462,images/picture_3.png,2,"[-11.733433509789462, 11.733433509789464]",-11.733433509789462,11.733433509789464,0,1,1,0.5297860419431233,1.5297860419431233,1.4702139580568767,3,1,1.2797860419431233,0,6,0,6,0,0,0,0,5,,,,,,,,,,,,,,,,,,,,,200002,003,2023-03-16_15h48.13.007,DMS_BEST_eyetracking_DAN_base_12-36_looped_10minWORKING,2022.2.4,None,
59,PRED,12,0.5297860419431233,0,images/picture_1.png,images/picture_1.png,0,"[11.733433509789462, -11.733433509789466]",11.733433509789462,-11.733433509789464,images/picture_2.png,1,"[-11.733433509789466, -11.733433509789462]",-11.733433509789464,-11.733433509789462,images/picture_3.png,2,"[-11.733433509789462, 11.733433509789464]",-11.733433509789462,11.733433509789464,0,1,1,0.5297860419431233,1.5297860419431233,1.4702139580568767,3,1,1.2797860419431233,0,6,0,6,0,0,0,0,5,,,,,,,0.00357970898039639,370.41520270798355,370.41520270798355,371.4288055410143,371.7089227079996,371.9420121660223,371.9420121660223,371.9420121660223,373.4087739579845,373.4087739579845,373.4087739579845,373.4087739579845,4.00511045899475,374.4089289160329,200002,003,2023-03-16_15h48.13.007,DMS_BEST_eyetracking_DAN_base_12-36_looped_10minWORKING,2022.2.4,None,
58,PRED,12,0.6899179510806639,0,images/picture_1.png,images/picture_1.png,0,"[-11.733433509789462, 11.733433509789464]",-11.733433509789462,11.733433509789464,images/picture_2.png,1,"[11.733433509789462, -11.733433509789466]",11.733433509789462,-11.733433509789464,images/picture_3.png,2,"[-11.733433509789466, -11.733433509789462]",-11.733433509789464,-11.733433509789462,0,1,1,0.6899179510806639,1.6899179510806641,1.3100820489193359,3,1,1.4399179510806641,0,6,0,6,0,0,1,1,4,,,,,,,,,,,,,,,,,,,,,200002,003,2023-03-16_15h48.13.007,DMS_BEST_eyetracking_DAN_base_12-36_looped_10minWORKING,2022.2.4,None,
58,PRED,12,0.6899179510806639,0,images/picture_1.png,images/picture_1.png,0,"[-11.733433509789462, 11.733433509789464]",-11.733433509789462,11.733433509789464,images/picture_2.png,1,"[11.733433509789462, -11.733433509789466]",11.733433509789462,-11.733433509789464,images/picture_3.png,2,"[-11.733433509789466, -11.733433509789462]",-11.733433509789464,-11.733433509789462,0,1,1,0.6899179510806639,1.6899179510806641,1.3100820489193359,3,1,1.4399179510806641,0,6,0,6,0,0,1,1,4,,,,,,,0.0039410419994965196,374.4277344580041,374.4277344580041,375.442356250016,375.87564899999416,376.1087303329841,376.1087303329841,376.1087303329841,377.4281773749972,377.4281773749972,377.4281773749972,377.4281773749972,4.01536274998216,378.4616322910297,200002,003,2023-03-16_15h48.13.007,DMS_BEST_eyetracking_DAN_base_12-36_looped_10minWORKING,2022.2.4,None,
56,PRED,12,0.7776466343845558,0,images/picture_1.png,images/picture_1.png,0,"[11.733433509789462, -11.733433509789466]",11.733433509789462,-11.733433509789464,images/picture_2.png,1,"[-11.733433509789466, -11.733433509789462]",-11.733433509789464,-11.733433509789462,images/picture_3.png,2,"[-11.733433509789462, 11.733433509789464]",-11.733433509789462,11.733433509789464,0,1,1,0.7776466343845558,1.7776466343845558,1.2223533656154442,3,1,1.5276466343845558,0,6,0,6,0,0,2,2,2,,,,,,,,,,,,,,,,,,,,,200002,003,2023-03-16_15h48.13.007,DMS_BEST_eyetracking_DAN_base_12-36_looped_10minWORKING,2022.2.4,None,
56,PRED,12,0.7776466343845558,0,images/picture_1.png,images/picture_1.png,0,"[11.733433509789462, -11.733433509789466]",11.733433509789462,-11.733433509789464,images/picture_2.png,1,"[-11.733433509789466, -11.733433509789462]",-11.733433509789464,-11.733433509789462,images/picture_3.png,2,"[-11.733433509789462, 11.733433509789464]",-11.733433509789462,11.733433509789464,0,1,1,0.7776466343845558,1.7776466343845558,1.2223533656154442,3,1,1.5276466343845558,0,6,0,6,0,0,2,2,2,,,,,,,0.0036223329952917993,378.4616322910297,378.4616322910297,379.4757039580145,379.9951701249811,380.208665165992,380.208665165992,380.208665165992,381.4423610410304,381.4423610410304,381.4423610410304,381.4423610410304,4.0290671249968,382.44197375001386,200002,003,2023-03-16_15h48.13.007,DMS_BEST_eyetracking_DAN_base_12-36_looped_10minWORKING,2022.2.4,None,
55,PRED,12,0.9652866707258184,0,images/picture_1.png,images/picture_1.png,0,"[11.733433509789462, -11.733433509789466]",11.733433509789462,-11.733433509789464,images/picture_2.png,1,"[-11.733433509789462, 11.733433509789464]",-11.733433509789462,11.733433509789464,images/picture_3.png,2,"[11.733433509789464, 11.733433509789462]",11.733433509789464,11.733433509789462,0,1,1,0.9652866707258184,1.9652866707258183,1.0347133292741817,3,1,1.7152866707258183,0,6,0,6,0,0,3,3,1,,,,,,,,,,,,,,,,,,,,,200002,003,2023-03-16_15h48.13.007,DMS_BEST_eyetracking_DAN_base_12-36_looped_10minWORKING,2022.2.4,None,
55,PRED,12,0.9652866707258184,0,images/picture_1.png,images/picture_1.png,0,"[11.733433509789462, -11.733433509789466]",11.733433509789462,-11.733433509789464,images/picture_2.png,1,"[-11.733433509789462, 11.733433509789464]",-11.733433509789462,11.733433509789464,images/picture_3.png,2,"[11.733433509789464, 11.733433509789462]",11.733433509789464,11.733433509789462,0,1,1,0.9652866707258184,1.9652866707258183,1.0347133292741817,3,1,1.7152866707258183,0,6,0,6,0,0,3,3,1,,,,,,,0.0014672910328954458,382.47526929102605,382.47526929102605,383.4757970410283,384.19514145801077,384.44228962500347,384.44228962500347,384.44228962500347,385.4757343750098,385.4757343750098,385.4757343750098,385.4757343750098,3.9977392080472782,386.4954555830336,200002,003,2023-03-16_15h48.13.007,DMS_BEST_eyetracking_DAN_base_12-36_looped_10minWORKING,2022.2.4,None,
57,PRED,12,0.996484617151672,0,images/picture_1.png,images/picture_1.png,0,"[11.733433509789464, 11.733433509789462]",11.733433509789464,11.733433509789462,images/picture_2.png,1,"[11.733433509789462, -11.733433509789466]",11.733433509789462,-11.733433509789464,images/picture_3.png,2,"[-11.733433509789466, -11.733433509789462]",-11.733433509789464,-11.733433509789462,0,1,1,0.996484617151672,1.996484617151672,1.003515382848328,3,1,1.746484617151672,0,6,0,6,0,0,4,4,3,,,,,,,,,,,,,,,,,,,,,200002,003,2023-03-16_15h48.13.007,DMS_BEST_eyetracking_DAN_base_12-36_looped_10minWORKING,2022.2.4,None,
57,PRED,12,0.996484617151672,0,images/picture_1.png,images/picture_1.png,0,"[11.733433509789464, 11.733433509789462]",11.733433509789464,11.733433509789462,images/picture_2.png,1,"[11.733433509789462, -11.733433509789466]",11.733433509789462,-11.733433509789464,images/picture_3.png,2,"[-11.733433509789466, -11.733433509789462]",-11.733433509789464,-11.733433509789462,0,1,1,0.996484617151672,1.996484617151672,1.003515382848328,3,1,1.746484617151672,0,6,0,6,0,0,4,4,3,,,,,,,0.003641874995082617,386.4954555830336,386.4954555830336,387.5089777910034,388.2423947909847,388.47563933301717,388.47563933301717,388.47563933301717,389.4756333330297,389.4756333330297,389.4756333330297,389.4756333330297,4.02987058297731,390.4757884159917,200002,003,2023-03-16_15h48.13.007,DMS_BEST_eyetracking_DAN_base_12-36_looped_10minWORKING,2022.2.4,None,
54,PRED,12,0.7502234985569207,0,images/picture_1.png,images/picture_1.png,0,"[-11.733433509789462, 11.733433509789464]",-11.733433509789462,11.733433509789464,images/picture_2.png,1,"[11.733433509789462, -11.733433509789466]",11.733433509789462,-11.733433509789464,images/picture_3.png,2,"[11.733433509789464, 11.733433509789462]",11.733433509789464,11.733433509789462,0,1,1,0.7502234985569207,1.7502234985569207,1.2497765014430793,3,1,1.5002234985569207,0,6,0,6,0,0,5,5,0,,,,,,,,,,,,,,,,,,,,,200002,003,2023-03-16_15h48.13.007,DMS_BEST_eyetracking_DAN_base_12-36_looped_10minWORKING,2022.2.4,None,
54,PRED,12,0.7502234985569207,0,images/picture_1.png,images/picture_1.png,0,"[-11.733433509789462, 11.733433509789464]",-11.733433509789462,11.733433509789464,images/picture_2.png,1,"[11.733433509789462, -11.733433509789466]",11.733433509789462,-11.733433509789464,images/picture_3.png,2,"[11.733433509789464, 11.733433509789462]",11.733433509789464,11.733433509789462,0,1,1,0.7502234985569207,1.7502234985569207,1.2497765014430793,3,1,1.5002234985569207,0,6,0,6,0,0,5,5,0,,,,,,,0.003536999982316047,390.50995420798426,390.50995420798426,391.50902062503155,392.0090962499962,392.26173050003126,392.26173050003126,392.26173050003126,393.50876062503085,393.50876062503085,393.50876062503085,393.50876062503085,3.99697770900093,394.5101896660053,200002,003,2023-03-16_15h48.13.007,DMS_BEST_eyetracking_DAN_base_12-36_looped_10minWORKING,2022.2.4,None,
61,PRED,12,1.1247018263768096,0,images/picture_1.png,images/picture_1.png,0,"[-11.733433509789466, -11.733433509789462]",-11.733433509789464,-11.733433509789462,images/picture_2.png,1,"[11.733433509789464, 11.733433509789462]",11.733433509789464,11.733433509789462,images/picture_3.png,2,"[11.733433509789462, -11.733433509789466]",11.733433509789462,-11.733433509789464,0,1,1,1.1247018263768096,2.1247018263768096,0.8752981736231904,3,1,1.8747018263768096,0,6,0,6,0,0,6,6,7,,,,,,,,,,,,,,,,,,,,,200002,003,2023-03-16_15h48.13.007,DMS_BEST_eyetracking_DAN_base_12-36_looped_10minWORKING,2022.2.4,None,
61,PRED,12,1.1247018263768096,0,images/picture_1.png,images/picture_1.png,0,"[-11.733433509789466, -11.733433509789462]",-11.733433509789464,-11.733433509789462,images/picture_2.png,1,"[11.733433509789464, 11.733433509789462]",11.733433509789464,11.733433509789462,images/picture_3.png,2,"[11.733433509789462, -11.733433509789466]",11.733433509789462,-11.733433509789464,0,1,1,1.1247018263768096,2.1247018263768096,0.8752981736231904,3,1,1.8747018263768096,0,6,0,6,0,0,6,6,7,,,,,,,0.003463874978478998,394.5101896660053,394.5101896660053,395.50912950001657,396.39438387501286,396.62834049999947,396.62834049999947,396.62834049999947,397.50901416601846,397.50901416601846,397.50901416601846,397.50901416601846,3.9967257909593172,398.52848491602344,200002,003,2023-03-16_15h48.13.007,DMS_BEST_eyetracking_DAN_base_12-36_looped_10minWORKING,2022.2.4,None,
60,PRED,12,1.0912851831488817,0,images/picture_1.png,images/picture_1.png,0,"[-11.733433509789462, 11.733433509789464]",-11.733433509789462,11.733433509789464,images/picture_2.png,1,"[-11.733433509789466, -11.733433509789462]",-11.733433509789464,-11.733433509789462,images/picture_3.png,2,"[11.733433509789464, 11.733433509789462]",11.733433509789464,11.733433509789462,0,1,1,1.0912851831488817,2.091285183148882,0.9087148168511184,3,1,1.841285183148882,0,6,0,6,0,0,7,7,6,,,,,,,,,,,,,,,,,,,,,200002,003,2023-03-16_15h48.13.007,DMS_BEST_eyetracking_DAN_base_12-36_looped_10minWORKING,2022.2.4,None,
60,PRED,12,1.0912851831488817,0,images/picture_1.png,images/picture_1.png,0,"[-11.733433509789462, 11.733433509789464]",-11.733433509789462,11.733433509789464,images/picture_2.png,1,"[-11.733433509789466, -11.733433509789462]",-11.733433509789464,-11.733433509789462,images/picture_3.png,2,"[11.733433509789464, 11.733433509789462]",11.733433509789464,11.733433509789462,0,1,1,1.0912851831488817,2.091285183148882,0.9087148168511184,3,1,1.841285183148882,0,6,0,6,0,0,7,7,6,,,,,,,0.003438499988988042,398.52848491602344,398.52848491602344,399.5425571660162,400.37576362502296,400.5958504580194,400.5958504580194,400.5958504580194,401.50896499998635,401.50896499998635,401.50896499998635,401.50896499998635,4.029921249952167,402.50888166599907,200002,003,2023-03-16_15h48.13.007,DMS_BEST_eyetracking_DAN_base_12-36_looped_10minWORKING,2022.2.4,None,
62,PRED,12,1.0560396075892338,0,images/picture_1.png,images/picture_1.png,0,"[-11.733433509789462, 11.733433509789464]",-11.733433509789462,11.733433509789464,images/picture_2.png,1,"[-11.733433509789466, -11.733433509789462]",-11.733433509789464,-11.733433509789462,images/picture_3.png,2,"[11.733433509789462, -11.733433509789466]",11.733433509789462,-11.733433509789464,0,1,1,1.0560396075892338,2.0560396075892338,0.9439603924107662,3,1,1.8060396075892335,0,6,0,6,0,0,8,8,8,,,,,,,,,,,,,,,,,,,,,200002,003,2023-03-16_15h48.13.007,DMS_BEST_eyetracking_DAN_base_12-36_looped_10minWORKING,2022.2.4,None,
62,PRED,12,1.0560396075892338,0,images/picture_1.png,images/picture_1.png,0,"[-11.733433509789462, 11.733433509789464]",-11.733433509789462,11.733433509789464,images/picture_2.png,1,"[-11.733433509789466, -11.733433509789462]",-11.733433509789464,-11.733433509789462,images/picture_3.png,2,"[11.733433509789462, -11.733433509789466]",11.733433509789462,-11.733433509789464,0,1,1,1.0560396075892338,2.0560396075892338,0.9439603924107662,3,1,1.8060396075892335,0,6,0,6,0,0,8,8,8,,,,,,,0.001992667035665363,402.54169724998064,402.54169724998064,403.5420797499828,404.3618164160289,404.5951909580035,404.5951909580035,404.5951909580035,405.5424674160313,405.5424674160313,405.5424674160313,405.5424674160313,3.996708500024397,406.6315026250086,200002,003,2023-03-16_15h48.13.007,DMS_BEST_eyetracking_DAN_base_12-36_looped_10minWORKING,2022.2.4,None,
,,,,,,,,,,,,,,,,,,,,,,,,,,,,,,,6,0,6,0,,,,,,,,,406.6315026250086,418.6640342079918,,,,,,,,,,,,,,,200002,003,2023-03-16_15h48.13.007,DMS_BEST_eyetracking_DAN_base_12-36_looped_10minWORKING,2022.2.4,None,
70,UNPRED,12,1.0534103174149805,1,images/picture_2.png,images/picture_1.png,0,"[-11.733433509789462, 11.733433509789464]",-11.733433509789462,11.733433509789464,images/picture_2.png,1,"[11.733433509789462, -11.733433509789466]",11.733433509789462,-11.733433509789464,images/picture_3.png,2,"[-11.733433509789466, -11.733433509789462]",-11.733433509789464,-11.733433509789462,0,1,1,1.0534103174149805,2.0534103174149805,0.9465896825850196,3,1,1.8034103174149805,0,7,0,7,0,0,0,0,7,,,,,,,,,,,,,,,,,,,,,200002,003,2023-03-16_15h48.13.007,DMS_BEST_eyetracking_DAN_base_12-36_looped_10minWORKING,2022.2.4,None,
70,UNPRED,12,1.0534103174149805,1,images/picture_2.png,images/picture_1.png,0,"[-11.733433509789462, 11.733433509789464]",-11.733433509789462,11.733433509789464,images/picture_2.png,1,"[11.733433509789462, -11.733433509789466]",11.733433509789462,-11.733433509789464,images/picture_3.png,2,"[-11.733433509789466, -11.733433509789462]",-11.733433509789464,-11.733433509789462,0,1,1,1.0534103174149805,2.0534103174149805,0.9465896825850196,3,1,1.8034103174149805,0,7,0,7,0,0,0,0,7,,,,,,,0.00506158301141113,418.6640342079918,418.6640342079918,419.675723250024,420.4758344159927,420.70883550000144,420.70883550000144,420.70883550000144,421.66185629100073,421.66185629100073,421.66185629100073,421.66185629100073,4.010186458006501,422.69534987502266,200002,003,2023-03-16_15h48.13.007,DMS_BEST_eyetracking_DAN_base_12-36_looped_10minWORKING,2022.2.4,None,
68,UNPRED,12,0.528645110369239,1,images/picture_2.png,images/picture_1.png,0,"[-11.733433509789466, -11.733433509789462]",-11.733433509789464,-11.733433509789462,images/picture_2.png,1,"[11.733433509789464, 11.733433509789462]",11.733433509789464,11.733433509789462,images/picture_3.png,2,"[-11.733433509789462, 11.733433509789464]",-11.733433509789462,11.733433509789464,0,1,1,0.528645110369239,1.5286451103692391,1.4713548896307609,3,1,1.2786451103692391,0,7,0,7,0,0,1,1,5,,,,,,,,,,,,,,,,,,,,,200002,003,2023-03-16_15h48.13.007,DMS_BEST_eyetracking_DAN_base_12-36_looped_10minWORKING,2022.2.4,None,
68,UNPRED,12,0.528645110369239,1,images/picture_2.png,images/picture_1.png,0,"[-11.733433509789466, -11.733433509789462]",-11.733433509789464,-11.733433509789462,images/picture_2.png,1,"[11.733433509789464, 11.733433509789462]",11.733433509789464,11.733433509789462,images/picture_3.png,2,"[-11.733433509789462, 11.733433509789464]",-11.733433509789462,11.733433509789464,0,1,1,0.528645110369239,1.5286451103692391,1.4713548896307609,3,1,1.2786451103692391,0,7,0,7,0,0,1,1,5,,,,,,,0.005123124981764704,422.69534987502266,422.69534987502266,423.7085814999882,423.97533433302306,424.2087027080124,424.2087027080124,424.2087027080124,425.6755624160287,425.6755624160287,425.6755624160287,425.6755624160287,4.030189500015695,426.67565608298173,200002,003,2023-03-16_15h48.13.007,DMS_BEST_eyetracking_DAN_base_12-36_looped_10minWORKING,2022.2.4,None,
63,UNPRED,12,0.8345017592898071,1,images/picture_2.png,images/picture_1.png,0,"[-11.733433509789462, 11.733433509789464]",-11.733433509789462,11.733433509789464,images/picture_2.png,1,"[-11.733433509789466, -11.733433509789462]",-11.733433509789464,-11.733433509789462,images/picture_3.png,2,"[11.733433509789462, -11.733433509789466]",11.733433509789462,-11.733433509789464,0,1,1,0.8345017592898071,1.8345017592898067,1.1654982407101928,3,1,1.5845017592898067,0,7,0,7,0,0,2,2,0,,,,,,,,,,,,,,,,,,,,,200002,003,2023-03-16_15h48.13.007,DMS_BEST_eyetracking_DAN_base_12-36_looped_10minWORKING,2022.2.4,None,
63,UNPRED,12,0.8345017592898071,1,images/picture_2.png,images/picture_1.png,0,"[-11.733433509789462, 11.733433509789464]",-11.733433509789462,11.733433509789464,images/picture_2.png,1,"[-11.733433509789466, -11.733433509789462]",-11.733433509789464,-11.733433509789462,images/picture_3.png,2,"[11.733433509789462, -11.733433509789466]",11.733433509789462,-11.733433509789464,0,1,1,0.8345017592898071,1.8345017592898067,1.1654982407101928,3,1,1.5845017592898067,0,7,0,7,0,0,2,2,0,,,,,,,0.005085250013507903,426.7286256250227,426.7286256250227,427.74235745798796,428.32850750000216,428.5420311249909,428.5420311249909,428.5420311249909,429.70890462503303,429.70890462503303,429.70890462503303,429.70890462503303,4.029593292041682,430.70868949999567,200002,003,2023-03-16_15h48.13.007,DMS_BEST_eyetracking_DAN_base_12-36_looped_10minWORKING,2022.2.4,None,
65,UNPRED,12,0.5078208654089327,2,images/picture_3.png,images/picture_1.png,0,"[-11.733433509789462, 11.733433509789464]",-11.733433509789462,11.733433509789464,images/picture_2.png,1,"[-11.733433509789466, -11.733433509789462]",-11.733433509789464,-11.733433509789462,images/picture_3.png,2,"[11.733433509789462, -11.733433509789466]",11.733433509789462,-11.733433509789464,0,1,1,0.5078208654089327,1.507820865408933,1.492179134591067,3,1,1.257820865408933,0,7,0,7,0,0,3,3,2,,,,,,,,,,,,,,,,,,,,,200002,003,2023-03-16_15h48.13.007,DMS_BEST_eyetracking_DAN_base_12-36_looped_10minWORKING,2022.2.4,None,
65,UNPRED,12,0.5078208654089327,2,images/picture_3.png,images/picture_1.png,0,"[-11.733433509789462, 11.733433509789464]",-11.733433509789462,11.733433509789464,images/picture_2.png,1,"[-11.733433509789466, -11.733433509789462]",-11.733433509789464,-11.733433509789462,images/picture_3.png,2,"[11.733433509789462, -11.733433509789466]",11.733433509789462,-11.733433509789464,0,1,1,0.5078208654089327,1.507820865408933,1.492179134591067,3,1,1.257820865408933,0,7,0,7,0,0,3,3,2,,,,,,,0.004302415996789932,430.76089641603176,430.76089641603176,431.7756061250111,432.02872450003633,432.24195637501543,432.24195637501543,432.24195637501543,433.74188533303095,433.74188533303095,433.74188533303095,433.74188533303095,4.029240000003483,434.74237754102796,200002,003,2023-03-16_15h48.13.007,DMS_BEST_eyetracking_DAN_base_12-36_looped_10minWORKING,2022.2.4,None,
