trial_count,blockType,blockNum,delay_time,stimImage_i,stimImage,responseImage1,responseImage1_i,responseImage1_pos,responseImage1_X,responseImage1_Y,responseImage2,responseImage2_i,responseImage2_pos,responseImage2_X,responseImage2_Y,responseImage3,responseImage3_i,responseImage3_pos,responseImage3_X,responseImage3_Y,cue_onset,cue_dur,delay_onset,delay_dur,resp_onset,resp_dur,rest_onset,rest_dur,circle_dur,circle_onset,blocks.thisRepN,blocks.thisTrialN,blocks.thisN,blocks.thisIndex,trials.thisRepN,trials.thisTrialN,trials.thisN,trials.thisIndex,key_resp.started,text.started,key_resp.keys,key_resp.rt,text_2.started,text_2.stopped,etRecord.started,sample.started,Delay.started,sample.stopped,Delay.stopped,Response_1.started,Response_2.started,Response_3.started,Response_1.stopped,Response_2.stopped,Response_3.stopped,polygon.started,etRecord.stopped,polygon.stopped,participant,session,date,expName,psychopyVersion,frameRate,
,,,,,,,,,,,,,,,,,,,,,,,,,,,,,,,,,,,,,,,43.96164387499448,43.96164387499448,t,91.88049708399922,,,,,,,,,,,,,,,,,200002,206,2023-03-21_16h31.15.221,DMS_BEST_eyetracking_DAN_base_12-36_looped_10minWORKING,2022.2.4,None,
0,PRED,12,0.9038668213336334,1,images/picture_2.png,images/picture_1.png,0,"[-11.733433509789466, -11.733433509789462]",-11.733433509789464,-11.733433509789462,images/picture_2.png,1,"[11.733433509789462, -11.733433509789466]",11.733433509789462,-11.733433509789464,images/picture_3.png,2,"[11.733433509789464, 11.733433509789462]",11.733433509789464,11.733433509789462,0,1,1,0.9038668213336334,1.9038668213336332,1.0961331786663666,3,1,1.6538668213336334,0,0,0,0,0,0,0,0,0,,,,,135.85383420798462,147.8823579159798,,,,,,,,,,,,,,,200002,206,2023-03-21_16h31.15.221,DMS_BEST_eyetracking_DAN_base_12-36_looped_10minWORKING,2022.2.4,None,
0,PRED,12,0.9038668213336334,1,images/picture_2.png,images/picture_1.png,0,"[-11.733433509789466, -11.733433509789462]",-11.733433509789464,-11.733433509789462,images/picture_2.png,1,"[11.733433509789462, -11.733433509789466]",11.733433509789462,-11.733433509789464,images/picture_3.png,2,"[11.733433509789464, 11.733433509789462]",11.733433509789464,11.733433509789462,0,1,1,0.9038668213336334,1.9038668213336332,1.0961331786663666,3,1,1.6538668213336334,0,0,0,0,0,0,0,0,0,,,,,,,0.005835167015902698,147.8823579159798,147.8823579159798,148.88772258302197,149.54009762499481,149.77372000005562,149.77372000005562,149.77372000005562,150.87245616596192,150.87245616596192,150.87245616596192,150.87245616596192,4.007234958931804,151.90700758306775,200002,206,2023-03-21_16h31.15.221,DMS_BEST_eyetracking_DAN_base_12-36_looped_10minWORKING,2022.2.4,None,
1,PRED,12,0.6532235790012532,1,images/picture_2.png,images/picture_1.png,0,"[-11.733433509789462, 11.733433509789464]",-11.733433509789462,11.733433509789464,images/picture_2.png,1,"[-11.733433509789466, -11.733433509789462]",-11.733433509789464,-11.733433509789462,images/picture_3.png,2,"[11.733433509789464, 11.733433509789462]",11.733433509789464,11.733433509789462,0,1,1,0.6532235790012532,1.6532235790012533,1.3467764209987467,3,1,1.4032235790012533,0,0,0,0,0,0,1,1,1,,,,,,,,,,,,,,,,,,,,,200002,206,2023-03-21_16h31.15.221,DMS_BEST_eyetracking_DAN_base_12-36_looped_10minWORKING,2022.2.4,None,
1,PRED,12,0.6532235790012532,1,images/picture_2.png,images/picture_1.png,0,"[-11.733433509789462, 11.733433509789464]",-11.733433509789462,11.733433509789464,images/picture_2.png,1,"[-11.733433509789466, -11.733433509789462]",-11.733433509789464,-11.733433509789462,images/picture_3.png,2,"[11.733433509789464, 11.733433509789462]",11.733433509789464,11.733433509789462,0,1,1,0.6532235790012532,1.6532235790012533,1.3467764209987467,3,1,1.4032235790012533,0,0,0,0,0,0,1,1,1,,,,,,,0.005072082974947989,151.90700758306775,151.90700758306775,152.92109033302404,153.3209577499656,153.5405409160303,153.5405409160303,153.5405409160303,154.88762475003023,154.88762475003023,154.88762475003023,154.88762475003023,4.0297922500176355,155.8875596660655,200002,206,2023-03-21_16h31.15.221,DMS_BEST_eyetracking_DAN_base_12-36_looped_10minWORKING,2022.2.4,None,
4,PRED,12,0.6540524188619511,1,images/picture_2.png,images/picture_1.png,0,"[-11.733433509789462, 11.733433509789464]",-11.733433509789462,11.733433509789464,images/picture_2.png,1,"[11.733433509789464, 11.733433509789462]",11.733433509789464,11.733433509789462,images/picture_3.png,2,"[-11.733433509789466, -11.733433509789462]",-11.733433509789464,-11.733433509789462,0,1,1,0.6540524188619511,1.654052418861951,1.345947581138049,3,1,1.404052418861951,0,0,0,0,0,0,2,2,4,,,,,,,,,,,,,,,,,,,,,200002,206,2023-03-21_16h31.15.221,DMS_BEST_eyetracking_DAN_base_12-36_looped_10minWORKING,2022.2.4,None,
4,PRED,12,0.6540524188619511,1,images/picture_2.png,images/picture_1.png,0,"[-11.733433509789462, 11.733433509789464]",-11.733433509789462,11.733433509789464,images/picture_2.png,1,"[11.733433509789464, 11.733433509789462]",11.733433509789464,11.733433509789462,images/picture_3.png,2,"[-11.733433509789466, -11.733433509789462]",-11.733433509789464,-11.733433509789462,0,1,1,0.6540524188619511,1.654052418861951,1.345947581138049,3,1,1.404052418861951,0,0,0,0,0,0,2,2,4,,,,,,,0.00507299997843802,155.94030312506948,155.94030312506948,156.9538155409973,157.3540024580434,157.57282054098323,157.57282054098323,157.57282054098323,158.92106166598387,158.92106166598387,158.92106166598387,158.92106166598387,4.030751000042073,159.92083537497092,200002,206,2023-03-21_16h31.15.221,DMS_BEST_eyetracking_DAN_base_12-36_looped_10minWORKING,2022.2.4,None,
6,PRED,12,1.1269056495694725,1,images/picture_2.png,images/picture_1.png,0,"[11.733433509789464, 11.733433509789462]",11.733433509789464,11.733433509789462,images/picture_2.png,1,"[-11.733433509789462, 11.733433509789464]",-11.733433509789462,11.733433509789464,images/picture_3.png,2,"[-11.733433509789466, -11.733433509789462]",-11.733433509789464,-11.733433509789462,0,1,1,1.1269056495694725,2.1269056495694723,0.8730943504305277,3,1,1.8769056495694725,0,0,0,0,0,0,3,3,6,,,,,,,,,,,,,,,,,,,,,200002,206,2023-03-21_16h31.15.221,DMS_BEST_eyetracking_DAN_base_12-36_looped_10minWORKING,2022.2.4,None,
6,PRED,12,1.1269056495694725,1,images/picture_2.png,images/picture_1.png,0,"[11.733433509789464, 11.733433509789462]",11.733433509789464,11.733433509789462,images/picture_2.png,1,"[-11.733433509789462, 11.733433509789464]",-11.733433509789462,11.733433509789464,images/picture_3.png,2,"[-11.733433509789466, -11.733433509789462]",-11.733433509789464,-11.733433509789462,0,1,1,1.1269056495694725,2.1269056495694723,0.8730943504305277,3,1,1.8769056495694725,0,0,0,0,0,0,3,3,6,,,,,,,0.004694791976362467,159.97380816598888,159.97380816598888,160.98757304099854,161.8543006250402,162.07382029097062,162.07382029097062,162.07382029097062,162.95413512503728,162.95413512503728,162.95413512503728,162.95413512503728,4.030331042013131,163.95432958297897,200002,206,2023-03-21_16h31.15.221,DMS_BEST_eyetracking_DAN_base_12-36_looped_10minWORKING,2022.2.4,None,
5,PRED,12,0.7632523652738288,1,images/picture_2.png,images/picture_1.png,0,"[-11.733433509789466, -11.733433509789462]",-11.733433509789464,-11.733433509789462,images/picture_2.png,1,"[11.733433509789464, 11.733433509789462]",11.733433509789464,11.733433509789462,images/picture_3.png,2,"[11.733433509789462, -11.733433509789466]",11.733433509789462,-11.733433509789464,0,1,1,0.7632523652738288,1.7632523652738288,1.2367476347261712,3,1,1.5132523652738288,0,0,0,0,0,0,4,4,5,,,,,,,,,,,,,,,,,,,,,200002,206,2023-03-21_16h31.15.221,DMS_BEST_eyetracking_DAN_base_12-36_looped_10minWORKING,2022.2.4,None,
5,PRED,12,0.7632523652738288,1,images/picture_2.png,images/picture_1.png,0,"[-11.733433509789466, -11.733433509789462]",-11.733433509789464,-11.733433509789462,images/picture_2.png,1,"[11.733433509789464, 11.733433509789462]",11.733433509789464,11.733433509789462,images/picture_3.png,2,"[11.733433509789462, -11.733433509789466]",11.733433509789462,-11.733433509789464,0,1,1,0.7632523652738288,1.7632523652738288,1.2367476347261712,3,1,1.5132523652738288,0,0,0,0,0,0,4,4,5,,,,,,,0.004923083004541695,164.00711108301766,164.00711108301766,165.0208827080205,165.52095512498636,165.7543021660531,165.7543021660531,165.7543021660531,166.98755629104562,166.98755629104562,166.98755629104562,166.98755629104562,4.029478957992978,167.9875366250053,200002,206,2023-03-21_16h31.15.221,DMS_BEST_eyetracking_DAN_base_12-36_looped_10minWORKING,2022.2.4,None,
8,PRED,12,0.781358520937991,1,images/picture_2.png,images/picture_1.png,0,"[11.733433509789462, -11.733433509789466]",11.733433509789462,-11.733433509789464,images/picture_2.png,1,"[-11.733433509789466, -11.733433509789462]",-11.733433509789464,-11.733433509789462,images/picture_3.png,2,"[11.733433509789464, 11.733433509789462]",11.733433509789464,11.733433509789462,0,1,1,0.781358520937991,1.7813585209379907,1.218641479062009,3,1,1.5313585209379907,0,0,0,0,0,0,5,5,8,,,,,,,,,,,,,,,,,,,,,200002,206,2023-03-21_16h31.15.221,DMS_BEST_eyetracking_DAN_base_12-36_looped_10minWORKING,2022.2.4,None,
8,PRED,12,0.781358520937991,1,images/picture_2.png,images/picture_1.png,0,"[11.733433509789462, -11.733433509789466]",11.733433509789462,-11.733433509789464,images/picture_2.png,1,"[-11.733433509789466, -11.733433509789462]",-11.733433509789464,-11.733433509789462,images/picture_3.png,2,"[11.733433509789464, 11.733433509789462]",11.733433509789464,11.733433509789462,0,1,1,0.781358520937991,1.7813585209379907,1.218641479062009,3,1,1.5313585209379907,0,0,0,0,0,0,5,5,8,,,,,,,0.0018715839833021164,168.02047995803878,168.02047995803878,169.0208493330283,169.55432262504473,169.78733904100955,169.78733904100955,169.78733904100955,171.02085954102222,171.02085954102222,171.02085954102222,171.02085954102222,3.998146666912362,172.04089437506627,200002,206,2023-03-21_16h31.15.221,DMS_BEST_eyetracking_DAN_base_12-36_looped_10minWORKING,2022.2.4,None,
7,PRED,12,1.0868069115323302,1,images/picture_2.png,images/picture_1.png,0,"[-11.733433509789462, 11.733433509789464]",-11.733433509789462,11.733433509789464,images/picture_2.png,1,"[-11.733433509789466, -11.733433509789462]",-11.733433509789464,-11.733433509789462,images/picture_3.png,2,"[11.733433509789462, -11.733433509789466]",11.733433509789462,-11.733433509789464,0,1,1,1.0868069115323302,2.0868069115323302,0.9131930884676698,3,1,1.8368069115323304,0,0,0,0,0,0,6,6,7,,,,,,,,,,,,,,,,,,,,,200002,206,2023-03-21_16h31.15.221,DMS_BEST_eyetracking_DAN_base_12-36_looped_10minWORKING,2022.2.4,None,
7,PRED,12,1.0868069115323302,1,images/picture_2.png,images/picture_1.png,0,"[-11.733433509789462, 11.733433509789464]",-11.733433509789462,11.733433509789464,images/picture_2.png,1,"[-11.733433509789466, -11.733433509789462]",-11.733433509789464,-11.733433509789462,images/picture_3.png,2,"[11.733433509789462, -11.733433509789466]",11.733433509789462,-11.733433509789464,0,1,1,1.0868069115323302,2.0868069115323302,0.9131930884676698,3,1,1.8368069115323304,0,0,0,0,0,0,6,6,7,,,,,,,0.004911749972961843,172.04089437506627,172.04089437506627,173.0543105410179,173.8875782500254,174.10705616604537,174.10705616604537,174.10705616604537,175.02086808299646,175.02086808299646,175.02086808299646,175.02086808299646,4.0308615419780836,176.02128904103301,200002,206,2023-03-21_16h31.15.221,DMS_BEST_eyetracking_DAN_base_12-36_looped_10minWORKING,2022.2.4,None,
2,PRED,12,0.9843651562991442,1,images/picture_2.png,images/picture_1.png,0,"[-11.733433509789462, 11.733433509789464]",-11.733433509789462,11.733433509789464,images/picture_2.png,1,"[11.733433509789462, -11.733433509789466]",11.733433509789462,-11.733433509789464,images/picture_3.png,2,"[-11.733433509789466, -11.733433509789462]",-11.733433509789464,-11.733433509789462,0,1,1,0.9843651562991442,1.984365156299144,1.0156348437008558,3,1,1.7343651562991442,0,0,0,0,0,0,7,7,2,,,,,,,,,,,,,,,,,,,,,200002,206,2023-03-21_16h31.15.221,DMS_BEST_eyetracking_DAN_base_12-36_looped_10minWORKING,2022.2.4,None,
2,PRED,12,0.9843651562991442,1,images/picture_2.png,images/picture_1.png,0,"[-11.733433509789462, 11.733433509789464]",-11.733433509789462,11.733433509789464,images/picture_2.png,1,"[11.733433509789462, -11.733433509789466]",11.733433509789462,-11.733433509789464,images/picture_3.png,2,"[-11.733433509789466, -11.733433509789462]",-11.733433509789464,-11.733433509789462,0,1,1,0.9843651562991442,1.984365156299144,1.0156348437008558,3,1,1.7343651562991442,0,0,0,0,0,0,7,7,2,,,,,,,0.004813457955606282,176.07385437504854,176.07385437504854,177.08772287506144,177.8207606660435,178.0399406660581,178.0399406660581,178.0399406660581,179.05425791605376,179.05425791605376,179.05425791605376,179.05425791605376,4.030242125038058,180.0545064159669,200002,206,2023-03-21_16h31.15.221,DMS_BEST_eyetracking_DAN_base_12-36_looped_10minWORKING,2022.2.4,None,
3,PRED,12,0.7596566028516485,1,images/picture_2.png,images/picture_1.png,0,"[11.733433509789462, -11.733433509789466]",11.733433509789462,-11.733433509789464,images/picture_2.png,1,"[-11.733433509789466, -11.733433509789462]",-11.733433509789464,-11.733433509789462,images/picture_3.png,2,"[-11.733433509789462, 11.733433509789464]",-11.733433509789462,11.733433509789464,0,1,1,0.7596566028516485,1.7596566028516485,1.2403433971483515,3,1,1.5096566028516485,0,0,0,0,0,0,8,8,3,,,,,,,,,,,,,,,,,,,,,200002,206,2023-03-21_16h31.15.221,DMS_BEST_eyetracking_DAN_base_12-36_looped_10minWORKING,2022.2.4,None,
3,PRED,12,0.7596566028516485,1,images/picture_2.png,images/picture_1.png,0,"[11.733433509789462, -11.733433509789466]",11.733433509789462,-11.733433509789464,images/picture_2.png,1,"[-11.733433509789466, -11.733433509789462]",-11.733433509789464,-11.733433509789462,images/picture_3.png,2,"[-11.733433509789462, 11.733433509789464]",-11.733433509789462,11.733433509789464,0,1,1,0.7596566028516485,1.7596566028516485,1.2403433971483515,3,1,1.5096566028516485,0,0,0,0,0,0,8,8,3,,,,,,,0.004897041013464332,180.10715279099531,180.10715279099531,181.12090704101138,181.62093620805535,181.84025662497152,181.84025662497152,181.84025662497152,183.08728587499354,183.08728587499354,183.08728587499354,183.08728587499354,4.02969520795159,184.08783099998254,200002,206,2023-03-21_16h31.15.221,DMS_BEST_eyetracking_DAN_base_12-36_looped_10minWORKING,2022.2.4,None,
,,,,,,,,,,,,,,,,,,,,,,,,,,,,,,,0,0,0,0,,,,,,,,,184.14868862496223,196.1727954579983,,,,,,,,,,,,,,,200002,206,2023-03-21_16h31.15.221,DMS_BEST_eyetracking_DAN_base_12-36_looped_10minWORKING,2022.2.4,None,
15,UNPRED,12,0.8594518582092331,2,images/picture_3.png,images/picture_1.png,0,"[11.733433509789462, -11.733433509789466]",11.733433509789462,-11.733433509789464,images/picture_2.png,1,"[-11.733433509789462, 11.733433509789464]",-11.733433509789462,11.733433509789464,images/picture_3.png,2,"[11.733433509789464, 11.733433509789462]",11.733433509789464,11.733433509789462,0,1,1,0.8594518582092331,1.8594518582092332,1.1405481417907672,3,1,1.6094518582092332,0,1,0,1,0,0,0,0,6,,,,,,,,,,,,,,,,,,,,,200002,206,2023-03-21_16h31.15.221,DMS_BEST_eyetracking_DAN_base_12-36_looped_10minWORKING,2022.2.4,None,
15,UNPRED,12,0.8594518582092331,2,images/picture_3.png,images/picture_1.png,0,"[11.733433509789462, -11.733433509789466]",11.733433509789462,-11.733433509789464,images/picture_2.png,1,"[-11.733433509789462, 11.733433509789464]",-11.733433509789462,11.733433509789464,images/picture_3.png,2,"[11.733433509789464, 11.733433509789462]",11.733433509789464,11.733433509789462,0,1,1,0.8594518582092331,1.8594518582092332,1.1405481417907672,3,1,1.6094518582092332,0,1,0,1,0,0,0,0,6,,,,,,,0.0018892090301960707,196.1727954579983,196.1727954579983,197.187582249986,197.78737737506162,198.02050791599322,198.02050791599322,198.02050791599322,199.17278254101984,199.17278254101984,199.17278254101984,199.15406537498347,4.022825291962363,200.15429062501062,200002,206,2023-03-21_16h31.15.221,DMS_BEST_eyetracking_DAN_base_12-36_looped_10minWORKING,2022.2.4,None,
17,UNPRED,12,0.8710950145544163,1,images/picture_2.png,images/picture_1.png,0,"[-11.733433509789466, -11.733433509789462]",-11.733433509789464,-11.733433509789462,images/picture_2.png,1,"[-11.733433509789462, 11.733433509789464]",-11.733433509789462,11.733433509789464,images/picture_3.png,2,"[11.733433509789462, -11.733433509789466]",11.733433509789462,-11.733433509789464,0,1,1,0.8710950145544163,1.8710950145544163,1.1289049854455837,3,1,1.6210950145544163,0,1,0,1,0,0,1,1,8,,,,,,,,,,,,,,,,,,,,,200002,206,2023-03-21_16h31.15.221,DMS_BEST_eyetracking_DAN_base_12-36_looped_10minWORKING,2022.2.4,None,
17,UNPRED,12,0.8710950145544163,1,images/picture_2.png,images/picture_1.png,0,"[-11.733433509789466, -11.733433509789462]",-11.733433509789464,-11.733433509789462,images/picture_2.png,1,"[-11.733433509789462, 11.733433509789464]",-11.733433509789462,11.733433509789464,images/picture_3.png,2,"[11.733433509789462, -11.733433509789466]",11.733433509789462,-11.733433509789464,0,1,1,0.8710950145544163,1.8710950145544163,1.1289049854455837,3,1,1.6210950145544163,0,1,0,1,0,0,1,1,8,,,,,,,0.006441375007852912,200.20714970806148,200.20714970806148,201.2208177499706,201.83999933302402,202.05402733304072,202.05402733304072,202.05402733304072,203.1876513749594,203.1876513749594,203.1876513749594,203.1876513749594,4.029658499988727,204.18755054101348,200002,206,2023-03-21_16h31.15.221,DMS_BEST_eyetracking_DAN_base_12-36_looped_10minWORKING,2022.2.4,None,
11,UNPRED,12,0.9018423298577344,0,images/picture_1.png,images/picture_1.png,0,"[-11.733433509789466, -11.733433509789462]",-11.733433509789464,-11.733433509789462,images/picture_2.png,1,"[11.733433509789462, -11.733433509789466]",11.733433509789462,-11.733433509789464,images/picture_3.png,2,"[-11.733433509789462, 11.733433509789464]",-11.733433509789462,11.733433509789464,0,1,1,0.9018423298577344,1.9018423298577345,1.0981576701422655,3,1,1.6518423298577345,0,1,0,1,0,0,2,2,2,,,,,,,,,,,,,,,,,,,,,200002,206,2023-03-21_16h31.15.221,DMS_BEST_eyetracking_DAN_base_12-36_looped_10minWORKING,2022.2.4,None,
11,UNPRED,12,0.9018423298577344,0,images/picture_1.png,images/picture_1.png,0,"[-11.733433509789466, -11.733433509789462]",-11.733433509789464,-11.733433509789462,images/picture_2.png,1,"[11.733433509789462, -11.733433509789466]",11.733433509789462,-11.733433509789464,images/picture_3.png,2,"[-11.733433509789462, 11.733433509789464]",-11.733433509789462,11.733433509789464,0,1,1,0.9018423298577344,1.9018423298577345,1.0981576701422655,3,1,1.6518423298577345,0,1,0,1,0,0,2,2,2,,,,,,,0.005651500076055527,204.2404488750035,204.2404488750035,205.2542944160523,205.9066785830073,206.1207063329639,206.1207063329639,206.1207063329639,207.22060216602404,207.22060216602404,207.22060216602404,207.22060216602404,4.030012958100997,208.22057683300227,200002,206,2023-03-21_16h31.15.221,DMS_BEST_eyetracking_DAN_base_12-36_looped_10minWORKING,2022.2.4,None,
12,UNPRED,12,0.9726804451790848,2,images/picture_3.png,images/picture_1.png,0,"[11.733433509789462, -11.733433509789466]",11.733433509789462,-11.733433509789464,images/picture_2.png,1,"[-11.733433509789462, 11.733433509789464]",-11.733433509789462,11.733433509789464,images/picture_3.png,2,"[-11.733433509789466, -11.733433509789462]",-11.733433509789464,-11.733433509789462,0,1,1,0.9726804451790848,1.9726804451790847,1.0273195548209153,3,1,1.7226804451790847,0,1,0,1,0,0,3,3,3,,,,,,,,,,,,,,,,,,,,,200002,206,2023-03-21_16h31.15.221,DMS_BEST_eyetracking_DAN_base_12-36_looped_10minWORKING,2022.2.4,None,
12,UNPRED,12,0.9726804451790848,2,images/picture_3.png,images/picture_1.png,0,"[11.733433509789462, -11.733433509789466]",11.733433509789462,-11.733433509789464,images/picture_2.png,1,"[-11.733433509789462, 11.733433509789464]",-11.733433509789462,11.733433509789464,images/picture_3.png,2,"[-11.733433509789466, -11.733433509789462]",-11.733433509789464,-11.733433509789462,0,1,1,0.9726804451790848,1.9726804451790847,1.0273195548209153,3,1,1.7226804451790847,0,1,0,1,0,0,3,3,3,,,,,,,0.001793834031559527,208.25368304096628,208.25368304096628,209.25429399998393,209.9875339580467,210.22083075006958,210.22083075006958,210.22083075006958,211.254238500027,211.254238500027,211.254238500027,211.254238500027,3.99744833400473,212.27395320800133,200002,206,2023-03-21_16h31.15.221,DMS_BEST_eyetracking_DAN_base_12-36_looped_10minWORKING,2022.2.4,None,
14,UNPRED,12,0.9375449629791632,0,images/picture_1.png,images/picture_1.png,0,"[11.733433509789462, -11.733433509789466]",11.733433509789462,-11.733433509789464,images/picture_2.png,1,"[-11.733433509789462, 11.733433509789464]",-11.733433509789462,11.733433509789464,images/picture_3.png,2,"[-11.733433509789466, -11.733433509789462]",-11.733433509789464,-11.733433509789462,0,1,1,0.9375449629791632,1.9375449629791637,1.0624550370208363,3,1,1.6875449629791637,0,1,0,1,0,0,4,4,5,,,,,,,,,,,,,,,,,,,,,200002,206,2023-03-21_16h31.15.221,DMS_BEST_eyetracking_DAN_base_12-36_looped_10minWORKING,2022.2.4,None,
14,UNPRED,12,0.9375449629791632,0,images/picture_1.png,images/picture_1.png,0,"[11.733433509789462, -11.733433509789466]",11.733433509789462,-11.733433509789464,images/picture_2.png,1,"[-11.733433509789462, 11.733433509789464]",-11.733433509789462,11.733433509789464,images/picture_3.png,2,"[-11.733433509789466, -11.733433509789462]",-11.733433509789464,-11.733433509789462,0,1,1,0.9375449629791632,1.9375449629791637,1.0624550370208363,3,1,1.6875449629791637,0,1,0,1,0,0,4,4,5,,,,,,,0.004614416975528002,212.27395320800133,212.27395320800133,213.28763941605575,213.97317654103972,214.18749208305962,214.18749208305962,214.18749208305962,215.2544614999788,215.2544614999788,215.2544614999788,215.2544614999788,4.030813499935903,216.2543909579981,200002,206,2023-03-21_16h31.15.221,DMS_BEST_eyetracking_DAN_base_12-36_looped_10minWORKING,2022.2.4,None,
13,UNPRED,12,1.180418502409842,1,images/picture_2.png,images/picture_1.png,0,"[11.733433509789464, 11.733433509789462]",11.733433509789464,11.733433509789462,images/picture_2.png,1,"[-11.733433509789462, 11.733433509789464]",-11.733433509789462,11.733433509789464,images/picture_3.png,2,"[-11.733433509789466, -11.733433509789462]",-11.733433509789464,-11.733433509789462,0,1,1,1.180418502409842,2.1804185024098417,0.8195814975901579,3,1,1.930418502409842,0,1,0,1,0,0,5,5,4,,,,,,,,,,,,,,,,,,,,,200002,206,2023-03-21_16h31.15.221,DMS_BEST_eyetracking_DAN_base_12-36_looped_10minWORKING,2022.2.4,None,
13,UNPRED,12,1.180418502409842,1,images/picture_2.png,images/picture_1.png,0,"[11.733433509789464, 11.733433509789462]",11.733433509789464,11.733433509789462,images/picture_2.png,1,"[-11.733433509789462, 11.733433509789464]",-11.733433509789462,11.733433509789464,images/picture_3.png,2,"[-11.733433509789466, -11.733433509789462]",-11.733433509789464,-11.733433509789462,0,1,1,1.180418502409842,2.1804185024098417,0.8195814975901579,3,1,1.930418502409842,0,1,0,1,0,0,5,5,4,,,,,,,0.006270334008149803,216.30740187503397,216.30740187503397,217.32078787498176,218.23941291600931,218.45436179102398,218.45436179102398,218.45436179102398,219.28764395799953,219.28764395799953,219.28764395799953,219.28764395799953,4.030010125017725,220.28765974997077,200002,206,2023-03-21_16h31.15.221,DMS_BEST_eyetracking_DAN_base_12-36_looped_10minWORKING,2022.2.4,None,
16,UNPRED,12,0.5456052182833674,2,images/picture_3.png,images/picture_1.png,0,"[11.733433509789462, -11.733433509789466]",11.733433509789462,-11.733433509789464,images/picture_2.png,1,"[-11.733433509789462, 11.733433509789464]",-11.733433509789462,11.733433509789464,images/picture_3.png,2,"[11.733433509789464, 11.733433509789462]",11.733433509789464,11.733433509789462,0,1,1,0.5456052182833674,1.5456052182833675,1.4543947817166325,3,1,1.2956052182833675,0,1,0,1,0,0,6,6,7,,,,,,,,,,,,,,,,,,,,,200002,206,2023-03-21_16h31.15.221,DMS_BEST_eyetracking_DAN_base_12-36_looped_10minWORKING,2022.2.4,None,
16,UNPRED,12,0.5456052182833674,2,images/picture_3.png,images/picture_1.png,0,"[11.733433509789462, -11.733433509789466]",11.733433509789462,-11.733433509789464,images/picture_2.png,1,"[-11.733433509789462, 11.733433509789464]",-11.733433509789462,11.733433509789464,images/picture_3.png,2,"[11.733433509789464, 11.733433509789462]",11.733433509789464,11.733433509789462,0,1,1,0.5456052182833674,1.5456052182833675,1.4543947817166325,3,1,1.2956052182833675,0,1,0,1,0,0,6,6,7,,,,,,,0.0044788329396396875,220.3402481660014,220.3402481660014,221.3540723749902,221.64026183297392,221.85416108299978,221.85416108299978,221.85416108299978,223.32110462500714,223.32110462500714,223.32110462500714,223.32110462500714,4.0287637079600245,224.32103833300062,200002,206,2023-03-21_16h31.15.221,DMS_BEST_eyetracking_DAN_base_12-36_looped_10minWORKING,2022.2.4,None,
9,UNPRED,12,0.9732258735259482,1,images/picture_2.png,images/picture_1.png,0,"[11.733433509789462, -11.733433509789466]",11.733433509789462,-11.733433509789464,images/picture_2.png,1,"[-11.733433509789466, -11.733433509789462]",-11.733433509789464,-11.733433509789462,images/picture_3.png,2,"[-11.733433509789462, 11.733433509789464]",-11.733433509789462,11.733433509789464,0,1,1,0.9732258735259482,1.973225873525948,1.0267741264740518,3,1,1.7232258735259482,0,1,0,1,0,0,7,7,0,,,,,,,,,,,,,,,,,,,,,200002,206,2023-03-21_16h31.15.221,DMS_BEST_eyetracking_DAN_base_12-36_looped_10minWORKING,2022.2.4,None,
9,UNPRED,12,0.9732258735259482,1,images/picture_2.png,images/picture_1.png,0,"[11.733433509789462, -11.733433509789466]",11.733433509789462,-11.733433509789464,images/picture_2.png,1,"[-11.733433509789466, -11.733433509789462]",-11.733433509789464,-11.733433509789462,images/picture_3.png,2,"[-11.733433509789462, 11.733433509789464]",-11.733433509789462,11.733433509789464,0,1,1,0.9732258735259482,1.973225873525948,1.0267741264740518,3,1,1.7232258735259482,0,1,0,1,0,0,7,7,0,,,,,,,0.004037166014313698,224.37346441601403,224.37346441601403,225.38771408307366,226.10684991604649,226.32089624996297,226.32089624996297,226.32089624996297,227.3539954579901,227.3539954579901,227.3539954579901,227.3539954579901,4.028164625051431,228.35394433303736,200002,206,2023-03-21_16h31.15.221,DMS_BEST_eyetracking_DAN_base_12-36_looped_10minWORKING,2022.2.4,None,
10,UNPRED,12,0.6594676115934998,2,images/picture_3.png,images/picture_1.png,0,"[-11.733433509789462, 11.733433509789464]",-11.733433509789462,11.733433509789464,images/picture_2.png,1,"[-11.733433509789466, -11.733433509789462]",-11.733433509789464,-11.733433509789462,images/picture_3.png,2,"[11.733433509789464, 11.733433509789462]",11.733433509789464,11.733433509789462,0,1,1,0.6594676115934998,1.6594676115934996,1.3405323884065004,3,1,1.4094676115934996,0,1,0,1,0,0,8,8,1,,,,,,,,,,,,,,,,,,,,,200002,206,2023-03-21_16h31.15.221,DMS_BEST_eyetracking_DAN_base_12-36_looped_10minWORKING,2022.2.4,None,
10,UNPRED,12,0.6594676115934998,2,images/picture_3.png,images/picture_1.png,0,"[-11.733433509789462, 11.733433509789464]",-11.733433509789462,11.733433509789464,images/picture_2.png,1,"[-11.733433509789466, -11.733433509789462]",-11.733433509789464,-11.733433509789462,images/picture_3.png,2,"[11.733433509789464, 11.733433509789462]",11.733433509789464,11.733433509789462,0,1,1,0.6594676115934998,1.6594676115934996,1.3405323884065004,3,1,1.4094676115934996,0,1,0,1,0,0,8,8,1,,,,,,,0.0013579169753938913,228.38721712504048,228.38721712504048,229.38752437499352,229.80691479099914,230.04027212504297,230.04027212504297,230.04027212504297,231.38768720801454,231.38768720801454,231.38768720801454,231.38768720801454,3.998951542074792,232.42895591596607,200002,206,2023-03-21_16h31.15.221,DMS_BEST_eyetracking_DAN_base_12-36_looped_10minWORKING,2022.2.4,None,
,,,,,,,,,,,,,,,,,,,,,,,,,,,,,,,1,0,1,0,,,,,,,,,232.42895591596607,244.45636416599154,,,,,,,,,,,,,,,200002,206,2023-03-21_16h31.15.221,DMS_BEST_eyetracking_DAN_base_12-36_looped_10minWORKING,2022.2.4,None,
23,PRED,12,0.9778569686302694,0,images/picture_1.png,images/picture_1.png,0,"[-11.733433509789462, 11.733433509789464]",-11.733433509789462,11.733433509789464,images/picture_2.png,1,"[11.733433509789464, 11.733433509789462]",11.733433509789464,11.733433509789462,images/picture_3.png,2,"[-11.733433509789466, -11.733433509789462]",-11.733433509789464,-11.733433509789462,0,1,1,0.9778569686302694,1.9778569686302692,1.0221430313697306,3,1,1.7278569686302694,0,2,0,2,0,0,0,0,5,,,,,,,,,,,,,,,,,,,,,200002,206,2023-03-21_16h31.15.221,DMS_BEST_eyetracking_DAN_base_12-36_looped_10minWORKING,2022.2.4,None,
23,PRED,12,0.9778569686302694,0,images/picture_1.png,images/picture_1.png,0,"[-11.733433509789462, 11.733433509789464]",-11.733433509789462,11.733433509789464,images/picture_2.png,1,"[11.733433509789464, 11.733433509789462]",11.733433509789464,11.733433509789462,images/picture_3.png,2,"[-11.733433509789466, -11.733433509789462]",-11.733433509789464,-11.733433509789462,0,1,1,0.9778569686302694,1.9778569686302692,1.0221430313697306,3,1,1.7278569686302694,0,2,0,2,0,0,0,0,5,,,,,,,0.004065250046551228,244.45636416599154,244.45636416599154,245.4542706659995,246.18762904102914,246.4207654580241,246.4207654580241,246.4207654580241,247.4539180409629,247.4539180409629,247.4539180409629,247.4539180409629,3.99583304207772,248.45626999996603,200002,206,2023-03-21_16h31.15.221,DMS_BEST_eyetracking_DAN_base_12-36_looped_10minWORKING,2022.2.4,None,
26,PRED,12,1.0034713648989952,0,images/picture_1.png,images/picture_1.png,0,"[11.733433509789464, 11.733433509789462]",11.733433509789464,11.733433509789462,images/picture_2.png,1,"[-11.733433509789462, 11.733433509789464]",-11.733433509789462,11.733433509789464,images/picture_3.png,2,"[11.733433509789462, -11.733433509789466]",11.733433509789462,-11.733433509789464,0,1,1,1.0034713648989952,2.0034713648989952,0.9965286351010048,3,1,1.7534713648989952,0,2,0,2,0,0,1,1,8,,,,,,,,,,,,,,,,,,,,,200002,206,2023-03-21_16h31.15.221,DMS_BEST_eyetracking_DAN_base_12-36_looped_10minWORKING,2022.2.4,None,
26,PRED,12,1.0034713648989952,0,images/picture_1.png,images/picture_1.png,0,"[11.733433509789464, 11.733433509789462]",11.733433509789464,11.733433509789462,images/picture_2.png,1,"[-11.733433509789462, 11.733433509789464]",-11.733433509789462,11.733433509789464,images/picture_3.png,2,"[11.733433509789462, -11.733433509789466]",11.733433509789462,-11.733433509789464,0,1,1,1.0034713648989952,2.0034713648989952,0.9965286351010048,3,1,1.7534713648989952,0,2,0,2,0,0,1,1,8,,,,,,,0.0033696250757202506,248.45626999996603,248.45626999996603,249.4540268749697,250.22104966605548,250.45407195796724,250.45407195796724,250.45407195796724,251.45431775006,251.45431775006,251.45431775006,251.45431775006,3.996764500043355,252.45479945803527,200002,206,2023-03-21_16h31.15.221,DMS_BEST_eyetracking_DAN_base_12-36_looped_10minWORKING,2022.2.4,None,
25,PRED,12,0.8775317955427986,0,images/picture_1.png,images/picture_1.png,0,"[-11.733433509789466, -11.733433509789462]",-11.733433509789464,-11.733433509789462,images/picture_2.png,1,"[11.733433509789464, 11.733433509789462]",11.733433509789464,11.733433509789462,images/picture_3.png,2,"[11.733433509789462, -11.733433509789466]",11.733433509789462,-11.733433509789464,0,1,1,0.8775317955427986,1.8775317955427984,1.1224682044572014,3,1,1.6275317955427986,0,2,0,2,0,0,2,2,7,,,,,,,,,,,,,,,,,,,,,200002,206,2023-03-21_16h31.15.221,DMS_BEST_eyetracking_DAN_base_12-36_looped_10minWORKING,2022.2.4,None,
25,PRED,12,0.8775317955427986,0,images/picture_1.png,images/picture_1.png,0,"[-11.733433509789466, -11.733433509789462]",-11.733433509789464,-11.733433509789462,images/picture_2.png,1,"[11.733433509789464, 11.733433509789462]",11.733433509789464,11.733433509789462,images/picture_3.png,2,"[11.733433509789462, -11.733433509789466]",11.733433509789462,-11.733433509789464,0,1,1,0.8775317955427986,1.8775317955427984,1.1224682044572014,3,1,1.6275317955427986,0,2,0,2,0,0,2,2,7,,,,,,,0.00332454196177423,252.45479945803527,252.45479945803527,253.4543433750514,254.08737741596997,254.3206227910705,254.3206227910705,254.3206227910705,255.4543190000113,255.4543190000113,255.4543190000113,255.4543190000113,3.996978083043359,256.45538875006605,200002,206,2023-03-21_16h31.15.221,DMS_BEST_eyetracking_DAN_base_12-36_looped_10minWORKING,2022.2.4,None,
18,PRED,12,0.9531105653971942,0,images/picture_1.png,images/picture_1.png,0,"[11.733433509789462, -11.733433509789466]",11.733433509789462,-11.733433509789464,images/picture_2.png,1,"[11.733433509789464, 11.733433509789462]",11.733433509789464,11.733433509789462,images/picture_3.png,2,"[-11.733433509789466, -11.733433509789462]",-11.733433509789464,-11.733433509789462,0,1,1,0.9531105653971942,1.953110565397194,1.046889434602806,3,1,1.703110565397194,0,2,0,2,0,0,3,3,0,,,,,,,,,,,,,,,,,,,,,200002,206,2023-03-21_16h31.15.221,DMS_BEST_eyetracking_DAN_base_12-36_looped_10minWORKING,2022.2.4,None,
18,PRED,12,0.9531105653971942,0,images/picture_1.png,images/picture_1.png,0,"[11.733433509789462, -11.733433509789466]",11.733433509789462,-11.733433509789464,images/picture_2.png,1,"[11.733433509789464, 11.733433509789462]",11.733433509789464,11.733433509789462,images/picture_3.png,2,"[-11.733433509789466, -11.733433509789462]",-11.733433509789464,-11.733433509789462,0,1,1,0.9531105653971942,1.953110565397194,1.046889434602806,3,1,1.703110565397194,0,2,0,2,0,0,3,3,0,,,,,,,0.0035236660623922944,256.45538875006605,256.45538875006605,257.4541501660133,258.1735977079952,258.4066979159834,258.4066979159834,258.4066979159834,259.4540989580564,259.4540989580564,259.4540989580564,259.4540989580564,3.996616458054632,260.4544060410699,200002,206,2023-03-21_16h31.15.221,DMS_BEST_eyetracking_DAN_base_12-36_looped_10minWORKING,2022.2.4,None,
20,PRED,12,1.1979272070428255,0,images/picture_1.png,images/picture_1.png,0,"[-11.733433509789462, 11.733433509789464]",-11.733433509789462,11.733433509789464,images/picture_2.png,1,"[-11.733433509789466, -11.733433509789462]",-11.733433509789464,-11.733433509789462,images/picture_3.png,2,"[11.733433509789464, 11.733433509789462]",11.733433509789464,11.733433509789462,0,1,1,1.1979272070428255,2.197927207042825,0.8020727929571745,3,1,1.9479272070428253,0,2,0,2,0,0,4,4,2,,,,,,,,,,,,,,,,,,,,,200002,206,2023-03-21_16h31.15.221,DMS_BEST_eyetracking_DAN_base_12-36_looped_10minWORKING,2022.2.4,None,
20,PRED,12,1.1979272070428255,0,images/picture_1.png,images/picture_1.png,0,"[-11.733433509789462, 11.733433509789464]",-11.733433509789462,11.733433509789464,images/picture_2.png,1,"[-11.733433509789466, -11.733433509789462]",-11.733433509789464,-11.733433509789462,images/picture_3.png,2,"[11.733433509789464, 11.733433509789462]",11.733433509789464,11.733433509789462,0,1,1,1.1979272070428255,2.197927207042825,0.8020727929571745,3,1,1.9479272070428253,0,2,0,2,0,0,4,4,2,,,,,,,0.003311165957711637,260.4544060410699,260.4544060410699,261.4542815410532,262.4069174580509,262.65423154097516,262.65423154097516,262.65423154097516,263.454232124961,263.454232124961,263.454232124961,263.454232124961,3.9970106249675155,264.4547937500756,200002,206,2023-03-21_16h31.15.221,DMS_BEST_eyetracking_DAN_base_12-36_looped_10minWORKING,2022.2.4,None,
19,PRED,12,1.167136651941592,0,images/picture_1.png,images/picture_1.png,0,"[11.733433509789462, -11.733433509789466]",11.733433509789462,-11.733433509789464,images/picture_2.png,1,"[11.733433509789464, 11.733433509789462]",11.733433509789464,11.733433509789462,images/picture_3.png,2,"[-11.733433509789462, 11.733433509789464]",-11.733433509789462,11.733433509789464,0,1,1,1.167136651941592,2.167136651941592,0.8328633480584079,3,1,1.9171366519415918,0,2,0,2,0,0,5,5,1,,,,,,,,,,,,,,,,,,,,,200002,206,2023-03-21_16h31.15.221,DMS_BEST_eyetracking_DAN_base_12-36_looped_10minWORKING,2022.2.4,None,
19,PRED,12,1.167136651941592,0,images/picture_1.png,images/picture_1.png,0,"[11.733433509789462, -11.733433509789466]",11.733433509789462,-11.733433509789464,images/picture_2.png,1,"[11.733433509789464, 11.733433509789462]",11.733433509789464,11.733433509789462,images/picture_3.png,2,"[-11.733433509789462, 11.733433509789464]",-11.733433509789462,11.733433509789464,0,1,1,1.167136651941592,2.167136651941592,0.8328633480584079,3,1,1.9171366519415918,0,2,0,2,0,0,5,5,1,,,,,,,0.0033346249256283045,264.4547937500756,264.4547937500756,265.4543040000135,266.3875681660138,266.62065229099244,266.62065229099244,266.62065229099244,267.45437620801385,267.45437620801385,267.45437620801385,267.45437620801385,3.997199625009671,268.47425091604237,200002,206,2023-03-21_16h31.15.221,DMS_BEST_eyetracking_DAN_base_12-36_looped_10minWORKING,2022.2.4,None,
22,PRED,12,1.195060235674832,0,images/picture_1.png,images/picture_1.png,0,"[-11.733433509789466, -11.733433509789462]",-11.733433509789464,-11.733433509789462,images/picture_2.png,1,"[11.733433509789462, -11.733433509789466]",11.733433509789462,-11.733433509789464,images/picture_3.png,2,"[11.733433509789464, 11.733433509789462]",11.733433509789464,11.733433509789462,0,1,1,1.195060235674832,2.195060235674832,0.8049397643251681,3,1,1.945060235674832,0,2,0,2,0,0,6,6,4,,,,,,,,,,,,,,,,,,,,,200002,206,2023-03-21_16h31.15.221,DMS_BEST_eyetracking_DAN_base_12-36_looped_10minWORKING,2022.2.4,None,
22,PRED,12,1.195060235674832,0,images/picture_1.png,images/picture_1.png,0,"[-11.733433509789466, -11.733433509789462]",-11.733433509789464,-11.733433509789462,images/picture_2.png,1,"[11.733433509789462, -11.733433509789466]",11.733433509789462,-11.733433509789464,images/picture_3.png,2,"[11.733433509789464, 11.733433509789462]",11.733433509789464,11.733433509789462,0,1,1,1.195060235674832,2.195060235674832,0.8049397643251681,3,1,1.945060235674832,0,2,0,2,0,0,6,6,4,,,,,,,0.003487291978672147,268.47425091604237,268.47425091604237,269.48729470802937,270.4208866250701,270.6407580410596,270.6407580410596,270.6407580410596,271.45429591601714,271.45429591601714,271.45429591601714,271.45429591601714,4.029638041974977,272.4543845830485,200002,206,2023-03-21_16h31.15.221,DMS_BEST_eyetracking_DAN_base_12-36_looped_10minWORKING,2022.2.4,None,
21,PRED,12,1.0247259370680548,0,images/picture_1.png,images/picture_1.png,0,"[-11.733433509789466, -11.733433509789462]",-11.733433509789464,-11.733433509789462,images/picture_2.png,1,"[11.733433509789462, -11.733433509789466]",11.733433509789462,-11.733433509789464,images/picture_3.png,2,"[-11.733433509789462, 11.733433509789464]",-11.733433509789462,11.733433509789464,0,1,1,1.0247259370680548,2.024725937068055,0.9752740629319452,3,1,1.7747259370680548,0,2,0,2,0,0,7,7,3,,,,,,,,,,,,,,,,,,,,,200002,206,2023-03-21_16h31.15.221,DMS_BEST_eyetracking_DAN_base_12-36_looped_10minWORKING,2022.2.4,None,
21,PRED,12,1.0247259370680548,0,images/picture_1.png,images/picture_1.png,0,"[-11.733433509789466, -11.733433509789462]",-11.733433509789464,-11.733433509789462,images/picture_2.png,1,"[11.733433509789462, -11.733433509789466]",11.733433509789462,-11.733433509789464,images/picture_3.png,2,"[-11.733433509789462, 11.733433509789464]",-11.733433509789462,11.733433509789464,0,1,1,1.0247259370680548,2.024725937068055,0.9752740629319452,3,1,1.7747259370680548,0,2,0,2,0,0,7,7,3,,,,,,,0.003198708058334887,272.4876879999647,272.4876879999647,273.48769133305177,274.27344708296005,274.5069680829765,274.5069680829765,274.5069680829765,275.4876259160228,275.4876259160228,275.4876259160228,275.4876259160228,3.9979174160398543,276.5075720830355,200002,206,2023-03-21_16h31.15.221,DMS_BEST_eyetracking_DAN_base_12-36_looped_10minWORKING,2022.2.4,None,
24,PRED,12,0.5043036213393565,0,images/picture_1.png,images/picture_1.png,0,"[11.733433509789462, -11.733433509789466]",11.733433509789462,-11.733433509789464,images/picture_2.png,1,"[-11.733433509789466, -11.733433509789462]",-11.733433509789464,-11.733433509789462,images/picture_3.png,2,"[11.733433509789464, 11.733433509789462]",11.733433509789464,11.733433509789462,0,1,1,0.5043036213393565,1.5043036213393566,1.4956963786606434,3,1,1.2543036213393566,0,2,0,2,0,0,8,8,6,,,,,,,,,,,,,,,,,,,,,200002,206,2023-03-21_16h31.15.221,DMS_BEST_eyetracking_DAN_base_12-36_looped_10minWORKING,2022.2.4,None,
24,PRED,12,0.5043036213393565,0,images/picture_1.png,images/picture_1.png,0,"[11.733433509789462, -11.733433509789466]",11.733433509789462,-11.733433509789464,images/picture_2.png,1,"[-11.733433509789466, -11.733433509789462]",-11.733433509789464,-11.733433509789462,images/picture_3.png,2,"[11.733433509789464, 11.733433509789462]",11.733433509789464,11.733433509789462,0,1,1,0.5043036213393565,1.5043036213393566,1.4956963786606434,3,1,1.2543036213393566,0,2,0,2,0,0,8,8,6,,,,,,,0.0036375420168042183,276.5075720830355,276.5075720830355,277.52086033299565,277.7737294579856,277.98732437496074,277.98732437496074,277.98732437496074,279.48746208299417,279.48746208299417,279.48746208299417,279.48746208299417,4.028634833055548,280.48739604104776,200002,206,2023-03-21_16h31.15.221,DMS_BEST_eyetracking_DAN_base_12-36_looped_10minWORKING,2022.2.4,None,
,,,,,,,,,,,,,,,,,,,,,,,,,,,,,,,2,0,2,0,,,,,,,,,280.57267766597215,292.6081018750556,,,,,,,,,,,,,,,200002,206,2023-03-21_16h31.15.221,DMS_BEST_eyetracking_DAN_base_12-36_looped_10minWORKING,2022.2.4,None,
30,UNPRED,12,0.9584126183850642,2,images/picture_3.png,images/picture_1.png,0,"[11.733433509789464, 11.733433509789462]",11.733433509789464,11.733433509789462,images/picture_2.png,1,"[11.733433509789462, -11.733433509789466]",11.733433509789462,-11.733433509789464,images/picture_3.png,2,"[-11.733433509789462, 11.733433509789464]",-11.733433509789462,11.733433509789464,0,1,1,0.9584126183850642,1.958412618385064,1.041587381614936,3,1,1.708412618385064,0,3,0,3,0,0,0,0,3,,,,,,,,,,,,,,,,,,,,,200002,206,2023-03-21_16h31.15.221,DMS_BEST_eyetracking_DAN_base_12-36_looped_10minWORKING,2022.2.4,None,
30,UNPRED,12,0.9584126183850642,2,images/picture_3.png,images/picture_1.png,0,"[11.733433509789464, 11.733433509789462]",11.733433509789464,11.733433509789462,images/picture_2.png,1,"[11.733433509789462, -11.733433509789466]",11.733433509789462,-11.733433509789464,images/picture_3.png,2,"[-11.733433509789462, 11.733433509789464]",-11.733433509789462,11.733433509789464,0,1,1,0.9584126183850642,1.958412618385064,1.041587381614936,3,1,1.708412618385064,0,3,0,3,0,0,0,0,3,,,,,,,0.0036946249892935157,292.6081018750556,292.6081018750556,293.6210384160513,294.32112225005403,294.55397133296356,294.55397133296356,294.55397133296356,295.60710637504235,295.60710637504235,295.60710637504235,295.60710637504235,4.009999583940953,296.6218522080453,200002,206,2023-03-21_16h31.15.221,DMS_BEST_eyetracking_DAN_base_12-36_looped_10minWORKING,2022.2.4,None,
29,UNPRED,12,1.1803661508737675,2,images/picture_3.png,images/picture_1.png,0,"[11.733433509789464, 11.733433509789462]",11.733433509789464,11.733433509789462,images/picture_2.png,1,"[-11.733433509789466, -11.733433509789462]",-11.733433509789464,-11.733433509789462,images/picture_3.png,2,"[11.733433509789462, -11.733433509789466]",11.733433509789462,-11.733433509789464,0,1,1,1.1803661508737675,2.1803661508737675,0.8196338491262325,3,1,1.9303661508737675,0,3,0,3,0,0,1,1,2,,,,,,,,,,,,,,,,,,,,,200002,206,2023-03-21_16h31.15.221,DMS_BEST_eyetracking_DAN_base_12-36_looped_10minWORKING,2022.2.4,None,
29,UNPRED,12,1.1803661508737675,2,images/picture_3.png,images/picture_1.png,0,"[11.733433509789464, 11.733433509789462]",11.733433509789464,11.733433509789462,images/picture_2.png,1,"[-11.733433509789466, -11.733433509789462]",-11.733433509789464,-11.733433509789462,images/picture_3.png,2,"[11.733433509789462, -11.733433509789466]",11.733433509789462,-11.733433509789464,0,1,1,1.1803661508737675,2.1803661508737675,0.8196338491262325,3,1,1.9303661508737675,0,3,0,3,0,0,1,1,2,,,,,,,0.003431832999922335,296.6218522080453,296.6218522080453,297.621038833051,298.5543371660169,298.7873304580571,298.7873304580571,298.7873304580571,299.62103054102045,299.62103054102045,299.62103054102045,299.62103054102045,3.996312167029828,300.6204775830265,200002,206,2023-03-21_16h31.15.221,DMS_BEST_eyetracking_DAN_base_12-36_looped_10minWORKING,2022.2.4,None,
27,UNPRED,12,1.1195830662926152,1,images/picture_2.png,images/picture_1.png,0,"[-11.733433509789462, 11.733433509789464]",-11.733433509789462,11.733433509789464,images/picture_2.png,1,"[11.733433509789462, -11.733433509789466]",11.733433509789462,-11.733433509789464,images/picture_3.png,2,"[11.733433509789464, 11.733433509789462]",11.733433509789464,11.733433509789462,0,1,1,1.1195830662926152,2.1195830662926154,0.8804169337073848,3,1,1.8695830662926156,0,3,0,3,0,0,2,2,0,,,,,,,,,,,,,,,,,,,,,200002,206,2023-03-21_16h31.15.221,DMS_BEST_eyetracking_DAN_base_12-36_looped_10minWORKING,2022.2.4,None,
27,UNPRED,12,1.1195830662926152,1,images/picture_2.png,images/picture_1.png,0,"[-11.733433509789462, 11.733433509789464]",-11.733433509789462,11.733433509789464,images/picture_2.png,1,"[11.733433509789462, -11.733433509789466]",11.733433509789462,-11.733433509789464,images/picture_3.png,2,"[11.733433509789464, 11.733433509789462]",11.733433509789464,11.733433509789462,0,1,1,1.1195830662926152,2.1195830662926154,0.8804169337073848,3,1,1.8695830662926156,0,3,0,3,0,0,2,2,0,,,,,,,0.002424041973426938,300.6204775830265,300.6204775830265,301.6211172500625,302.4875735830283,302.7400530410232,302.7400530410232,302.7400530410232,303.6210466249613,303.6210466249613,303.6210466249613,303.6210466249613,3.9993375840131193,304.6403962910408,200002,206,2023-03-21_16h31.15.221,DMS_BEST_eyetracking_DAN_base_12-36_looped_10minWORKING,2022.2.4,None,
35,UNPRED,12,1.1514467898934957,2,images/picture_3.png,images/picture_1.png,0,"[-11.733433509789466, -11.733433509789462]",-11.733433509789464,-11.733433509789462,images/picture_2.png,1,"[11.733433509789464, 11.733433509789462]",11.733433509789464,11.733433509789462,images/picture_3.png,2,"[-11.733433509789462, 11.733433509789464]",-11.733433509789462,11.733433509789464,0,1,1,1.1514467898934957,2.1514467898934955,0.8485532101065045,3,1,1.9014467898934957,0,3,0,3,0,0,3,3,8,,,,,,,,,,,,,,,,,,,,,200002,206,2023-03-21_16h31.15.221,DMS_BEST_eyetracking_DAN_base_12-36_looped_10minWORKING,2022.2.4,None,
35,UNPRED,12,1.1514467898934957,2,images/picture_3.png,images/picture_1.png,0,"[-11.733433509789466, -11.733433509789462]",-11.733433509789464,-11.733433509789462,images/picture_2.png,1,"[11.733433509789464, 11.733433509789462]",11.733433509789464,11.733433509789462,images/picture_3.png,2,"[-11.733433509789462, 11.733433509789464]",-11.733433509789462,11.733433509789464,0,1,1,1.1514467898934957,2.1514467898934955,0.8485532101065045,3,1,1.9014467898934957,0,3,0,3,0,0,3,3,8,,,,,,,0.0033937080297619104,304.6403962910408,304.6403962910408,305.6543157909764,306.5543486250099,306.7735604160698,306.7735604160698,306.7735604160698,307.6210712910397,307.6210712910397,307.6210712910397,307.6210712910397,4.029528500046581,308.62103870802093,200002,206,2023-03-21_16h31.15.221,DMS_BEST_eyetracking_DAN_base_12-36_looped_10minWORKING,2022.2.4,None,
32,UNPRED,12,1.1065945317527652,2,images/picture_3.png,images/picture_1.png,0,"[-11.733433509789462, 11.733433509789464]",-11.733433509789462,11.733433509789464,images/picture_2.png,1,"[11.733433509789462, -11.733433509789466]",11.733433509789462,-11.733433509789464,images/picture_3.png,2,"[11.733433509789464, 11.733433509789462]",11.733433509789464,11.733433509789462,0,1,1,1.1065945317527652,2.106594531752765,0.8934054682472348,3,1,1.8565945317527648,0,3,0,3,0,0,4,4,5,,,,,,,,,,,,,,,,,,,,,200002,206,2023-03-21_16h31.15.221,DMS_BEST_eyetracking_DAN_base_12-36_looped_10minWORKING,2022.2.4,None,
32,UNPRED,12,1.1065945317527652,2,images/picture_3.png,images/picture_1.png,0,"[-11.733433509789462, 11.733433509789464]",-11.733433509789462,11.733433509789464,images/picture_2.png,1,"[11.733433509789462, -11.733433509789466]",11.733433509789462,-11.733433509789464,images/picture_3.png,2,"[11.733433509789464, 11.733433509789462]",11.733433509789464,11.733433509789462,0,1,1,1.1065945317527652,2.106594531752765,0.8934054682472348,3,1,1.8565945317527648,0,3,0,3,0,0,4,4,5,,,,,,,0.0033272920409217477,308.65503633301705,308.65503633301705,309.6542906250106,310.5207559580449,310.754604457994,310.754604457994,310.754604457994,311.6539307080675,311.6539307080675,311.6539307080675,311.6539307080675,3.9967613340122625,312.67355299997143,200002,206,2023-03-21_16h31.15.221,DMS_BEST_eyetracking_DAN_base_12-36_looped_10minWORKING,2022.2.4,None,
31,UNPRED,12,0.9483110822285246,1,images/picture_2.png,images/picture_1.png,0,"[11.733433509789464, 11.733433509789462]",11.733433509789464,11.733433509789462,images/picture_2.png,1,"[-11.733433509789466, -11.733433509789462]",-11.733433509789464,-11.733433509789462,images/picture_3.png,2,"[11.733433509789462, -11.733433509789466]",11.733433509789462,-11.733433509789464,0,1,1,0.9483110822285246,1.9483110822285248,1.0516889177714754,3,1,1.6983110822285246,0,3,0,3,0,0,5,5,4,,,,,,,,,,,,,,,,,,,,,200002,206,2023-03-21_16h31.15.221,DMS_BEST_eyetracking_DAN_base_12-36_looped_10minWORKING,2022.2.4,None,
31,UNPRED,12,0.9483110822285246,1,images/picture_2.png,images/picture_1.png,0,"[11.733433509789464, 11.733433509789462]",11.733433509789464,11.733433509789462,images/picture_2.png,1,"[-11.733433509789466, -11.733433509789462]",-11.733433509789464,-11.733433509789462,images/picture_3.png,2,"[11.733433509789462, -11.733433509789466]",11.733433509789462,-11.733433509789464,0,1,1,0.9483110822285246,1.9483110822285248,1.0516889177714754,3,1,1.6983110822285246,0,3,0,3,0,0,5,5,4,,,,,,,0.0056511249858886,312.67355299997143,312.67355299997143,313.68763029098045,314.3875932500232,314.6072397499811,314.6072397499811,314.6072397499811,315.67364154104143,315.67364154104143,315.67364154104143,315.6543053750647,4.02952458395157,316.6543757079635,200002,206,2023-03-21_16h31.15.221,DMS_BEST_eyetracking_DAN_base_12-36_looped_10minWORKING,2022.2.4,None,
34,UNPRED,12,0.6716450908551452,0,images/picture_1.png,images/picture_1.png,0,"[11.733433509789462, -11.733433509789466]",11.733433509789462,-11.733433509789464,images/picture_2.png,1,"[11.733433509789464, 11.733433509789462]",11.733433509789464,11.733433509789462,images/picture_3.png,2,"[-11.733433509789466, -11.733433509789462]",-11.733433509789464,-11.733433509789462,0,1,1,0.6716450908551452,1.6716450908551452,1.3283549091448548,3,1,1.4216450908551452,0,3,0,3,0,0,6,6,7,,,,,,,,,,,,,,,,,,,,,200002,206,2023-03-21_16h31.15.221,DMS_BEST_eyetracking_DAN_base_12-36_looped_10minWORKING,2022.2.4,None,
34,UNPRED,12,0.6716450908551452,0,images/picture_1.png,images/picture_1.png,0,"[11.733433509789462, -11.733433509789466]",11.733433509789462,-11.733433509789464,images/picture_2.png,1,"[11.733433509789464, 11.733433509789462]",11.733433509789464,11.733433509789462,images/picture_3.png,2,"[-11.733433509789466, -11.733433509789462]",-11.733433509789464,-11.733433509789462,0,1,1,0.6716450908551452,1.6716450908551452,1.3283549091448548,3,1,1.4216450908551452,0,3,0,3,0,0,6,6,7,,,,,,,0.004749584011733532,316.7063547910657,316.7063547910657,317.72100162506104,318.14023941603955,318.35395129106473,318.35395129106473,318.35395129106473,319.6876032500295,319.6876032500295,319.6876032500295,319.6876032500295,4.029933208948933,320.6872932079714,200002,206,2023-03-21_16h31.15.221,DMS_BEST_eyetracking_DAN_base_12-36_looped_10minWORKING,2022.2.4,None,
28,UNPRED,12,0.864519459250213,0,images/picture_1.png,images/picture_1.png,0,"[-11.733433509789466, -11.733433509789462]",-11.733433509789464,-11.733433509789462,images/picture_2.png,1,"[-11.733433509789462, 11.733433509789464]",-11.733433509789462,11.733433509789464,images/picture_3.png,2,"[11.733433509789464, 11.733433509789462]",11.733433509789464,11.733433509789462,0,1,1,0.864519459250213,1.8645194592502132,1.135480540749787,3,1,1.6145194592502132,0,3,0,3,0,0,7,7,1,,,,,,,,,,,,,,,,,,,,,200002,206,2023-03-21_16h31.15.221,DMS_BEST_eyetracking_DAN_base_12-36_looped_10minWORKING,2022.2.4,None,
28,UNPRED,12,0.864519459250213,0,images/picture_1.png,images/picture_1.png,0,"[-11.733433509789466, -11.733433509789462]",-11.733433509789464,-11.733433509789462,images/picture_2.png,1,"[-11.733433509789462, 11.733433509789464]",-11.733433509789462,11.733433509789464,images/picture_3.png,2,"[11.733433509789464, 11.733433509789462]",11.733433509789464,11.733433509789462,0,1,1,0.864519459250213,1.8645194592502132,1.135480540749787,3,1,1.6145194592502132,0,3,0,3,0,0,7,7,1,,,,,,,0.0019688750617206097,320.72026862506755,320.72026862506755,321.721059457981,322.3400633330457,322.58732566598337,322.58732566598337,322.58732566598337,323.7208552079974,323.7208552079974,323.7208552079974,323.7208552079974,3.997775249998085,324.74014675000217,200002,206,2023-03-21_16h31.15.221,DMS_BEST_eyetracking_DAN_base_12-36_looped_10minWORKING,2022.2.4,None,
33,UNPRED,12,0.7139901685592849,1,images/picture_2.png,images/picture_1.png,0,"[-11.733433509789462, 11.733433509789464]",-11.733433509789462,11.733433509789464,images/picture_2.png,1,"[11.733433509789464, 11.733433509789462]",11.733433509789464,11.733433509789462,images/picture_3.png,2,"[-11.733433509789466, -11.733433509789462]",-11.733433509789464,-11.733433509789462,0,1,1,0.7139901685592849,1.7139901685592849,1.2860098314407151,3,1,1.4639901685592849,0,3,0,3,0,0,8,8,6,,,,,,,,,,,,,,,,,,,,,200002,206,2023-03-21_16h31.15.221,DMS_BEST_eyetracking_DAN_base_12-36_looped_10minWORKING,2022.2.4,None,
33,UNPRED,12,0.7139901685592849,1,images/picture_2.png,images/picture_1.png,0,"[-11.733433509789462, 11.733433509789464]",-11.733433509789462,11.733433509789464,images/picture_2.png,1,"[11.733433509789464, 11.733433509789462]",11.733433509789464,11.733433509789462,images/picture_3.png,2,"[-11.733433509789466, -11.733433509789462]",-11.733433509789464,-11.733433509789462,0,1,1,0.7139901685592849,1.7139901685592849,1.2860098314407151,3,1,1.4639901685592849,0,3,0,3,0,0,8,8,6,,,,,,,0.006965874927118421,324.74014675000217,324.74014675000217,325.75419587502256,326.20692404103465,326.4207284160657,326.4207284160657,326.4207284160657,327.7210290830117,327.7210290830117,327.7210290830117,327.7210290830117,4.029967374983244,328.7208502079593,200002,206,2023-03-21_16h31.15.221,DMS_BEST_eyetracking_DAN_base_12-36_looped_10minWORKING,2022.2.4,None,
,,,,,,,,,,,,,,,,,,,,,,,,,,,,,,,3,0,3,0,,,,,,,,,328.81778858299367,340.839160750038,,,,,,,,,,,,,,,200002,206,2023-03-21_16h31.15.221,DMS_BEST_eyetracking_DAN_base_12-36_looped_10minWORKING,2022.2.4,None,
36,PRED,12,0.6176918238168166,1,images/picture_2.png,images/picture_1.png,0,"[-11.733433509789466, -11.733433509789462]",-11.733433509789464,-11.733433509789462,images/picture_2.png,1,"[-11.733433509789462, 11.733433509789464]",-11.733433509789462,11.733433509789464,images/picture_3.png,2,"[11.733433509789462, -11.733433509789466]",11.733433509789462,-11.733433509789464,0,1,1,0.6176918238168166,1.6176918238168168,1.3823081761831832,3,1,1.3676918238168168,0,4,0,4,0,0,0,0,0,,,,,,,,,,,,,,,,,,,,,200002,206,2023-03-21_16h31.15.221,DMS_BEST_eyetracking_DAN_base_12-36_looped_10minWORKING,2022.2.4,None,
36,PRED,12,0.6176918238168166,1,images/picture_2.png,images/picture_1.png,0,"[-11.733433509789466, -11.733433509789462]",-11.733433509789464,-11.733433509789462,images/picture_2.png,1,"[-11.733433509789462, 11.733433509789464]",-11.733433509789462,11.733433509789464,images/picture_3.png,2,"[11.733433509789462, -11.733433509789466]",11.733433509789462,-11.733433509789464,0,1,1,0.6176918238168166,1.6176918238168168,1.3823081761831832,3,1,1.3676918238168168,0,4,0,4,0,0,0,0,0,,,,,,,0.0020397499902173877,340.839160750038,340.839160750038,341.8543219160056,342.221091708052,342.4404083749978,342.4404083749978,342.4404083749978,343.82093875005376,343.82093875005376,343.82093875005376,343.82093875005376,4.022012999979779,344.82103520806413,200002,206,2023-03-21_16h31.15.221,DMS_BEST_eyetracking_DAN_base_12-36_looped_10minWORKING,2022.2.4,None,
41,PRED,12,1.0879767218592498,1,images/picture_2.png,images/picture_1.png,0,"[-11.733433509789466, -11.733433509789462]",-11.733433509789464,-11.733433509789462,images/picture_2.png,1,"[-11.733433509789462, 11.733433509789464]",-11.733433509789462,11.733433509789464,images/picture_3.png,2,"[11.733433509789462, -11.733433509789466]",11.733433509789462,-11.733433509789464,0,1,1,1.0879767218592498,2.08797672185925,0.9120232781407502,3,1,1.83797672185925,0,4,0,4,0,0,1,1,5,,,,,,,,,,,,,,,,,,,,,200002,206,2023-03-21_16h31.15.221,DMS_BEST_eyetracking_DAN_base_12-36_looped_10minWORKING,2022.2.4,None,
41,PRED,12,1.0879767218592498,1,images/picture_2.png,images/picture_1.png,0,"[-11.733433509789466, -11.733433509789462]",-11.733433509789464,-11.733433509789462,images/picture_2.png,1,"[-11.733433509789462, 11.733433509789464]",-11.733433509789462,11.733433509789464,images/picture_3.png,2,"[11.733433509789462, -11.733433509789466]",11.733433509789462,-11.733433509789464,0,1,1,1.0879767218592498,2.08797672185925,0.9120232781407502,3,1,1.83797672185925,0,4,0,4,0,0,1,1,5,,,,,,,0.004817666951566935,344.8735341660213,344.8735341660213,345.8875543749891,346.7209914160194,346.9402763750404,346.9402763750404,346.9402763750404,347.8543028329732,347.8543028329732,347.8543028329732,347.8543028329732,4.030157458037138,348.85385137505364,200002,206,2023-03-21_16h31.15.221,DMS_BEST_eyetracking_DAN_base_12-36_looped_10minWORKING,2022.2.4,None,
39,PRED,12,0.6560700880342311,1,images/picture_2.png,images/picture_1.png,0,"[11.733433509789462, -11.733433509789466]",11.733433509789462,-11.733433509789464,images/picture_2.png,1,"[-11.733433509789462, 11.733433509789464]",-11.733433509789462,11.733433509789464,images/picture_3.png,2,"[11.733433509789464, 11.733433509789462]",11.733433509789464,11.733433509789462,0,1,1,0.6560700880342311,1.6560700880342312,1.3439299119657688,3,1,1.4060700880342312,0,4,0,4,0,0,2,2,3,,,,,,,,,,,,,,,,,,,,,200002,206,2023-03-21_16h31.15.221,DMS_BEST_eyetracking_DAN_base_12-36_looped_10minWORKING,2022.2.4,None,
39,PRED,12,0.6560700880342311,1,images/picture_2.png,images/picture_1.png,0,"[11.733433509789462, -11.733433509789466]",11.733433509789462,-11.733433509789464,images/picture_2.png,1,"[-11.733433509789462, 11.733433509789464]",-11.733433509789462,11.733433509789464,images/picture_3.png,2,"[11.733433509789464, 11.733433509789462]",11.733433509789464,11.733433509789462,0,1,1,0.6560700880342311,1.6560700880342312,1.3439299119657688,3,1,1.4060700880342312,0,4,0,4,0,0,2,2,3,,,,,,,0.0040430419612675905,348.8889130830066,348.8889130830066,349.8875819160603,350.30690099997446,350.5407609579852,350.5407609579852,350.5407609579852,351.88744125002995,351.88744125002995,351.88744125002995,351.88744125002995,3.9977172919316217,352.90673870802857,200002,206,2023-03-21_16h31.15.221,DMS_BEST_eyetracking_DAN_base_12-36_looped_10minWORKING,2022.2.4,None,
43,PRED,12,1.1303654255587032,1,images/picture_2.png,images/picture_1.png,0,"[11.733433509789464, 11.733433509789462]",11.733433509789464,11.733433509789462,images/picture_2.png,1,"[-11.733433509789462, 11.733433509789464]",-11.733433509789462,11.733433509789464,images/picture_3.png,2,"[-11.733433509789466, -11.733433509789462]",-11.733433509789464,-11.733433509789462,0,1,1,1.1303654255587032,2.1303654255587032,0.8696345744412968,3,1,1.8803654255587032,0,4,0,4,0,0,3,3,7,,,,,,,,,,,,,,,,,,,,,200002,206,2023-03-21_16h31.15.221,DMS_BEST_eyetracking_DAN_base_12-36_looped_10minWORKING,2022.2.4,None,
43,PRED,12,1.1303654255587032,1,images/picture_2.png,images/picture_1.png,0,"[11.733433509789464, 11.733433509789462]",11.733433509789464,11.733433509789462,images/picture_2.png,1,"[-11.733433509789462, 11.733433509789464]",-11.733433509789462,11.733433509789464,images/picture_3.png,2,"[-11.733433509789466, -11.733433509789462]",-11.733433509789464,-11.733433509789462,0,1,1,1.1303654255587032,2.1303654255587032,0.8696345744412968,3,1,1.8803654255587032,0,4,0,4,0,0,3,3,7,,,,,,,0.004965625004842877,352.90673870802857,352.90673870802857,353.9210760410642,354.7875667910557,355.0206782500027,355.0206782500027,355.0206782500027,355.8875112080714,355.8875112080714,355.8875112080714,355.8875112080714,4.029891917016357,356.88757670798805,200002,206,2023-03-21_16h31.15.221,DMS_BEST_eyetracking_DAN_base_12-36_looped_10minWORKING,2022.2.4,None,
40,PRED,12,0.7838120915969586,1,images/picture_2.png,images/picture_1.png,0,"[11.733433509789464, 11.733433509789462]",11.733433509789464,11.733433509789462,images/picture_2.png,1,"[-11.733433509789462, 11.733433509789464]",-11.733433509789462,11.733433509789464,images/picture_3.png,2,"[11.733433509789462, -11.733433509789466]",11.733433509789462,-11.733433509789464,0,1,1,0.7838120915969586,1.7838120915969586,1.2161879084030414,3,1,1.5338120915969586,0,4,0,4,0,0,4,4,4,,,,,,,,,,,,,,,,,,,,,200002,206,2023-03-21_16h31.15.221,DMS_BEST_eyetracking_DAN_base_12-36_looped_10minWORKING,2022.2.4,None,
40,PRED,12,0.7838120915969586,1,images/picture_2.png,images/picture_1.png,0,"[11.733433509789464, 11.733433509789462]",11.733433509789464,11.733433509789462,images/picture_2.png,1,"[-11.733433509789462, 11.733433509789464]",-11.733433509789462,11.733433509789464,images/picture_3.png,2,"[11.733433509789462, -11.733433509789466]",11.733433509789462,-11.733433509789464,0,1,1,0.7838120915969586,1.7838120915969586,1.2161879084030414,3,1,1.5338120915969586,0,4,0,4,0,0,4,4,4,,,,,,,0.004865583032369614,356.9401576659875,356.9401576659875,357.9542161660502,358.4877291660523,358.7070005000569,358.7070005000569,358.7070005000569,359.92086308298167,359.92086308298167,359.92086308298167,359.92086308298167,4.029771208064631,360.92081825004425,200002,206,2023-03-21_16h31.15.221,DMS_BEST_eyetracking_DAN_base_12-36_looped_10minWORKING,2022.2.4,None,
44,PRED,12,1.0267866545583266,1,images/picture_2.png,images/picture_1.png,0,"[11.733433509789462, -11.733433509789466]",11.733433509789462,-11.733433509789464,images/picture_2.png,1,"[11.733433509789464, 11.733433509789462]",11.733433509789464,11.733433509789462,images/picture_3.png,2,"[-11.733433509789462, 11.733433509789464]",-11.733433509789462,11.733433509789464,0,1,1,1.0267866545583266,2.026786654558326,0.9732133454416734,3,1,1.7767866545583266,0,4,0,4,0,0,5,5,8,,,,,,,,,,,,,,,,,,,,,200002,206,2023-03-21_16h31.15.221,DMS_BEST_eyetracking_DAN_base_12-36_looped_10minWORKING,2022.2.4,None,
44,PRED,12,1.0267866545583266,1,images/picture_2.png,images/picture_1.png,0,"[11.733433509789462, -11.733433509789466]",11.733433509789462,-11.733433509789464,images/picture_2.png,1,"[11.733433509789464, 11.733433509789462]",11.733433509789464,11.733433509789462,images/picture_3.png,2,"[-11.733433509789462, 11.733433509789464]",-11.733433509789462,11.733433509789464,0,1,1,1.0267866545583266,2.026786654558326,0.9732133454416734,3,1,1.7767866545583266,0,4,0,4,0,0,5,5,8,,,,,,,0.004752250039018691,360.97320775000844,360.97320775000844,361.98752104106825,362.7542469999753,362.9737881660694,362.9737881660694,362.9737881660694,363.954322625068,363.954322625068,363.954322625068,363.954322625068,4.030617916025221,364.95430049998686,200002,206,2023-03-21_16h31.15.221,DMS_BEST_eyetracking_DAN_base_12-36_looped_10minWORKING,2022.2.4,None,
42,PRED,12,0.956204901596652,1,images/picture_2.png,images/picture_1.png,0,"[-11.733433509789466, -11.733433509789462]",-11.733433509789464,-11.733433509789462,images/picture_2.png,1,"[-11.733433509789462, 11.733433509789464]",-11.733433509789462,11.733433509789464,images/picture_3.png,2,"[11.733433509789462, -11.733433509789466]",11.733433509789462,-11.733433509789464,0,1,1,0.956204901596652,1.956204901596652,1.043795098403348,3,1,1.706204901596652,0,4,0,4,0,0,6,6,6,,,,,,,,,,,,,,,,,,,,,200002,206,2023-03-21_16h31.15.221,DMS_BEST_eyetracking_DAN_base_12-36_looped_10minWORKING,2022.2.4,None,
42,PRED,12,0.956204901596652,1,images/picture_2.png,images/picture_1.png,0,"[-11.733433509789466, -11.733433509789462]",-11.733433509789464,-11.733433509789462,images/picture_2.png,1,"[-11.733433509789462, 11.733433509789464]",-11.733433509789462,11.733433509789464,images/picture_3.png,2,"[11.733433509789462, -11.733433509789466]",11.733433509789462,-11.733433509789464,0,1,1,0.956204901596652,1.956204901596652,1.043795098403348,3,1,1.706204901596652,0,4,0,4,0,0,6,6,6,,,,,,,0.004871957935392857,365.0067128749797,365.0067128749797,366.0210342500359,366.72119716601446,366.94016741600353,366.94016741600353,366.94016741600353,367.9876769579714,367.9876769579714,367.9876769579714,367.9876769579714,4.0301072909496725,368.98755337507464,200002,206,2023-03-21_16h31.15.221,DMS_BEST_eyetracking_DAN_base_12-36_looped_10minWORKING,2022.2.4,None,
37,PRED,12,1.0775905226805302,1,images/picture_2.png,images/picture_1.png,0,"[-11.733433509789462, 11.733433509789464]",-11.733433509789462,11.733433509789464,images/picture_2.png,1,"[-11.733433509789466, -11.733433509789462]",-11.733433509789464,-11.733433509789462,images/picture_3.png,2,"[11.733433509789462, -11.733433509789466]",11.733433509789462,-11.733433509789464,0,1,1,1.0775905226805302,2.0775905226805302,0.9224094773194698,3,1,1.8275905226805305,0,4,0,4,0,0,7,7,1,,,,,,,,,,,,,,,,,,,,,200002,206,2023-03-21_16h31.15.221,DMS_BEST_eyetracking_DAN_base_12-36_looped_10minWORKING,2022.2.4,None,
37,PRED,12,1.0775905226805302,1,images/picture_2.png,images/picture_1.png,0,"[-11.733433509789462, 11.733433509789464]",-11.733433509789462,11.733433509789464,images/picture_2.png,1,"[-11.733433509789466, -11.733433509789462]",-11.733433509789464,-11.733433509789462,images/picture_3.png,2,"[11.733433509789462, -11.733433509789466]",11.733433509789462,-11.733433509789464,0,1,1,1.0775905226805302,2.0775905226805302,0.9224094773194698,3,1,1.8275905226805305,0,4,0,4,0,0,7,7,1,,,,,,,0.004839416942559183,369.040771375061,369.040771375061,370.0543987080455,370.8735228750156,371.08744745806325,371.08744745806325,371.08744745806325,372.0205293750623,372.0205293750623,372.0205293750623,372.0205293750623,4.029730041977018,373.0208534579724,200002,206,2023-03-21_16h31.15.221,DMS_BEST_eyetracking_DAN_base_12-36_looped_10minWORKING,2022.2.4,None,
38,PRED,12,0.5408792543690345,1,images/picture_2.png,images/picture_1.png,0,"[11.733433509789462, -11.733433509789466]",11.733433509789462,-11.733433509789464,images/picture_2.png,1,"[-11.733433509789462, 11.733433509789464]",-11.733433509789462,11.733433509789464,images/picture_3.png,2,"[11.733433509789464, 11.733433509789462]",11.733433509789464,11.733433509789462,0,1,1,0.5408792543690345,1.5408792543690346,1.4591207456309654,3,1,1.2908792543690346,0,4,0,4,0,0,8,8,2,,,,,,,,,,,,,,,,,,,,,200002,206,2023-03-21_16h31.15.221,DMS_BEST_eyetracking_DAN_base_12-36_looped_10minWORKING,2022.2.4,None,
38,PRED,12,0.5408792543690345,1,images/picture_2.png,images/picture_1.png,0,"[11.733433509789462, -11.733433509789466]",11.733433509789462,-11.733433509789464,images/picture_2.png,1,"[-11.733433509789462, 11.733433509789464]",-11.733433509789462,11.733433509789464,images/picture_3.png,2,"[11.733433509789464, 11.733433509789462]",11.733433509789464,11.733433509789462,0,1,1,0.5408792543690345,1.5408792543690346,1.4591207456309654,3,1,1.2908792543690346,0,4,0,4,0,0,8,8,2,,,,,,,0.004758417024277151,373.0734893330373,373.0734893330373,374.0876942080213,374.37344491598196,374.5874216250377,374.5874216250377,374.5874216250377,376.054297124967,376.054297124967,376.054297124967,376.054297124967,4.030178959015757,377.05419912503567,200002,206,2023-03-21_16h31.15.221,DMS_BEST_eyetracking_DAN_base_12-36_looped_10minWORKING,2022.2.4,None,
,,,,,,,,,,,,,,,,,,,,,,,,,,,,,,,4,0,4,0,,,,,,,,,377.15704700001515,389.17434170807246,,,,,,,,,,,,,,,200002,206,2023-03-21_16h31.15.221,DMS_BEST_eyetracking_DAN_base_12-36_looped_10minWORKING,2022.2.4,None,
52,UNPRED,12,0.7192062431318078,2,images/picture_3.png,images/picture_1.png,0,"[11.733433509789464, 11.733433509789462]",11.733433509789464,11.733433509789462,images/picture_2.png,1,"[-11.733433509789466, -11.733433509789462]",-11.733433509789464,-11.733433509789462,images/picture_3.png,2,"[-11.733433509789462, 11.733433509789464]",-11.733433509789462,11.733433509789464,0,1,1,0.7192062431318078,1.7192062431318078,1.2807937568681922,3,1,1.4692062431318078,0,5,0,5,0,0,0,0,7,,,,,,,,,,,,,,,,,,,,,200002,206,2023-03-21_16h31.15.221,DMS_BEST_eyetracking_DAN_base_12-36_looped_10minWORKING,2022.2.4,None,
52,UNPRED,12,0.7192062431318078,2,images/picture_3.png,images/picture_1.png,0,"[11.733433509789464, 11.733433509789462]",11.733433509789464,11.733433509789462,images/picture_2.png,1,"[-11.733433509789466, -11.733433509789462]",-11.733433509789464,-11.733433509789462,images/picture_3.png,2,"[-11.733433509789462, 11.733433509789464]",-11.733433509789462,11.733433509789464,0,1,1,0.7192062431318078,1.7192062431318078,1.2807937568681922,3,1,1.4692062431318078,0,5,0,5,0,0,0,0,7,,,,,,,0.003006207989528775,389.17434170807246,389.17434170807246,390.1875382500002,390.65432287496515,390.88759437506087,390.88759437506087,390.88759437506087,392.1727882500272,392.1727882500272,392.1727882500272,392.1727882500272,4.009750665980391,393.20667075004894,200002,206,2023-03-21_16h31.15.221,DMS_BEST_eyetracking_DAN_base_12-36_looped_10minWORKING,2022.2.4,None,
49,UNPRED,12,1.0339560319838597,0,images/picture_1.png,images/picture_1.png,0,"[-11.733433509789466, -11.733433509789462]",-11.733433509789464,-11.733433509789462,images/picture_2.png,1,"[11.733433509789464, 11.733433509789462]",11.733433509789464,11.733433509789462,images/picture_3.png,2,"[-11.733433509789462, 11.733433509789464]",-11.733433509789462,11.733433509789464,0,1,1,1.0339560319838597,2.0339560319838603,0.9660439680161405,3,1,1.78395603198386,0,5,0,5,0,0,1,1,4,,,,,,,,,,,,,,,,,,,,,200002,206,2023-03-21_16h31.15.221,DMS_BEST_eyetracking_DAN_base_12-36_looped_10minWORKING,2022.2.4,None,
49,UNPRED,12,1.0339560319838597,0,images/picture_1.png,images/picture_1.png,0,"[-11.733433509789466, -11.733433509789462]",-11.733433509789464,-11.733433509789462,images/picture_2.png,1,"[11.733433509789464, 11.733433509789462]",11.733433509789464,11.733433509789462,images/picture_3.png,2,"[-11.733433509789462, 11.733433509789464]",-11.733433509789462,11.733433509789464,0,1,1,1.0339560319838597,2.0339560319838603,0.9660439680161405,3,1,1.78395603198386,0,5,0,5,0,0,1,1,4,,,,,,,0.005903834011405706,393.20667075004894,393.20667075004894,394.2208777080523,394.9877075830009,395.2208163329633,395.2208163329633,395.2208163329633,396.18769316596445,396.18769316596445,396.18769316596445,396.18769316596445,4.029874666943215,397.18771125003695,200002,206,2023-03-21_16h31.15.221,DMS_BEST_eyetracking_DAN_base_12-36_looped_10minWORKING,2022.2.4,None,
46,UNPRED,12,0.7124286546901546,0,images/picture_1.png,images/picture_1.png,0,"[11.733433509789462, -11.733433509789466]",11.733433509789462,-11.733433509789464,images/picture_2.png,1,"[-11.733433509789462, 11.733433509789464]",-11.733433509789462,11.733433509789464,images/picture_3.png,2,"[-11.733433509789466, -11.733433509789462]",-11.733433509789464,-11.733433509789462,0,1,1,0.7124286546901546,1.7124286546901546,1.2875713453098454,3,1,1.4624286546901546,0,5,0,5,0,0,2,2,1,,,,,,,,,,,,,,,,,,,,,200002,206,2023-03-21_16h31.15.221,DMS_BEST_eyetracking_DAN_base_12-36_looped_10minWORKING,2022.2.4,None,
46,UNPRED,12,0.7124286546901546,0,images/picture_1.png,images/picture_1.png,0,"[11.733433509789462, -11.733433509789466]",11.733433509789462,-11.733433509789464,images/picture_2.png,1,"[-11.733433509789462, 11.733433509789464]",-11.733433509789462,11.733433509789464,images/picture_3.png,2,"[-11.733433509789466, -11.733433509789462]",-11.733433509789464,-11.733433509789462,0,1,1,0.7124286546901546,1.7124286546901546,1.2875713453098454,3,1,1.4624286546901546,0,5,0,5,0,0,2,2,1,,,,,,,0.003488957998342812,397.22160216607153,397.22160216607153,398.22095595800783,398.68785075005144,398.92062166600954,398.92062166600954,398.92062166600954,400.22092191607226,400.22092191607226,400.22092191607226,400.22092191607226,3.996684917015955,401.2218358750688,200002,206,2023-03-21_16h31.15.221,DMS_BEST_eyetracking_DAN_base_12-36_looped_10minWORKING,2022.2.4,None,
48,UNPRED,12,0.9986249380976756,0,images/picture_1.png,images/picture_1.png,0,"[11.733433509789464, 11.733433509789462]",11.733433509789464,11.733433509789462,images/picture_2.png,1,"[11.733433509789462, -11.733433509789466]",11.733433509789462,-11.733433509789464,images/picture_3.png,2,"[-11.733433509789466, -11.733433509789462]",-11.733433509789464,-11.733433509789462,0,1,1,0.9986249380976756,1.9986249380976755,1.0013750619023245,3,1,1.7486249380976755,0,5,0,5,0,0,3,3,3,,,,,,,,,,,,,,,,,,,,,200002,206,2023-03-21_16h31.15.221,DMS_BEST_eyetracking_DAN_base_12-36_looped_10minWORKING,2022.2.4,None,
48,UNPRED,12,0.9986249380976756,0,images/picture_1.png,images/picture_1.png,0,"[11.733433509789464, 11.733433509789462]",11.733433509789464,11.733433509789462,images/picture_2.png,1,"[11.733433509789462, -11.733433509789466]",11.733433509789462,-11.733433509789464,images/picture_3.png,2,"[-11.733433509789466, -11.733433509789462]",-11.733433509789464,-11.733433509789462,0,1,1,0.9986249380976756,1.9986249380976755,1.0013750619023245,3,1,1.7486249380976755,0,5,0,5,0,0,3,3,3,,,,,,,0.0035540000535547733,401.2218358750688,401.2218358750688,402.22056712501217,402.9733049160568,403.22059183300007,403.22059183300007,403.22059183300007,404.2206348750042,404.2206348750042,404.2206348750042,404.2206348750042,3.997026333003305,405.22214004106354,200002,206,2023-03-21_16h31.15.221,DMS_BEST_eyetracking_DAN_base_12-36_looped_10minWORKING,2022.2.4,None,
53,UNPRED,12,1.1677277962152104,0,images/picture_1.png,images/picture_1.png,0,"[-11.733433509789462, 11.733433509789464]",-11.733433509789462,11.733433509789464,images/picture_2.png,1,"[11.733433509789462, -11.733433509789466]",11.733433509789462,-11.733433509789464,images/picture_3.png,2,"[11.733433509789464, 11.733433509789462]",11.733433509789464,11.733433509789462,0,1,1,1.1677277962152104,2.1677277962152104,0.8322722037847896,3,1,1.9177277962152104,0,5,0,5,0,0,4,4,8,,,,,,,,,,,,,,,,,,,,,200002,206,2023-03-21_16h31.15.221,DMS_BEST_eyetracking_DAN_base_12-36_looped_10minWORKING,2022.2.4,None,
53,UNPRED,12,1.1677277962152104,0,images/picture_1.png,images/picture_1.png,0,"[-11.733433509789462, 11.733433509789464]",-11.733433509789462,11.733433509789464,images/picture_2.png,1,"[11.733433509789462, -11.733433509789466]",11.733433509789462,-11.733433509789464,images/picture_3.png,2,"[11.733433509789464, 11.733433509789462]",11.733433509789464,11.733433509789462,0,1,1,1.1677277962152104,2.1677277962152104,0.8322722037847896,3,1,1.9177277962152104,0,5,0,5,0,0,4,4,8,,,,,,,0.0034027500078082085,405.22214004106354,405.22214004106354,406.221018500044,407.1542632910423,407.3875122079626,407.3875122079626,407.3875122079626,408.2207737080753,408.2207737080753,408.2207737080753,408.2207737080753,3.9958674169611186,409.2403345829807,200002,206,2023-03-21_16h31.15.221,DMS_BEST_eyetracking_DAN_base_12-36_looped_10minWORKING,2022.2.4,None,
47,UNPRED,12,0.8109065930792679,1,images/picture_2.png,images/picture_1.png,0,"[-11.733433509789466, -11.733433509789462]",-11.733433509789464,-11.733433509789462,images/picture_2.png,1,"[11.733433509789462, -11.733433509789466]",11.733433509789462,-11.733433509789464,images/picture_3.png,2,"[-11.733433509789462, 11.733433509789464]",-11.733433509789462,11.733433509789464,0,1,1,0.8109065930792679,1.810906593079268,1.189093406920732,3,1,1.560906593079268,0,5,0,5,0,0,5,5,2,,,,,,,,,,,,,,,,,,,,,200002,206,2023-03-21_16h31.15.221,DMS_BEST_eyetracking_DAN_base_12-36_looped_10minWORKING,2022.2.4,None,
47,UNPRED,12,0.8109065930792679,1,images/picture_2.png,images/picture_1.png,0,"[-11.733433509789466, -11.733433509789462]",-11.733433509789464,-11.733433509789462,images/picture_2.png,1,"[11.733433509789462, -11.733433509789466]",11.733433509789462,-11.733433509789464,images/picture_3.png,2,"[-11.733433509789462, 11.733433509789464]",-11.733433509789462,11.733433509789464,0,1,1,0.8109065930792679,1.810906593079268,1.189093406920732,3,1,1.560906593079268,0,5,0,5,0,0,5,5,2,,,,,,,0.006927374983206391,409.2403345829807,409.2403345829807,410.2542496250244,410.80681420804467,411.0206725830212,411.0206725830212,411.0206725830212,412.2206754999934,412.2206754999934,412.2206754999934,412.2206754999934,4.030503749963827,413.22073154104874,200002,206,2023-03-21_16h31.15.221,DMS_BEST_eyetracking_DAN_base_12-36_looped_10minWORKING,2022.2.4,None,
50,UNPRED,12,0.9928281458201677,1,images/picture_2.png,images/picture_1.png,0,"[11.733433509789464, 11.733433509789462]",11.733433509789464,11.733433509789462,images/picture_2.png,1,"[-11.733433509789462, 11.733433509789464]",-11.733433509789462,11.733433509789464,images/picture_3.png,2,"[-11.733433509789466, -11.733433509789462]",-11.733433509789464,-11.733433509789462,0,1,1,0.9928281458201677,1.9928281458201675,1.0071718541798325,3,1,1.7428281458201675,0,5,0,5,0,0,6,6,5,,,,,,,,,,,,,,,,,,,,,200002,206,2023-03-21_16h31.15.221,DMS_BEST_eyetracking_DAN_base_12-36_looped_10minWORKING,2022.2.4,None,
50,UNPRED,12,0.9928281458201677,1,images/picture_2.png,images/picture_1.png,0,"[11.733433509789464, 11.733433509789462]",11.733433509789464,11.733433509789462,images/picture_2.png,1,"[-11.733433509789462, 11.733433509789464]",-11.733433509789462,11.733433509789464,images/picture_3.png,2,"[-11.733433509789466, -11.733433509789462]",-11.733433509789464,-11.733433509789462,0,1,1,0.9928281458201677,1.9928281458201675,1.0071718541798325,3,1,1.7428281458201675,0,5,0,5,0,0,6,6,5,,,,,,,0.004906582995317876,413.27378437505104,413.27378437505104,414.28753691597376,415.02094449999277,415.2407502910355,415.2407502910355,415.2407502910355,416.25427616597153,416.25427616597153,416.25427616597153,416.25427616597153,4.028690916951746,417.253975416068,200002,206,2023-03-21_16h31.15.221,DMS_BEST_eyetracking_DAN_base_12-36_looped_10minWORKING,2022.2.4,None,
45,UNPRED,12,0.9840306637561258,2,images/picture_3.png,images/picture_1.png,0,"[11.733433509789464, 11.733433509789462]",11.733433509789464,11.733433509789462,images/picture_2.png,1,"[11.733433509789462, -11.733433509789466]",11.733433509789462,-11.733433509789464,images/picture_3.png,2,"[-11.733433509789466, -11.733433509789462]",-11.733433509789464,-11.733433509789462,0,1,1,0.9840306637561258,1.9840306637561256,1.0159693362438742,3,1,1.7340306637561258,0,5,0,5,0,0,7,7,0,,,,,,,,,,,,,,,,,,,,,200002,206,2023-03-21_16h31.15.221,DMS_BEST_eyetracking_DAN_base_12-36_looped_10minWORKING,2022.2.4,None,
45,UNPRED,12,0.9840306637561258,2,images/picture_3.png,images/picture_1.png,0,"[11.733433509789464, 11.733433509789462]",11.733433509789464,11.733433509789462,images/picture_2.png,1,"[11.733433509789462, -11.733433509789466]",11.733433509789462,-11.733433509789464,images/picture_3.png,2,"[-11.733433509789466, -11.733433509789462]",-11.733433509789464,-11.733433509789462,0,1,1,0.9840306637561258,1.9840306637561256,1.0159693362438742,3,1,1.7340306637561258,0,5,0,5,0,0,7,7,0,,,,,,,0.003987208008766174,417.2880569159752,417.2880569159752,418.28757024998777,419.0208557500737,419.2733623330714,419.2733623330714,419.2733623330714,420.2877317080274,420.2877317080274,420.2877317080274,420.2877317080274,3.9970294170780107,421.2871495829895,200002,206,2023-03-21_16h31.15.221,DMS_BEST_eyetracking_DAN_base_12-36_looped_10minWORKING,2022.2.4,None,
51,UNPRED,12,0.6894622179818957,2,images/picture_3.png,images/picture_1.png,0,"[-11.733433509789462, 11.733433509789464]",-11.733433509789462,11.733433509789464,images/picture_2.png,1,"[-11.733433509789466, -11.733433509789462]",-11.733433509789464,-11.733433509789462,images/picture_3.png,2,"[11.733433509789464, 11.733433509789462]",11.733433509789464,11.733433509789462,0,1,1,0.6894622179818957,1.6894622179818957,1.3105377820181043,3,1,1.4394622179818957,0,5,0,5,0,0,8,8,6,,,,,,,,,,,,,,,,,,,,,200002,206,2023-03-21_16h31.15.221,DMS_BEST_eyetracking_DAN_base_12-36_looped_10minWORKING,2022.2.4,None,
51,UNPRED,12,0.6894622179818957,2,images/picture_3.png,images/picture_1.png,0,"[-11.733433509789462, 11.733433509789464]",-11.733433509789462,11.733433509789464,images/picture_2.png,1,"[-11.733433509789466, -11.733433509789462]",-11.733433509789464,-11.733433509789462,images/picture_3.png,2,"[11.733433509789464, 11.733433509789462]",11.733433509789464,11.733433509789462,0,1,1,0.6894622179818957,1.6894622179818957,1.3105377820181043,3,1,1.4394622179818957,0,5,0,5,0,0,8,8,6,,,,,,,0.0029497500509023666,421.2871495829895,421.2871495829895,422.2873323750682,422.7394162080018,422.97322887496557,422.97322887496557,422.97322887496557,424.28763454104774,424.28763454104774,424.28763454104774,424.28763454104774,3.997838541981764,425.37064991600346,200002,206,2023-03-21_16h31.15.221,DMS_BEST_eyetracking_DAN_base_12-36_looped_10minWORKING,2022.2.4,None,
,,,,,,,,,,,,,,,,,,,,,,,,,,,,,,,5,0,5,0,,,,,,,,,425.37064991600346,437.38391400000546,,,,,,,,,,,,,,,200002,206,2023-03-21_16h31.15.221,DMS_BEST_eyetracking_DAN_base_12-36_looped_10minWORKING,2022.2.4,None,
57,PRED,12,0.6180759585857349,1,images/picture_2.png,images/picture_1.png,0,"[11.733433509789464, 11.733433509789462]",11.733433509789464,11.733433509789462,images/picture_2.png,1,"[-11.733433509789466, -11.733433509789462]",-11.733433509789464,-11.733433509789462,images/picture_3.png,2,"[-11.733433509789462, 11.733433509789464]",-11.733433509789462,11.733433509789464,0,1,1,0.6180759585857349,1.618075958585735,1.381924041414265,3,1,1.368075958585735,0,6,0,6,0,0,0,0,3,,,,,,,,,,,,,,,,,,,,,200002,206,2023-03-21_16h31.15.221,DMS_BEST_eyetracking_DAN_base_12-36_looped_10minWORKING,2022.2.4,None,
57,PRED,12,0.6180759585857349,1,images/picture_2.png,images/picture_1.png,0,"[11.733433509789464, 11.733433509789462]",11.733433509789464,11.733433509789462,images/picture_2.png,1,"[-11.733433509789466, -11.733433509789462]",-11.733433509789464,-11.733433509789462,images/picture_3.png,2,"[-11.733433509789462, 11.733433509789464]",-11.733433509789462,11.733433509789464,0,1,1,0.6180759585857349,1.618075958585735,1.381924041414265,3,1,1.368075958585735,0,6,0,6,0,0,0,0,3,,,,,,,0.003372416947968304,437.38391400000546,437.38391400000546,438.38751145801507,438.75422854104545,439.0069468750153,439.0069468750153,439.0069468750153,440.3875640410697,440.3875640410697,440.3875640410697,440.3875640410697,4.000096874893643,441.4073852499714,200002,206,2023-03-21_16h31.15.221,DMS_BEST_eyetracking_DAN_base_12-36_looped_10minWORKING,2022.2.4,None,
54,PRED,12,0.5661227518748907,1,images/picture_2.png,images/picture_1.png,0,"[11.733433509789464, 11.733433509789462]",11.733433509789464,11.733433509789462,images/picture_2.png,1,"[11.733433509789462, -11.733433509789466]",11.733433509789462,-11.733433509789464,images/picture_3.png,2,"[-11.733433509789462, 11.733433509789464]",-11.733433509789462,11.733433509789464,0,1,1,0.5661227518748907,1.5661227518748908,1.4338772481251092,3,1,1.3161227518748908,0,6,0,6,0,0,1,1,0,,,,,,,,,,,,,,,,,,,,,200002,206,2023-03-21_16h31.15.221,DMS_BEST_eyetracking_DAN_base_12-36_looped_10minWORKING,2022.2.4,None,
54,PRED,12,0.5661227518748907,1,images/picture_2.png,images/picture_1.png,0,"[11.733433509789464, 11.733433509789462]",11.733433509789464,11.733433509789462,images/picture_2.png,1,"[11.733433509789462, -11.733433509789466]",11.733433509789462,-11.733433509789464,images/picture_3.png,2,"[-11.733433509789462, 11.733433509789464]",-11.733433509789462,11.733433509789464,0,1,1,0.5661227518748907,1.5661227518748908,1.4338772481251092,3,1,1.3161227518748908,0,6,0,6,0,0,1,1,0,,,,,,,0.00485504197422415,441.4073852499714,441.4073852499714,442.42071837501135,442.7206383330049,442.95387575007044,442.95387575007044,442.95387575007044,444.3875359579688,444.3875359579688,444.3875359579688,444.3875359579688,4.030991708044894,445.38758208299987,200002,206,2023-03-21_16h31.15.221,DMS_BEST_eyetracking_DAN_base_12-36_looped_10minWORKING,2022.2.4,None,
55,PRED,12,0.6466966465670174,1,images/picture_2.png,images/picture_1.png,0,"[11.733433509789464, 11.733433509789462]",11.733433509789464,11.733433509789462,images/picture_2.png,1,"[11.733433509789462, -11.733433509789466]",11.733433509789462,-11.733433509789464,images/picture_3.png,2,"[-11.733433509789462, 11.733433509789464]",-11.733433509789462,11.733433509789464,0,1,1,0.6466966465670174,1.6466966465670174,1.3533033534329826,3,1,1.3966966465670174,0,6,0,6,0,0,2,2,1,,,,,,,,,,,,,,,,,,,,,200002,206,2023-03-21_16h31.15.221,DMS_BEST_eyetracking_DAN_base_12-36_looped_10minWORKING,2022.2.4,None,
55,PRED,12,0.6466966465670174,1,images/picture_2.png,images/picture_1.png,0,"[11.733433509789464, 11.733433509789462]",11.733433509789464,11.733433509789462,images/picture_2.png,1,"[11.733433509789462, -11.733433509789466]",11.733433509789462,-11.733433509789464,images/picture_3.png,2,"[-11.733433509789462, 11.733433509789464]",-11.733433509789462,11.733433509789464,0,1,1,0.6466966465670174,1.6466966465670174,1.3533033534329826,3,1,1.3966966465670174,0,6,0,6,0,0,2,2,1,,,,,,,0.00488045800011605,445.44049683306366,445.44049683306366,446.45432720799,446.8403929580236,447.0543609580491,447.0543609580491,447.0543609580491,448.42079795803875,448.42079795803875,448.42079795803875,448.42079795803875,4.029291208018549,449.42080570803955,200002,206,2023-03-21_16h31.15.221,DMS_BEST_eyetracking_DAN_base_12-36_looped_10minWORKING,2022.2.4,None,
62,PRED,12,0.5377693275683043,1,images/picture_2.png,images/picture_1.png,0,"[11.733433509789464, 11.733433509789462]",11.733433509789464,11.733433509789462,images/picture_2.png,1,"[-11.733433509789466, -11.733433509789462]",-11.733433509789464,-11.733433509789462,images/picture_3.png,2,"[11.733433509789462, -11.733433509789466]",11.733433509789462,-11.733433509789464,0,1,1,0.5377693275683043,1.5377693275683044,1.4622306724316956,3,1,1.2877693275683044,0,6,0,6,0,0,3,3,8,,,,,,,,,,,,,,,,,,,,,200002,206,2023-03-21_16h31.15.221,DMS_BEST_eyetracking_DAN_base_12-36_looped_10minWORKING,2022.2.4,None,
62,PRED,12,0.5377693275683043,1,images/picture_2.png,images/picture_1.png,0,"[11.733433509789464, 11.733433509789462]",11.733433509789464,11.733433509789462,images/picture_2.png,1,"[-11.733433509789466, -11.733433509789462]",-11.733433509789464,-11.733433509789462,images/picture_3.png,2,"[11.733433509789462, -11.733433509789466]",11.733433509789462,-11.733433509789464,0,1,1,0.5377693275683043,1.5377693275683044,1.4622306724316956,3,1,1.2877693275683044,0,6,0,6,0,0,3,3,8,,,,,,,0.004855750012211502,449.47325279098004,449.47325279098004,450.4876031660242,450.77360270801,450.9873213750543,450.9873213750543,450.9873213750543,452.4543736659689,452.4543736659689,452.4543736659689,452.4543736659689,4.030146625009365,453.4539752500132,200002,206,2023-03-21_16h31.15.221,DMS_BEST_eyetracking_DAN_base_12-36_looped_10minWORKING,2022.2.4,None,
59,PRED,12,0.5292182499826871,1,images/picture_2.png,images/picture_1.png,0,"[-11.733433509789462, 11.733433509789464]",-11.733433509789462,11.733433509789464,images/picture_2.png,1,"[11.733433509789464, 11.733433509789462]",11.733433509789464,11.733433509789462,images/picture_3.png,2,"[-11.733433509789466, -11.733433509789462]",-11.733433509789464,-11.733433509789462,0,1,1,0.5292182499826871,1.5292182499826872,1.4707817500173128,3,1,1.2792182499826872,0,6,0,6,0,0,4,4,5,,,,,,,,,,,,,,,,,,,,,200002,206,2023-03-21_16h31.15.221,DMS_BEST_eyetracking_DAN_base_12-36_looped_10minWORKING,2022.2.4,None,
59,PRED,12,0.5292182499826871,1,images/picture_2.png,images/picture_1.png,0,"[-11.733433509789462, 11.733433509789464]",-11.733433509789462,11.733433509789464,images/picture_2.png,1,"[11.733433509789464, 11.733433509789462]",11.733433509789464,11.733433509789462,images/picture_3.png,2,"[-11.733433509789466, -11.733433509789462]",-11.733433509789464,-11.733433509789462,0,1,1,0.5292182499826871,1.5292182499826872,1.4707817500173128,3,1,1.2792182499826872,0,6,0,6,0,0,4,4,5,,,,,,,0.00191687501501292,453.4873797079781,453.4873797079781,454.4877448329935,454.7737403330393,455.0074465830112,455.0074465830112,455.0074465830112,456.48761466599535,456.48761466599535,456.48761466599535,456.48761466599535,3.9992562499828637,457.5072453330504,200002,206,2023-03-21_16h31.15.221,DMS_BEST_eyetracking_DAN_base_12-36_looped_10minWORKING,2022.2.4,None,
56,PRED,12,1.1651878999231124,1,images/picture_2.png,images/picture_1.png,0,"[11.733433509789462, -11.733433509789466]",11.733433509789462,-11.733433509789464,images/picture_2.png,1,"[11.733433509789464, 11.733433509789462]",11.733433509789464,11.733433509789462,images/picture_3.png,2,"[-11.733433509789466, -11.733433509789462]",-11.733433509789464,-11.733433509789462,0,1,1,1.1651878999231124,2.1651878999231124,0.8348121000768876,3,1,1.9151878999231124,0,6,0,6,0,0,5,5,2,,,,,,,,,,,,,,,,,,,,,200002,206,2023-03-21_16h31.15.221,DMS_BEST_eyetracking_DAN_base_12-36_looped_10minWORKING,2022.2.4,None,
56,PRED,12,1.1651878999231124,1,images/picture_2.png,images/picture_1.png,0,"[11.733433509789462, -11.733433509789466]",11.733433509789462,-11.733433509789464,images/picture_2.png,1,"[11.733433509789464, 11.733433509789462]",11.733433509789464,11.733433509789462,images/picture_3.png,2,"[-11.733433509789466, -11.733433509789462]",-11.733433509789464,-11.733433509789462,0,1,1,1.1651878999231124,2.1651878999231124,0.8348121000768876,3,1,1.9151878999231124,0,6,0,6,0,0,5,5,2,,,,,,,0.004914624965749681,457.5072453330504,457.5072453330504,458.5208737080684,459.42099104099907,459.6542969159782,459.6542969159782,459.6542969159782,460.4873804160161,460.4873804160161,460.4873804160161,460.4873804160161,4.02947420894634,461.4875951249851,200002,206,2023-03-21_16h31.15.221,DMS_BEST_eyetracking_DAN_base_12-36_looped_10minWORKING,2022.2.4,None,
58,PRED,12,0.5884805313096483,1,images/picture_2.png,images/picture_1.png,0,"[11.733433509789464, 11.733433509789462]",11.733433509789464,11.733433509789462,images/picture_2.png,1,"[-11.733433509789462, 11.733433509789464]",-11.733433509789462,11.733433509789464,images/picture_3.png,2,"[-11.733433509789466, -11.733433509789462]",-11.733433509789464,-11.733433509789462,0,1,1,0.5884805313096483,1.5884805313096484,1.4115194686903516,3,1,1.3384805313096484,0,6,0,6,0,0,6,6,4,,,,,,,,,,,,,,,,,,,,,200002,206,2023-03-21_16h31.15.221,DMS_BEST_eyetracking_DAN_base_12-36_looped_10minWORKING,2022.2.4,None,
58,PRED,12,0.5884805313096483,1,images/picture_2.png,images/picture_1.png,0,"[11.733433509789464, 11.733433509789462]",11.733433509789464,11.733433509789462,images/picture_2.png,1,"[-11.733433509789462, 11.733433509789464]",-11.733433509789462,11.733433509789464,images/picture_3.png,2,"[-11.733433509789466, -11.733433509789462]",-11.733433509789464,-11.733433509789462,0,1,1,0.5884805313096483,1.5884805313096484,1.4115194686903516,3,1,1.3384805313096484,0,6,0,6,0,0,6,6,4,,,,,,,0.00482837506569922,461.54042616602965,461.54042616602965,462.5543049160624,462.88733341603074,463.10654412501026,463.10654412501026,463.10654412501026,464.5207935409853,464.5207935409853,464.5207935409853,464.5207935409853,4.030574792064726,465.5210249579977,200002,206,2023-03-21_16h31.15.221,DMS_BEST_eyetracking_DAN_base_12-36_looped_10minWORKING,2022.2.4,None,
61,PRED,12,0.5270207682139862,1,images/picture_2.png,images/picture_1.png,0,"[11.733433509789462, -11.733433509789466]",11.733433509789462,-11.733433509789464,images/picture_2.png,1,"[-11.733433509789462, 11.733433509789464]",-11.733433509789462,11.733433509789464,images/picture_3.png,2,"[11.733433509789464, 11.733433509789462]",11.733433509789464,11.733433509789462,0,1,1,0.5270207682139862,1.5270207682139862,1.4729792317860138,3,1,1.2770207682139862,0,6,0,6,0,0,7,7,7,,,,,,,,,,,,,,,,,,,,,200002,206,2023-03-21_16h31.15.221,DMS_BEST_eyetracking_DAN_base_12-36_looped_10minWORKING,2022.2.4,None,
61,PRED,12,0.5270207682139862,1,images/picture_2.png,images/picture_1.png,0,"[11.733433509789462, -11.733433509789466]",11.733433509789462,-11.733433509789464,images/picture_2.png,1,"[-11.733433509789462, 11.733433509789464]",-11.733433509789462,11.733433509789464,images/picture_3.png,2,"[11.733433509789464, 11.733433509789462]",11.733433509789464,11.733433509789462,0,1,1,0.5270207682139862,1.5270207682139862,1.4729792317860138,3,1,1.2770207682139862,0,6,0,6,0,0,7,7,7,,,,,,,0.004914500052109361,465.5741084580077,465.5741084580077,466.58764887496363,466.8543127080193,467.0737377910409,467.0737377910409,467.0737377910409,468.55392070801463,468.55392070801463,468.55392070801463,468.55392070801463,4.029954458004795,469.5543393329717,200002,206,2023-03-21_16h31.15.221,DMS_BEST_eyetracking_DAN_base_12-36_looped_10minWORKING,2022.2.4,None,
60,PRED,12,0.6778676450603807,1,images/picture_2.png,images/picture_1.png,0,"[-11.733433509789462, 11.733433509789464]",-11.733433509789462,11.733433509789464,images/picture_2.png,1,"[-11.733433509789466, -11.733433509789462]",-11.733433509789464,-11.733433509789462,images/picture_3.png,2,"[11.733433509789464, 11.733433509789462]",11.733433509789464,11.733433509789462,0,1,1,0.6778676450603807,1.6778676450603809,1.3221323549396191,3,1,1.4278676450603809,0,6,0,6,0,0,8,8,6,,,,,,,,,,,,,,,,,,,,,200002,206,2023-03-21_16h31.15.221,DMS_BEST_eyetracking_DAN_base_12-36_looped_10minWORKING,2022.2.4,None,
60,PRED,12,0.6778676450603807,1,images/picture_2.png,images/picture_1.png,0,"[-11.733433509789462, 11.733433509789464]",-11.733433509789462,11.733433509789464,images/picture_2.png,1,"[-11.733433509789466, -11.733433509789462]",-11.733433509789464,-11.733433509789462,images/picture_3.png,2,"[11.733433509789464, 11.733433509789462]",11.733433509789464,11.733433509789462,0,1,1,0.6778676450603807,1.6778676450603809,1.3221323549396191,3,1,1.4278676450603809,0,6,0,6,0,0,8,8,6,,,,,,,0.004906542017124593,469.6067819580203,469.6067819580203,470.6208511249861,471.0401892079972,471.2540739160031,471.2540739160031,471.2540739160031,472.58758754096925,472.58758754096925,472.58758754096925,472.58758754096925,4.028637834009714,473.58730770798866,200002,206,2023-03-21_16h31.15.221,DMS_BEST_eyetracking_DAN_base_12-36_looped_10minWORKING,2022.2.4,None,
,,,,,,,,,,,,,,,,,,,,,,,,,,,,,,,6,0,6,0,,,,,,,,,473.7526535410434,485.77510537498165,,,,,,,,,,,,,,,200002,206,2023-03-21_16h31.15.221,DMS_BEST_eyetracking_DAN_base_12-36_looped_10minWORKING,2022.2.4,None,
68,UNPRED,12,1.0011166662488598,0,images/picture_1.png,images/picture_1.png,0,"[-11.733433509789466, -11.733433509789462]",-11.733433509789464,-11.733433509789462,images/picture_2.png,1,"[-11.733433509789462, 11.733433509789464]",-11.733433509789462,11.733433509789464,images/picture_3.png,2,"[11.733433509789462, -11.733433509789466]",11.733433509789462,-11.733433509789464,0,1,1,1.0011166662488598,2.00111666624886,0.9988833337511402,3,1,1.7511166662488598,0,7,0,7,0,0,0,0,5,,,,,,,,,,,,,,,,,,,,,200002,206,2023-03-21_16h31.15.221,DMS_BEST_eyetracking_DAN_base_12-36_looped_10minWORKING,2022.2.4,None,
68,UNPRED,12,1.0011166662488598,0,images/picture_1.png,images/picture_1.png,0,"[-11.733433509789466, -11.733433509789462]",-11.733433509789464,-11.733433509789462,images/picture_2.png,1,"[-11.733433509789462, 11.733433509789464]",-11.733433509789462,11.733433509789464,images/picture_3.png,2,"[11.733433509789462, -11.733433509789466]",11.733433509789462,-11.733433509789464,0,1,1,1.0011166662488598,2.00111666624886,0.9988833337511402,3,1,1.7511166662488598,0,7,0,7,0,0,0,0,5,,,,,,,0.004186874954029918,485.77510537498165,485.77510537498165,486.7875789999962,487.5401358329691,487.7737472910667,487.7737472910667,487.7737472910667,488.78753175004385,488.78753175004385,488.78753175004385,488.77368312503677,4.010328457923606,489.8068189159967,200002,206,2023-03-21_16h31.15.221,DMS_BEST_eyetracking_DAN_base_12-36_looped_10minWORKING,2022.2.4,None,
63,UNPRED,12,1.0926141192134622,1,images/picture_2.png,images/picture_1.png,0,"[-11.733433509789462, 11.733433509789464]",-11.733433509789462,11.733433509789464,images/picture_2.png,1,"[-11.733433509789466, -11.733433509789462]",-11.733433509789464,-11.733433509789462,images/picture_3.png,2,"[11.733433509789462, -11.733433509789466]",11.733433509789462,-11.733433509789464,0,1,1,1.0926141192134622,2.0926141192134624,0.9073858807865378,3,1,1.8426141192134624,0,7,0,7,0,0,1,1,0,,,,,,,,,,,,,,,,,,,,,200002,206,2023-03-21_16h31.15.221,DMS_BEST_eyetracking_DAN_base_12-36_looped_10minWORKING,2022.2.4,None,
63,UNPRED,12,1.0926141192134622,1,images/picture_2.png,images/picture_1.png,0,"[-11.733433509789462, 11.733433509789464]",-11.733433509789462,11.733433509789464,images/picture_2.png,1,"[-11.733433509789466, -11.733433509789462]",-11.733433509789464,-11.733433509789462,images/picture_3.png,2,"[11.733433509789462, -11.733433509789466]",11.733433509789462,-11.733433509789464,0,1,1,1.0926141192134622,2.0926141192134624,0.9073858807865378,3,1,1.8426141192134624,0,7,0,7,0,0,1,1,0,,,,,,,0.006272542057558894,489.8068189159967,489.8068189159967,490.8210753330495,491.6543253749842,491.8735402500024,491.8735402500024,491.8735402500024,492.7874934580177,492.7874934580177,492.7874934580177,492.7874934580177,4.028975542052649,493.7873422499979,200002,206,2023-03-21_16h31.15.221,DMS_BEST_eyetracking_DAN_base_12-36_looped_10minWORKING,2022.2.4,None,
69,UNPRED,12,0.8474607264462956,2,images/picture_3.png,images/picture_1.png,0,"[11.733433509789464, 11.733433509789462]",11.733433509789464,11.733433509789462,images/picture_2.png,1,"[11.733433509789462, -11.733433509789466]",11.733433509789462,-11.733433509789464,images/picture_3.png,2,"[-11.733433509789466, -11.733433509789462]",-11.733433509789464,-11.733433509789462,0,1,1,0.8474607264462956,1.8474607264462957,1.1525392735537046,3,1,1.5974607264462954,0,7,0,7,0,0,2,2,6,,,,,,,,,,,,,,,,,,,,,200002,206,2023-03-21_16h31.15.221,DMS_BEST_eyetracking_DAN_base_12-36_looped_10minWORKING,2022.2.4,None,
69,UNPRED,12,0.8474607264462956,2,images/picture_3.png,images/picture_1.png,0,"[11.733433509789464, 11.733433509789462]",11.733433509789464,11.733433509789462,images/picture_2.png,1,"[11.733433509789462, -11.733433509789466]",11.733433509789462,-11.733433509789464,images/picture_3.png,2,"[-11.733433509789466, -11.733433509789462]",-11.733433509789464,-11.733433509789462,0,1,1,0.8474607264462956,1.8474607264462957,1.1525392735537046,3,1,1.5974607264462954,0,7,0,7,0,0,2,2,6,,,,,,,0.0018762910040095448,493.8202409580117,493.8202409580117,494.8207562910393,495.42078441602644,495.65404141601175,495.65404141601175,495.65404141601175,496.8211595410248,496.8211595410248,496.8211595410248,496.8211595410248,3.997639665962197,497.84028066601604,200002,206,2023-03-21_16h31.15.221,DMS_BEST_eyetracking_DAN_base_12-36_looped_10minWORKING,2022.2.4,None,
70,UNPRED,12,0.7637848779515144,1,images/picture_2.png,images/picture_1.png,0,"[-11.733433509789466, -11.733433509789462]",-11.733433509789464,-11.733433509789462,images/picture_2.png,1,"[-11.733433509789462, 11.733433509789464]",-11.733433509789462,11.733433509789464,images/picture_3.png,2,"[11.733433509789462, -11.733433509789466]",11.733433509789462,-11.733433509789464,0,1,1,0.7637848779515144,1.7637848779515144,1.2362151220484856,3,1,1.5137848779515144,0,7,0,7,0,0,3,3,7,,,,,,,,,,,,,,,,,,,,,200002,206,2023-03-21_16h31.15.221,DMS_BEST_eyetracking_DAN_base_12-36_looped_10minWORKING,2022.2.4,None,
70,UNPRED,12,0.7637848779515144,1,images/picture_2.png,images/picture_1.png,0,"[-11.733433509789466, -11.733433509789462]",-11.733433509789464,-11.733433509789462,images/picture_2.png,1,"[-11.733433509789462, 11.733433509789464]",-11.733433509789462,11.733433509789464,images/picture_3.png,2,"[11.733433509789462, -11.733433509789466]",11.733433509789462,-11.733433509789464,0,1,1,0.7637848779515144,1.7637848779515144,1.2362151220484856,3,1,1.5137848779515144,0,7,0,7,0,0,3,3,7,,,,,,,0.0049872089875862,497.84028066601604,497.84028066601604,498.8539732909994,499.3542385000037,499.58735945797525,499.58735945797525,499.58735945797525,500.82109433296137,500.82109433296137,500.82109433296137,500.82109433296137,4.028781249886379,501.82107083301526,200002,206,2023-03-21_16h31.15.221,DMS_BEST_eyetracking_DAN_base_12-36_looped_10minWORKING,2022.2.4,None,
