trial_count,blockType,blockNum,delay_time,stimImage_i,stimImage,responseImage1,responseImage1_i,responseImage1_pos,responseImage1_X,responseImage1_Y,responseImage2,responseImage2_i,responseImage2_pos,responseImage2_X,responseImage2_Y,responseImage3,responseImage3_i,responseImage3_pos,responseImage3_X,responseImage3_Y,cue_onset,cue_dur,delay_onset,delay_dur,resp_onset,resp_dur,rest_onset,rest_dur,circle_dur,circle_onset,total_dur,cross_onset,cross_dur,delay_resp_period,blocks.thisRepN,blocks.thisTrialN,blocks.thisN,blocks.thisIndex,trials.thisRepN,trials.thisTrialN,trials.thisN,trials.thisIndex,key_resp.started,text.started,key_resp.keys,key_resp.rt,text_2.started,text_2.stopped,sample.started,Delay.started,sample.stopped,Delay.stopped,Response_1.started,Response_2.started,Response_3.started,polygon.started,Response_1.stopped,Response_2.stopped,Response_3.stopped,polygon.stopped,participant,session,date,expName,psychopyVersion,frameRate,
,,,,,,,,,,,,,,,,,,,,,,,,,,,,,,,,,,,,,,,,,,,88.78437741598464,88.78437741598464,t,74.47001129097771,,,,,,,,,,,,,,,200008,005,2023-04-14_11h23.11.694,DMS_et_12-36,2022.2.4,None,
5,PRED,12,0.5780270875942474,2,images/picture_3.png,images/picture_1.png,0,"[-11.733433509789462, 11.733433509789464]",-11.733433509789462,11.733433509789464,images/picture_2.png,1,"[11.733433509789464, 11.733433509789462]",11.733433509789464,11.733433509789462,images/picture_3.png,2,"[11.733433509789462, -11.733433509789466]",11.733433509789462,-11.733433509789464,0,1,1,0.5780270875942474,1.5780270875942477,1.4219729124057523,3.0,1,1.3280270875942477,0,4.0,3.0,1,2,0,0,0,0,0,0,0,5,,,,,163.77255674998742,175.81845383299515,175.81845383299515,175.81845383299515,176.81700079099392,177.15042270798585,177.3837085829873,177.3837085829873,177.3837085829873,178.80310575000476,178.81705258300644,178.81705258300644,178.81705258300644,179.83582708300673,200008,005,2023-04-14_11h23.11.694,DMS_et_12-36,2022.2.4,None,
4,PRED,12,0.5780270875942474,2,images/picture_3.png,images/picture_1.png,0,"[-11.733433509789466, -11.733433509789462]",-11.733433509789464,-11.733433509789462,images/picture_2.png,1,"[11.733433509789464, 11.733433509789462]",11.733433509789464,11.733433509789462,images/picture_3.png,2,"[11.733433509789462, -11.733433509789466]",11.733433509789462,-11.733433509789464,0,1,1,0.5780270875942474,1.5780270875942477,1.4219729124057523,3.0,1,1.3280270875942477,0,4.0,3.0,1,2,0,0,0,0,0,1,1,4,,,,,,,179.83582708300673,179.83582708300673,180.8500650409842,181.16889666600036,181.38344533299096,181.38344533299096,181.38344533299096,182.81719595799223,182.81719595799223,182.81719595799223,182.81719595799223,183.83567062500515,200008,005,2023-04-14_11h23.11.694,DMS_et_12-36,2022.2.4,None,
3,PRED,12,0.5780270875942474,2,images/picture_3.png,images/picture_1.png,0,"[-11.733433509789466, -11.733433509789462]",-11.733433509789464,-11.733433509789462,images/picture_2.png,1,"[-11.733433509789462, 11.733433509789464]",-11.733433509789462,11.733433509789464,images/picture_3.png,2,"[11.733433509789464, 11.733433509789462]",11.733433509789464,11.733433509789462,0,1,1,0.5780270875942474,1.5780270875942477,1.4219729124057523,3.0,1,1.3280270875942477,0,4.0,3.0,1,2,0,0,0,0,0,2,2,3,,,,,,,183.83567062500515,183.83567062500515,184.85043200000655,185.1703565409989,185.383706624998,185.383706624998,185.383706624998,186.81718104099855,186.81718104099855,186.81718104099855,186.81718104099855,187.83581299998332,200008,005,2023-04-14_11h23.11.694,DMS_et_12-36,2022.2.4,None,
8,PRED,12,0.5780270875942474,2,images/picture_3.png,images/picture_1.png,0,"[-11.733433509789462, 11.733433509789464]",-11.733433509789462,11.733433509789464,images/picture_2.png,1,"[11.733433509789462, -11.733433509789466]",11.733433509789462,-11.733433509789464,images/picture_3.png,2,"[11.733433509789464, 11.733433509789462]",11.733433509789464,11.733433509789462,0,1,1,0.5780270875942474,1.5780270875942477,1.4219729124057523,3.0,1,1.3280270875942477,0,4.0,3.0,1,2,0,0,0,0,0,3,3,8,,,,,,,187.83581299998332,187.83581299998332,188.8504793329921,189.17015345799155,189.383724290994,189.383724290994,189.383724290994,190.81696983298752,190.81696983298752,190.81696983298752,190.81696983298752,191.8361982909846,200008,005,2023-04-14_11h23.11.694,DMS_et_12-36,2022.2.4,None,
2,PRED,12,0.5780270875942474,2,images/picture_3.png,images/picture_1.png,0,"[11.733433509789464, 11.733433509789462]",11.733433509789464,11.733433509789462,images/picture_2.png,1,"[-11.733433509789462, 11.733433509789464]",-11.733433509789462,11.733433509789464,images/picture_3.png,2,"[-11.733433509789466, -11.733433509789462]",-11.733433509789464,-11.733433509789462,0,1,1,0.5780270875942474,1.5780270875942477,1.4219729124057523,3.0,1,1.3280270875942477,0,4.0,3.0,1,2,0,0,0,0,0,4,4,2,,,,,,,191.8361982909846,191.8361982909846,192.8504243750067,193.17437554098433,193.38374041600036,193.38374041600036,193.38374041600036,194.81708108299063,194.81708108299063,194.81708108299063,194.81708108299063,195.83640608299174,200008,005,2023-04-14_11h23.11.694,DMS_et_12-36,2022.2.4,None,
0,PRED,12,0.5780270875942474,2,images/picture_3.png,images/picture_1.png,0,"[-11.733433509789462, 11.733433509789464]",-11.733433509789462,11.733433509789464,images/picture_2.png,1,"[11.733433509789464, 11.733433509789462]",11.733433509789464,11.733433509789462,images/picture_3.png,2,"[11.733433509789462, -11.733433509789466]",11.733433509789462,-11.733433509789464,0,1,1,0.5780270875942474,1.5780270875942477,1.4219729124057523,3.0,1,1.3280270875942477,0,4.0,3.0,1,2,0,0,0,0,0,5,5,0,,,,,,,195.83640608299174,195.83640608299174,196.85052320800605,197.17060612500063,197.38369387498824,197.38369387498824,197.38369387498824,198.81706370800384,198.81706370800384,198.81706370800384,198.81706370800384,199.83584937499836,200008,005,2023-04-14_11h23.11.694,DMS_et_12-36,2022.2.4,None,
7,PRED,12,0.5780270875942474,2,images/picture_3.png,images/picture_1.png,0,"[11.733433509789464, 11.733433509789462]",11.733433509789464,11.733433509789462,images/picture_2.png,1,"[-11.733433509789462, 11.733433509789464]",-11.733433509789462,11.733433509789464,images/picture_3.png,2,"[-11.733433509789466, -11.733433509789462]",-11.733433509789464,-11.733433509789462,0,1,1,0.5780270875942474,1.5780270875942477,1.4219729124057523,3.0,1,1.3280270875942477,0,4.0,3.0,1,2,0,0,0,0,0,6,6,7,,,,,,,199.83584937499836,199.83584937499836,200.85044629100594,201.16993987499154,201.38348550000228,201.38348550000228,201.38348550000228,202.81697524999618,202.81697524999618,202.81697524999618,202.81697524999618,203.83633166598156,200008,005,2023-04-14_11h23.11.694,DMS_et_12-36,2022.2.4,None,
6,PRED,12,0.5780270875942474,2,images/picture_3.png,images/picture_1.png,0,"[11.733433509789464, 11.733433509789462]",11.733433509789464,11.733433509789462,images/picture_2.png,1,"[-11.733433509789462, 11.733433509789464]",-11.733433509789462,11.733433509789464,images/picture_3.png,2,"[11.733433509789462, -11.733433509789466]",11.733433509789462,-11.733433509789464,0,1,1,0.5780270875942474,1.5780270875942477,1.4219729124057523,3.0,1,1.3280270875942477,0,4.0,3.0,1,2,0,0,0,0,0,7,7,6,,,,,,,203.83633166598156,203.83633166598156,204.8502608749841,205.16987541600247,205.38369470799807,205.38369470799807,205.38369470799807,206.8172367500083,206.8172367500083,206.8172367500083,206.8172367500083,207.83587520799483,200008,005,2023-04-14_11h23.11.694,DMS_et_12-36,2022.2.4,None,
1,PRED,12,0.5780270875942474,2,images/picture_3.png,images/picture_1.png,0,"[11.733433509789464, 11.733433509789462]",11.733433509789464,11.733433509789462,images/picture_2.png,1,"[-11.733433509789466, -11.733433509789462]",-11.733433509789464,-11.733433509789462,images/picture_3.png,2,"[-11.733433509789462, 11.733433509789464]",-11.733433509789462,11.733433509789464,0,1,1,0.5780270875942474,1.5780270875942477,1.4219729124057523,3.0,1,1.3280270875942477,0,4.0,3.0,1,2,0,0,0,0,0,8,8,1,,,,,,,207.83587520799483,207.83587520799483,208.85047383300844,209.17006208299426,209.38373545798822,209.38373545798822,209.38373545798822,210.81700570799876,210.81700570799876,210.81700570799876,210.81700570799876,211.83622299999115,200008,005,2023-04-14_11h23.11.694,DMS_et_12-36,2022.2.4,None,
,,,,,,,,,,,,,,,,,,,,,,,,,,,,,,,,,,,0,0,0,0,,,,,,,,,211.83622299999115,223.86930525000207,,,,,,,,,,,,,200008,005,2023-04-14_11h23.11.694,DMS_et_12-36,2022.2.4,None,
9,UNPRED,12,0.5780270875942474,0,images/picture_1.png,images/picture_1.png,0,"[11.733433509789462, -11.733433509789466]",11.733433509789462,-11.733433509789464,images/picture_2.png,1,"[-11.733433509789466, -11.733433509789462]",-11.733433509789464,-11.733433509789462,images/picture_3.png,2,"[-11.733433509789462, 11.733433509789464]",-11.733433509789462,11.733433509789464,0,1,1,0.5780270875942474,1.5780270875942477,1.4219729124057523,3.0,1,1.3280270875942477,0,4.0,3.0,1,2,1,0,1,0,0,0,0,0,,,,,,,223.86930525000207,223.86930525000207,224.88377899999614,225.20335337499273,225.4368132079835,225.4368132079835,225.4368132079835,226.8700821659877,226.8700821659877,226.8700821659877,226.8700821659877,227.88320687500527,200008,005,2023-04-14_11h23.11.694,DMS_et_12-36,2022.2.4,None,
12,UNPRED,12,0.5780270875942474,0,images/picture_1.png,images/picture_1.png,0,"[-11.733433509789462, 11.733433509789464]",-11.733433509789462,11.733433509789464,images/picture_2.png,1,"[11.733433509789462, -11.733433509789466]",11.733433509789462,-11.733433509789464,images/picture_3.png,2,"[-11.733433509789466, -11.733433509789462]",-11.733433509789464,-11.733433509789462,0,1,1,0.5780270875942474,1.5780270875942477,1.4219729124057523,3.0,1,1.3280270875942477,0,4.0,3.0,1,2,1,0,1,0,0,1,1,3,,,,,,,227.88320687500527,227.88320687500527,228.88382812499185,229.21706404100405,229.45040733300266,229.45040733300266,229.45040733300266,230.8838507909968,230.8838507909968,230.8838507909968,230.8838507909968,231.9029002909956,200008,005,2023-04-14_11h23.11.694,DMS_et_12-36,2022.2.4,None,
17,UNPRED,12,0.5780270875942474,2,images/picture_3.png,images/picture_1.png,0,"[-11.733433509789462, 11.733433509789464]",-11.733433509789462,11.733433509789464,images/picture_2.png,1,"[11.733433509789462, -11.733433509789466]",11.733433509789462,-11.733433509789464,images/picture_3.png,2,"[-11.733433509789466, -11.733433509789462]",-11.733433509789464,-11.733433509789462,0,1,1,0.5780270875942474,1.5780270875942477,1.4219729124057523,3.0,1,1.3280270875942477,0,4.0,3.0,1,2,1,0,1,0,0,2,2,8,,,,,,,231.9029002909956,231.9029002909956,232.91699679099838,233.23609154098085,233.45044291598606,233.45044291598606,233.45044291598606,234.88392229098827,234.88392229098827,234.88392229098827,234.88392229098827,235.9032736659865,200008,005,2023-04-14_11h23.11.694,DMS_et_12-36,2022.2.4,None,
15,UNPRED,12,0.5780270875942474,2,images/picture_3.png,images/picture_1.png,0,"[-11.733433509789466, -11.733433509789462]",-11.733433509789464,-11.733433509789462,images/picture_2.png,1,"[11.733433509789464, 11.733433509789462]",11.733433509789464,11.733433509789462,images/picture_3.png,2,"[11.733433509789462, -11.733433509789466]",11.733433509789462,-11.733433509789464,0,1,1,0.5780270875942474,1.5780270875942477,1.4219729124057523,3.0,1,1.3280270875942477,0,4.0,3.0,1,2,1,0,1,0,0,3,3,6,,,,,,,235.9032736659865,235.9032736659865,236.9172676659946,237.23653333299444,237.45071537498734,237.45071537498734,237.45071537498734,238.88397787499707,238.88397787499707,238.88397787499707,238.88397787499707,239.90276487500523,200008,005,2023-04-14_11h23.11.694,DMS_et_12-36,2022.2.4,None,
16,UNPRED,12,0.5780270875942474,2,images/picture_3.png,images/picture_1.png,0,"[-11.733433509789466, -11.733433509789462]",-11.733433509789464,-11.733433509789462,images/picture_2.png,1,"[11.733433509789464, 11.733433509789462]",11.733433509789464,11.733433509789462,images/picture_3.png,2,"[11.733433509789462, -11.733433509789466]",11.733433509789462,-11.733433509789464,0,1,1,0.5780270875942474,1.5780270875942477,1.4219729124057523,3.0,1,1.3280270875942477,0,4.0,3.0,1,2,1,0,1,0,0,4,4,7,,,,,,,239.90276487500523,239.90276487500523,240.9171975000063,241.23648637498263,241.4507477080042,241.4507477080042,241.4507477080042,242.88358179098577,242.88358179098577,242.88358179098577,242.88358179098577,243.88346266598091,200008,005,2023-04-14_11h23.11.694,DMS_et_12-36,2022.2.4,None,
11,UNPRED,12,0.5780270875942474,0,images/picture_1.png,images/picture_1.png,0,"[11.733433509789464, 11.733433509789462]",11.733433509789464,11.733433509789462,images/picture_2.png,1,"[-11.733433509789462, 11.733433509789464]",-11.733433509789462,11.733433509789464,images/picture_3.png,2,"[11.733433509789462, -11.733433509789466]",11.733433509789462,-11.733433509789464,0,1,1,0.5780270875942474,1.5780270875942477,1.4219729124057523,3.0,1,1.3280270875942477,0,4.0,3.0,1,2,1,0,1,0,0,5,5,2,,,,,,,243.88346266598091,243.88346266598091,244.88372437498765,245.21712983300677,245.45048279099865,245.45048279099865,245.45048279099865,246.8839511660044,246.8839511660044,246.8839511660044,246.8839511660044,247.8847912909987,200008,005,2023-04-14_11h23.11.694,DMS_et_12-36,2022.2.4,None,
13,UNPRED,12,0.5780270875942474,1,images/picture_2.png,images/picture_1.png,0,"[11.733433509789462, -11.733433509789466]",11.733433509789462,-11.733433509789464,images/picture_2.png,1,"[-11.733433509789466, -11.733433509789462]",-11.733433509789464,-11.733433509789462,images/picture_3.png,2,"[11.733433509789464, 11.733433509789462]",11.733433509789464,11.733433509789462,0,1,1,0.5780270875942474,1.5780270875942477,1.4219729124057523,3.0,1,1.3280270875942477,0,4.0,3.0,1,2,1,0,1,0,0,6,6,4,,,,,,,247.8847912909987,247.8847912909987,248.883929832984,249.21717550000176,249.45043320799596,249.45043320799596,249.45043320799596,250.8839315410005,250.8839315410005,250.8839315410005,250.8839315410005,251.8833759999834,200008,005,2023-04-14_11h23.11.694,DMS_et_12-36,2022.2.4,None,
10,UNPRED,12,0.5780270875942474,0,images/picture_1.png,images/picture_1.png,0,"[11.733433509789462, -11.733433509789466]",11.733433509789462,-11.733433509789464,images/picture_2.png,1,"[-11.733433509789462, 11.733433509789464]",-11.733433509789462,11.733433509789464,images/picture_3.png,2,"[-11.733433509789466, -11.733433509789462]",-11.733433509789464,-11.733433509789462,0,1,1,0.5780270875942474,1.5780270875942477,1.4219729124057523,3.0,1,1.3280270875942477,0,4.0,3.0,1,2,1,0,1,0,0,7,7,1,,,,,,,251.8833759999834,251.8833759999834,252.88371175000793,253.2169151249982,253.4502093330084,253.4502093330084,253.4502093330084,254.88391249999404,254.88391249999404,254.88391249999404,254.88391249999404,255.8832957079867,200008,005,2023-04-14_11h23.11.694,DMS_et_12-36,2022.2.4,None,
14,UNPRED,12,0.5780270875942474,0,images/picture_1.png,images/picture_1.png,0,"[11.733433509789462, -11.733433509789466]",11.733433509789462,-11.733433509789464,images/picture_2.png,1,"[11.733433509789464, 11.733433509789462]",11.733433509789464,11.733433509789462,images/picture_3.png,2,"[-11.733433509789462, 11.733433509789464]",-11.733433509789462,11.733433509789464,0,1,1,0.5780270875942474,1.5780270875942477,1.4219729124057523,3.0,1,1.3280270875942477,0,4.0,3.0,1,2,1,0,1,0,0,8,8,5,,,,,,,255.8832957079867,255.8832957079867,256.8839213330066,257.2171640410088,257.4504504579818,257.4504504579818,257.4504504579818,258.8838984159811,258.8838984159811,258.8838984159811,258.8838984159811,259.91480679099914,200008,005,2023-04-14_11h23.11.694,DMS_et_12-36,2022.2.4,None,
,,,,,,,,,,,,,,,,,,,,,,,,,,,,,,,,,,,1,0,1,0,,,,,,,,,259.91480679099914,271.936274415988,,,,,,,,,,,,,200008,005,2023-04-14_11h23.11.694,DMS_et_12-36,2022.2.4,None,
19,PRED,12,0.5780270875942474,0,images/picture_1.png,images/picture_1.png,0,"[11.733433509789462, -11.733433509789466]",11.733433509789462,-11.733433509789464,images/picture_2.png,1,"[-11.733433509789462, 11.733433509789464]",-11.733433509789462,11.733433509789464,images/picture_3.png,2,"[-11.733433509789466, -11.733433509789462]",-11.733433509789464,-11.733433509789462,0,1,1,0.5780270875942474,1.5780270875942477,1.4219729124057523,3.0,1,1.3280270875942477,0,4.0,3.0,1,2,2,0,2,0,0,0,0,1,,,,,,,271.936274415988,271.936274415988,272.9506030000048,273.26922420799383,273.51692145800916,273.51692145800916,273.51692145800916,274.93734224999207,274.95049608300906,274.95049608300906,274.95049608300906,275.95002008299343,200008,005,2023-04-14_11h23.11.694,DMS_et_12-36,2022.2.4,None,
22,PRED,12,0.5780270875942474,0,images/picture_1.png,images/picture_1.png,0,"[11.733433509789464, 11.733433509789462]",11.733433509789464,11.733433509789462,images/picture_2.png,1,"[-11.733433509789462, 11.733433509789464]",-11.733433509789462,11.733433509789464,images/picture_3.png,2,"[-11.733433509789466, -11.733433509789462]",-11.733433509789464,-11.733433509789462,0,1,1,0.5780270875942474,1.5780270875942477,1.4219729124057523,3.0,1,1.3280270875942477,0,4.0,3.0,1,2,2,0,2,0,0,1,1,4,,,,,,,275.95002008299343,275.95002008299343,276.9507030409877,277.28403012498165,277.51717508299043,277.51717508299043,277.51717508299043,278.9506635410071,278.9506635410071,278.9506635410071,278.9506635410071,279.95034824998584,200008,005,2023-04-14_11h23.11.694,DMS_et_12-36,2022.2.4,None,
20,PRED,12,0.5780270875942474,0,images/picture_1.png,images/picture_1.png,0,"[11.733433509789462, -11.733433509789466]",11.733433509789462,-11.733433509789464,images/picture_2.png,1,"[-11.733433509789466, -11.733433509789462]",-11.733433509789464,-11.733433509789462,images/picture_3.png,2,"[11.733433509789464, 11.733433509789462]",11.733433509789464,11.733433509789462,0,1,1,0.5780270875942474,1.5780270875942477,1.4219729124057523,3.0,1,1.3280270875942477,0,4.0,3.0,1,2,2,0,2,0,0,2,2,2,,,,,,,279.95034824998584,279.95034824998584,280.9507172910089,281.2838999579835,281.5172270409821,281.5172270409821,281.5172270409821,282.9506404160056,282.9506404160056,282.9506404160056,282.9506404160056,283.95039933299995,200008,005,2023-04-14_11h23.11.694,DMS_et_12-36,2022.2.4,None,
25,PRED,12,0.5780270875942474,0,images/picture_1.png,images/picture_1.png,0,"[-11.733433509789462, 11.733433509789464]",-11.733433509789462,11.733433509789464,images/picture_2.png,1,"[-11.733433509789466, -11.733433509789462]",-11.733433509789464,-11.733433509789462,images/picture_3.png,2,"[11.733433509789462, -11.733433509789466]",11.733433509789462,-11.733433509789464,0,1,1,0.5780270875942474,1.5780270875942477,1.4219729124057523,3.0,1,1.3280270875942477,0,4.0,3.0,1,2,2,0,2,0,0,3,3,7,,,,,,,283.95039933299995,283.95039933299995,284.95065949999844,285.2839528330078,285.5172165829863,285.5172165829863,285.5172165829863,286.9506349579897,286.9506349579897,286.9506349579897,286.9506349579897,287.9503239580081,200008,005,2023-04-14_11h23.11.694,DMS_et_12-36,2022.2.4,None,
26,PRED,12,0.5780270875942474,0,images/picture_1.png,images/picture_1.png,0,"[-11.733433509789462, 11.733433509789464]",-11.733433509789462,11.733433509789464,images/picture_2.png,1,"[-11.733433509789466, -11.733433509789462]",-11.733433509789464,-11.733433509789462,images/picture_3.png,2,"[11.733433509789462, -11.733433509789466]",11.733433509789462,-11.733433509789464,0,1,1,0.5780270875942474,1.5780270875942477,1.4219729124057523,3.0,1,1.3280270875942477,0,4.0,3.0,1,2,2,0,2,0,0,4,4,8,,,,,,,287.9503239580081,287.9503239580081,288.9506821660034,289.2837548329844,289.5171846250014,289.5171846250014,289.5171846250014,290.95076133299153,290.95076133299153,290.95076133299153,290.95076133299153,291.9500847499876,200008,005,2023-04-14_11h23.11.694,DMS_et_12-36,2022.2.4,None,
24,PRED,12,0.5780270875942474,0,images/picture_1.png,images/picture_1.png,0,"[-11.733433509789466, -11.733433509789462]",-11.733433509789464,-11.733433509789462,images/picture_2.png,1,"[11.733433509789462, -11.733433509789466]",11.733433509789462,-11.733433509789464,images/picture_3.png,2,"[-11.733433509789462, 11.733433509789464]",-11.733433509789462,11.733433509789464,0,1,1,0.5780270875942474,1.5780270875942477,1.4219729124057523,3.0,1,1.3280270875942477,0,4.0,3.0,1,2,2,0,2,0,0,5,5,6,,,,,,,291.9500847499876,291.9500847499876,292.95072550000623,293.2839495409862,293.5170298329904,293.5170298329904,293.5170298329904,294.9507515830046,294.9507515830046,294.9507515830046,294.9507515830046,295.95004895798047,200008,005,2023-04-14_11h23.11.694,DMS_et_12-36,2022.2.4,None,
18,PRED,12,0.5780270875942474,0,images/picture_1.png,images/picture_1.png,0,"[11.733433509789464, 11.733433509789462]",11.733433509789464,11.733433509789462,images/picture_2.png,1,"[-11.733433509789462, 11.733433509789464]",-11.733433509789462,11.733433509789464,images/picture_3.png,2,"[-11.733433509789466, -11.733433509789462]",-11.733433509789464,-11.733433509789462,0,1,1,0.5780270875942474,1.5780270875942477,1.4219729124057523,3.0,1,1.3280270875942477,0,4.0,3.0,1,2,2,0,2,0,0,6,6,0,,,,,,,295.95004895798047,295.95004895798047,296.95069508298184,297.28395470799296,297.51720149998437,297.51720149998437,297.51720149998437,298.9506824160053,298.9506824160053,298.9506824160053,298.9506824160053,299.9500265829847,200008,005,2023-04-14_11h23.11.694,DMS_et_12-36,2022.2.4,None,
21,PRED,12,0.5780270875942474,0,images/picture_1.png,images/picture_1.png,0,"[-11.733433509789462, 11.733433509789464]",-11.733433509789462,11.733433509789464,images/picture_2.png,1,"[-11.733433509789466, -11.733433509789462]",-11.733433509789464,-11.733433509789462,images/picture_3.png,2,"[11.733433509789462, -11.733433509789466]",11.733433509789462,-11.733433509789464,0,1,1,0.5780270875942474,1.5780270875942477,1.4219729124057523,3.0,1,1.3280270875942477,0,4.0,3.0,1,2,2,0,2,0,0,7,7,3,,,,,,,299.9500265829847,299.9500265829847,300.95071616600035,301.283741791005,301.5171874999942,301.5171874999942,301.5171874999942,302.9506947080081,302.9506947080081,302.9506947080081,302.9506947080081,303.9504484999925,200008,005,2023-04-14_11h23.11.694,DMS_et_12-36,2022.2.4,None,
23,PRED,12,0.5780270875942474,0,images/picture_1.png,images/picture_1.png,0,"[11.733433509789462, -11.733433509789466]",11.733433509789462,-11.733433509789464,images/picture_2.png,1,"[11.733433509789464, 11.733433509789462]",11.733433509789464,11.733433509789462,images/picture_3.png,2,"[-11.733433509789462, 11.733433509789464]",-11.733433509789462,11.733433509789464,0,1,1,0.5780270875942474,1.5780270875942477,1.4219729124057523,3.0,1,1.3280270875942477,0,4.0,3.0,1,2,2,0,2,0,0,8,8,5,,,,,,,303.9504484999925,303.9504484999925,304.95106870800373,305.28426424998906,305.5172934999864,305.5172934999864,305.5172934999864,306.95064070800436,306.95064070800436,306.95064070800436,306.95064070800436,307.9917096249992,200008,005,2023-04-14_11h23.11.694,DMS_et_12-36,2022.2.4,None,
,,,,,,,,,,,,,,,,,,,,,,,,,,,,,,,,,,,2,0,2,0,,,,,,,,,307.9917096249992,320.015018999984,,,,,,,,,,,,,200008,005,2023-04-14_11h23.11.694,DMS_et_12-36,2022.2.4,None,
35,UNPRED,12,0.5780270875942474,0,images/picture_1.png,images/picture_1.png,0,"[11.733433509789464, 11.733433509789462]",11.733433509789464,11.733433509789462,images/picture_2.png,1,"[-11.733433509789462, 11.733433509789464]",-11.733433509789462,11.733433509789464,images/picture_3.png,2,"[-11.733433509789466, -11.733433509789462]",-11.733433509789464,-11.733433509789462,0,1,1,0.5780270875942474,1.5780270875942477,1.4219729124057523,3.0,1,1.3280270875942477,0,4.0,3.0,1,2,3,0,3,0,0,0,0,8,,,,,,,320.015018999984,320.015018999984,321.01700779100065,321.3505519159953,321.5836770829919,321.5836770829919,321.5836770829919,323.0169866659853,323.0169866659853,323.0169866659853,323.0169866659853,324.01678549998906,200008,005,2023-04-14_11h23.11.694,DMS_et_12-36,2022.2.4,None,
27,UNPRED,12,0.5780270875942474,0,images/picture_1.png,images/picture_1.png,0,"[11.733433509789464, 11.733433509789462]",11.733433509789464,11.733433509789462,images/picture_2.png,1,"[11.733433509789462, -11.733433509789466]",11.733433509789462,-11.733433509789464,images/picture_3.png,2,"[-11.733433509789462, 11.733433509789464]",-11.733433509789462,11.733433509789464,0,1,1,0.5780270875942474,1.5780270875942477,1.4219729124057523,3.0,1,1.3280270875942477,0,4.0,3.0,1,2,3,0,3,0,0,1,1,0,,,,,,,324.01678549998906,324.01678549998906,325.0168056249968,325.35025379099534,325.5838939579844,325.5838939579844,325.5838939579844,327.0171467909822,327.0171467909822,327.0171467909822,327.0171467909822,328.0166052499844,200008,005,2023-04-14_11h23.11.694,DMS_et_12-36,2022.2.4,None,
33,UNPRED,12,0.5780270875942474,0,images/picture_1.png,images/picture_1.png,0,"[-11.733433509789462, 11.733433509789464]",-11.733433509789462,11.733433509789464,images/picture_2.png,1,"[-11.733433509789466, -11.733433509789462]",-11.733433509789464,-11.733433509789462,images/picture_3.png,2,"[11.733433509789464, 11.733433509789462]",11.733433509789464,11.733433509789462,0,1,1,0.5780270875942474,1.5780270875942477,1.4219729124057523,3.0,1,1.3280270875942477,0,4.0,3.0,1,2,3,0,3,0,0,2,2,6,,,,,,,328.0166052499844,328.0166052499844,329.0169871249818,329.35053266599425,329.5836554580019,329.5836554580019,329.5836554580019,331.01715574998525,331.01715574998525,331.01715574998525,331.01715574998525,332.01668637499097,200008,005,2023-04-14_11h23.11.694,DMS_et_12-36,2022.2.4,None,
29,UNPRED,12,0.5780270875942474,1,images/picture_2.png,images/picture_1.png,0,"[-11.733433509789462, 11.733433509789464]",-11.733433509789462,11.733433509789464,images/picture_2.png,1,"[-11.733433509789466, -11.733433509789462]",-11.733433509789464,-11.733433509789462,images/picture_3.png,2,"[11.733433509789462, -11.733433509789466]",11.733433509789462,-11.733433509789464,0,1,1,0.5780270875942474,1.5780270875942477,1.4219729124057523,3.0,1,1.3280270875942477,0,4.0,3.0,1,2,3,0,3,0,0,3,3,2,,,,,,,332.01668637499097,332.01668637499097,333.0171914160019,333.35042766598053,333.58343629099545,333.58343629099545,333.58343629099545,335.016754457989,335.016754457989,335.016754457989,335.016754457989,336.0160495000018,200008,005,2023-04-14_11h23.11.694,DMS_et_12-36,2022.2.4,None,
30,UNPRED,12,0.5780270875942474,0,images/picture_1.png,images/picture_1.png,0,"[-11.733433509789462, 11.733433509789464]",-11.733433509789462,11.733433509789464,images/picture_2.png,1,"[-11.733433509789466, -11.733433509789462]",-11.733433509789464,-11.733433509789462,images/picture_3.png,2,"[11.733433509789464, 11.733433509789462]",11.733433509789464,11.733433509789462,0,1,1,0.5780270875942474,1.5780270875942477,1.4219729124057523,3.0,1,1.3280270875942477,0,4.0,3.0,1,2,3,0,3,0,0,4,4,3,,,,,,,336.0160495000018,336.0160495000018,337.0172378749994,337.3505095829896,337.58369137498084,337.58369137498084,337.58369137498084,339.0171539580042,339.0171539580042,339.0171539580042,339.0171539580042,340.0361511250085,200008,005,2023-04-14_11h23.11.694,DMS_et_12-36,2022.2.4,None,
28,UNPRED,12,0.5780270875942474,2,images/picture_3.png,images/picture_1.png,0,"[11.733433509789464, 11.733433509789462]",11.733433509789464,11.733433509789462,images/picture_2.png,1,"[-11.733433509789462, 11.733433509789464]",-11.733433509789462,11.733433509789464,images/picture_3.png,2,"[11.733433509789462, -11.733433509789466]",11.733433509789462,-11.733433509789464,0,1,1,0.5780270875942474,1.5780270875942477,1.4219729124057523,3.0,1,1.3280270875942477,0,4.0,3.0,1,2,3,0,3,0,0,5,5,1,,,,,,,340.0361511250085,340.0361511250085,341.050456958008,341.3703989579808,341.58369500000845,341.58369500000845,341.58369500000845,343.0171912910009,343.0171912910009,343.0171912910009,343.0171912910009,344.016885457997,200008,005,2023-04-14_11h23.11.694,DMS_et_12-36,2022.2.4,None,
32,UNPRED,12,0.5780270875942474,1,images/picture_2.png,images/picture_1.png,0,"[-11.733433509789462, 11.733433509789464]",-11.733433509789462,11.733433509789464,images/picture_2.png,1,"[11.733433509789464, 11.733433509789462]",11.733433509789464,11.733433509789462,images/picture_3.png,2,"[11.733433509789462, -11.733433509789466]",11.733433509789462,-11.733433509789464,0,1,1,0.5780270875942474,1.5780270875942477,1.4219729124057523,3.0,1,1.3280270875942477,0,4.0,3.0,1,2,3,0,3,0,0,6,6,5,,,,,,,344.016885457997,344.016885457997,345.0167405829998,345.35014041600516,345.58362395799486,345.58362395799486,345.58362395799486,347.01699454098707,347.01699454098707,347.01699454098707,347.01699454098707,348.0164815830067,200008,005,2023-04-14_11h23.11.694,DMS_et_12-36,2022.2.4,None,
34,UNPRED,12,0.5780270875942474,1,images/picture_2.png,images/picture_1.png,0,"[-11.733433509789462, 11.733433509789464]",-11.733433509789462,11.733433509789464,images/picture_2.png,1,"[11.733433509789462, -11.733433509789466]",11.733433509789462,-11.733433509789464,images/picture_3.png,2,"[11.733433509789464, 11.733433509789462]",11.733433509789464,11.733433509789462,0,1,1,0.5780270875942474,1.5780270875942477,1.4219729124057523,3.0,1,1.3280270875942477,0,4.0,3.0,1,2,3,0,3,0,0,7,7,7,,,,,,,348.0164815830067,348.0164815830067,349.0170056250063,349.35046633298043,349.5837094160088,349.5837094160088,349.5837094160088,351.01692679099506,351.01692679099506,351.01692679099506,351.01692679099506,352.0164924580022,200008,005,2023-04-14_11h23.11.694,DMS_et_12-36,2022.2.4,None,
31,UNPRED,12,0.5780270875942474,1,images/picture_2.png,images/picture_1.png,0,"[-11.733433509789462, 11.733433509789464]",-11.733433509789462,11.733433509789464,images/picture_2.png,1,"[-11.733433509789466, -11.733433509789462]",-11.733433509789464,-11.733433509789462,images/picture_3.png,2,"[11.733433509789462, -11.733433509789466]",11.733433509789462,-11.733433509789464,0,1,1,0.5780270875942474,1.5780270875942477,1.4219729124057523,3.0,1,1.3280270875942477,0,4.0,3.0,1,2,3,0,3,0,0,8,8,4,,,,,,,352.0164924580022,352.0164924580022,353.0171517499839,353.350552332995,353.58373541600304,353.58373541600304,353.58373541600304,355.01676933298586,355.01676933298586,355.01676933298586,355.01676933298586,356.0502052909869,200008,005,2023-04-14_11h23.11.694,DMS_et_12-36,2022.2.4,None,
,,,,,,,,,,,,,,,,,,,,,,,,,,,,,,,,,,,3,0,3,0,,,,,,,,,356.0502052909869,368.081525415997,,,,,,,,,,,,,200008,005,2023-04-14_11h23.11.694,DMS_et_12-36,2022.2.4,None,
41,PRED,12,0.5780270875942474,2,images/picture_3.png,images/picture_1.png,0,"[-11.733433509789462, 11.733433509789464]",-11.733433509789462,11.733433509789464,images/picture_2.png,1,"[-11.733433509789466, -11.733433509789462]",-11.733433509789464,-11.733433509789462,images/picture_3.png,2,"[11.733433509789464, 11.733433509789462]",11.733433509789464,11.733433509789462,0,1,1,0.5780270875942474,1.5780270875942477,1.4219729124057523,3.0,1,1.3280270875942477,0,4.0,3.0,1,2,4,0,4,0,0,0,0,5,,,,,,,368.081525415997,368.081525415997,369.0837014160061,369.41714541599504,369.65044929098804,369.65044929098804,369.65044929098804,371.07030779100023,371.08370250000735,371.08370250000735,371.08370250000735,372.10319633298786,200008,005,2023-04-14_11h23.11.694,DMS_et_12-36,2022.2.4,None,
38,PRED,12,0.5780270875942474,2,images/picture_3.png,images/picture_1.png,0,"[11.733433509789462, -11.733433509789466]",11.733433509789462,-11.733433509789464,images/picture_2.png,1,"[-11.733433509789466, -11.733433509789462]",-11.733433509789464,-11.733433509789462,images/picture_3.png,2,"[11.733433509789464, 11.733433509789462]",11.733433509789464,11.733433509789462,0,1,1,0.5780270875942474,1.5780270875942477,1.4219729124057523,3.0,1,1.3280270875942477,0,4.0,3.0,1,2,4,0,4,0,0,1,1,2,,,,,,,372.10319633298786,372.10319633298786,373.11696583300363,373.4366531249834,373.65049691600143,373.65049691600143,373.65049691600143,375.0837316660036,375.0837316660036,375.0837316660036,375.0837316660036,376.0840087909892,200008,005,2023-04-14_11h23.11.694,DMS_et_12-36,2022.2.4,None,
42,PRED,12,0.5780270875942474,2,images/picture_3.png,images/picture_1.png,0,"[-11.733433509789466, -11.733433509789462]",-11.733433509789464,-11.733433509789462,images/picture_2.png,1,"[-11.733433509789462, 11.733433509789464]",-11.733433509789462,11.733433509789464,images/picture_3.png,2,"[11.733433509789464, 11.733433509789462]",11.733433509789464,11.733433509789462,0,1,1,0.5780270875942474,1.5780270875942477,1.4219729124057523,3.0,1,1.3280270875942477,0,4.0,3.0,1,2,4,0,4,0,0,2,2,6,,,,,,,376.0840087909892,376.0840087909892,377.0837210000027,377.41703566600336,377.6504392079951,377.6504392079951,377.6504392079951,379.08374991599703,379.08374991599703,379.08374991599703,379.08374991599703,380.1028033749899,200008,005,2023-04-14_11h23.11.694,DMS_et_12-36,2022.2.4,None,
36,PRED,12,0.5780270875942474,2,images/picture_3.png,images/picture_1.png,0,"[-11.733433509789462, 11.733433509789464]",-11.733433509789462,11.733433509789464,images/picture_2.png,1,"[-11.733433509789466, -11.733433509789462]",-11.733433509789464,-11.733433509789462,images/picture_3.png,2,"[11.733433509789464, 11.733433509789462]",11.733433509789464,11.733433509789462,0,1,1,0.5780270875942474,1.5780270875942477,1.4219729124057523,3.0,1,1.3280270875942477,0,4.0,3.0,1,2,4,0,4,0,0,3,3,0,,,,,,,380.1028033749899,380.1028033749899,381.1171488330001,381.43684887498966,381.65034308299073,381.65034308299073,381.65034308299073,383.0837471249979,383.0837471249979,383.0837471249979,383.0837471249979,384.1025778329931,200008,005,2023-04-14_11h23.11.694,DMS_et_12-36,2022.2.4,None,
43,PRED,12,0.5780270875942474,2,images/picture_3.png,images/picture_1.png,0,"[11.733433509789462, -11.733433509789466]",11.733433509789462,-11.733433509789464,images/picture_2.png,1,"[-11.733433509789462, 11.733433509789464]",-11.733433509789462,11.733433509789464,images/picture_3.png,2,"[-11.733433509789466, -11.733433509789462]",-11.733433509789464,-11.733433509789462,0,1,1,0.5780270875942474,1.5780270875942477,1.4219729124057523,3.0,1,1.3280270875942477,0,4.0,3.0,1,2,4,0,4,0,0,4,4,7,,,,,,,384.1025778329931,384.1025778329931,385.11696270800894,385.4364290829981,385.6506049160089,385.6506049160089,385.6506049160089,387.0836772079929,387.0836772079929,387.0836772079929,387.0836772079929,388.10319391600206,200008,005,2023-04-14_11h23.11.694,DMS_et_12-36,2022.2.4,None,
37,PRED,12,0.5780270875942474,2,images/picture_3.png,images/picture_1.png,0,"[-11.733433509789466, -11.733433509789462]",-11.733433509789464,-11.733433509789462,images/picture_2.png,1,"[11.733433509789464, 11.733433509789462]",11.733433509789464,11.733433509789462,images/picture_3.png,2,"[11.733433509789462, -11.733433509789466]",11.733433509789462,-11.733433509789464,0,1,1,0.5780270875942474,1.5780270875942477,1.4219729124057523,3.0,1,1.3280270875942477,0,4.0,3.0,1,2,4,0,4,0,0,5,5,1,,,,,,,388.10319391600206,388.10319391600206,389.11714845799725,389.4365414159838,389.6504066250054,389.6504066250054,389.6504066250054,391.0837052910065,391.0837052910065,391.0837052910065,391.0837052910065,392.10255420798785,200008,005,2023-04-14_11h23.11.694,DMS_et_12-36,2022.2.4,None,
44,PRED,12,0.5780270875942474,2,images/picture_3.png,images/picture_1.png,0,"[11.733433509789462, -11.733433509789466]",11.733433509789462,-11.733433509789464,images/picture_2.png,1,"[-11.733433509789462, 11.733433509789464]",-11.733433509789462,11.733433509789464,images/picture_3.png,2,"[-11.733433509789466, -11.733433509789462]",-11.733433509789464,-11.733433509789462,0,1,1,0.5780270875942474,1.5780270875942477,1.4219729124057523,3.0,1,1.3280270875942477,0,4.0,3.0,1,2,4,0,4,0,0,6,6,8,,,,,,,392.10255420798785,392.10255420798785,393.1170115410059,393.43657120800344,393.65041062500677,393.65041062500677,393.65041062500677,395.08372837500065,395.08372837500065,395.08372837500065,395.08372837500065,396.102965958009,200008,005,2023-04-14_11h23.11.694,DMS_et_12-36,2022.2.4,None,
39,PRED,12,0.5780270875942474,2,images/picture_3.png,images/picture_1.png,0,"[11.733433509789464, 11.733433509789462]",11.733433509789464,11.733433509789462,images/picture_2.png,1,"[-11.733433509789466, -11.733433509789462]",-11.733433509789464,-11.733433509789462,images/picture_3.png,2,"[11.733433509789462, -11.733433509789466]",11.733433509789462,-11.733433509789464,0,1,1,0.5780270875942474,1.5780270875942477,1.4219729124057523,3.0,1,1.3280270875942477,0,4.0,3.0,1,2,4,0,4,0,0,7,7,3,,,,,,,396.102965958009,396.102965958009,397.11697754100896,397.43707762498525,397.65047445800155,397.65047445800155,397.65047445800155,399.0837224579882,399.0837224579882,399.0837224579882,399.0837224579882,400.1023670829891,200008,005,2023-04-14_11h23.11.694,DMS_et_12-36,2022.2.4,None,
40,PRED,12,0.5780270875942474,2,images/picture_3.png,images/picture_1.png,0,"[-11.733433509789466, -11.733433509789462]",-11.733433509789464,-11.733433509789462,images/picture_2.png,1,"[11.733433509789462, -11.733433509789466]",11.733433509789462,-11.733433509789464,images/picture_3.png,2,"[11.733433509789464, 11.733433509789462]",11.733433509789464,11.733433509789462,0,1,1,0.5780270875942474,1.5780270875942477,1.4219729124057523,3.0,1,1.3280270875942477,0,4.0,3.0,1,2,4,0,4,0,0,8,8,4,,,,,,,400.1023670829891,400.1023670829891,401.117156332999,401.4371871659823,401.65048312500585,401.65048312500585,401.65048312500585,403.0836972499965,403.0836972499965,403.0836972499965,403.0836972499965,404.14046116598183,200008,005,2023-04-14_11h23.11.694,DMS_et_12-36,2022.2.4,None,
,,,,,,,,,,,,,,,,,,,,,,,,,,,,,,,,,,,4,0,4,0,,,,,,,,,404.14046116598183,416.17835341600585,,,,,,,,,,,,,200008,005,2023-04-14_11h23.11.694,DMS_et_12-36,2022.2.4,None,
45,UNPRED,12,0.5780270875942474,2,images/picture_3.png,images/picture_1.png,0,"[-11.733433509789466, -11.733433509789462]",-11.733433509789464,-11.733433509789462,images/picture_2.png,1,"[11.733433509789464, 11.733433509789462]",11.733433509789464,11.733433509789462,images/picture_3.png,2,"[11.733433509789462, -11.733433509789466]",11.733433509789462,-11.733433509789464,0,1,1,0.5780270875942474,1.5780270875942477,1.4219729124057523,3.0,1,1.3280270875942477,0,4.0,3.0,1,2,5,0,5,0,0,0,0,0,,,,,,,416.17835341600585,416.17835341600585,417.1834213330003,417.5168373330089,417.75018587498926,417.75018587498926,417.75018587498926,419.16959045798285,419.1836943329836,419.1836943329836,419.1836943329836,420.1836439159815,200008,005,2023-04-14_11h23.11.694,DMS_et_12-36,2022.2.4,None,
48,UNPRED,12,0.5780270875942474,1,images/picture_2.png,images/picture_1.png,0,"[-11.733433509789462, 11.733433509789464]",-11.733433509789462,11.733433509789464,images/picture_2.png,1,"[11.733433509789462, -11.733433509789466]",11.733433509789462,-11.733433509789464,images/picture_3.png,2,"[-11.733433509789466, -11.733433509789462]",-11.733433509789464,-11.733433509789462,0,1,1,0.5780270875942474,1.5780270875942477,1.4219729124057523,3.0,1,1.3280270875942477,0,4.0,3.0,1,2,5,0,5,0,0,1,1,3,,,,,,,420.1836439159815,420.1836439159815,421.1837110829947,421.5171413749922,421.7504190829932,421.7504190829932,421.7504190829932,423.1838700409862,423.1838700409862,423.1838700409862,423.1838700409862,424.20304995798506,200008,005,2023-04-14_11h23.11.694,DMS_et_12-36,2022.2.4,None,
52,UNPRED,12,0.5780270875942474,0,images/picture_1.png,images/picture_1.png,0,"[11.733433509789462, -11.733433509789466]",11.733433509789462,-11.733433509789464,images/picture_2.png,1,"[11.733433509789464, 11.733433509789462]",11.733433509789464,11.733433509789462,images/picture_3.png,2,"[-11.733433509789466, -11.733433509789462]",-11.733433509789464,-11.733433509789462,0,1,1,0.5780270875942474,1.5780270875942477,1.4219729124057523,3.0,1,1.3280270875942477,0,4.0,3.0,1,2,5,0,5,0,0,2,2,7,,,,,,,424.20304995798506,424.20304995798506,425.21722187500563,425.5363854999887,425.7504802909971,425.7504802909971,425.7504802909971,427.1834273749846,427.1834273749846,427.1834273749846,427.1834273749846,428.1833055409952,200008,005,2023-04-14_11h23.11.694,DMS_et_12-36,2022.2.4,None,
51,UNPRED,12,0.5780270875942474,0,images/picture_1.png,images/picture_1.png,0,"[11.733433509789464, 11.733433509789462]",11.733433509789464,11.733433509789462,images/picture_2.png,1,"[-11.733433509789466, -11.733433509789462]",-11.733433509789464,-11.733433509789462,images/picture_3.png,2,"[11.733433509789462, -11.733433509789466]",11.733433509789462,-11.733433509789464,0,1,1,0.5780270875942474,1.5780270875942477,1.4219729124057523,3.0,1,1.3280270875942477,0,4.0,3.0,1,2,5,0,5,0,0,3,3,6,,,,,,,428.1833055409952,428.1833055409952,429.1836887910031,429.5169184579863,429.750516583008,429.750516583008,429.750516583008,431.18370491600945,431.18370491600945,431.18370491600945,431.18370491600945,432.2028901659942,200008,005,2023-04-14_11h23.11.694,DMS_et_12-36,2022.2.4,None,
53,UNPRED,12,0.5780270875942474,2,images/picture_3.png,images/picture_1.png,0,"[11.733433509789462, -11.733433509789466]",11.733433509789462,-11.733433509789464,images/picture_2.png,1,"[-11.733433509789462, 11.733433509789464]",-11.733433509789462,11.733433509789464,images/picture_3.png,2,"[11.733433509789464, 11.733433509789462]",11.733433509789464,11.733433509789462,0,1,1,0.5780270875942474,1.5780270875942477,1.4219729124057523,3.0,1,1.3280270875942477,0,4.0,3.0,1,2,5,0,5,0,0,4,4,8,,,,,,,432.2028901659942,432.2028901659942,433.21695874998113,433.5373495410022,433.7504858750035,433.7504858750035,433.7504858750035,435.1831011659815,435.1831011659815,435.1831011659815,435.1831011659815,436.1837679579912,200008,005,2023-04-14_11h23.11.694,DMS_et_12-36,2022.2.4,None,
49,UNPRED,12,0.5780270875942474,1,images/picture_2.png,images/picture_1.png,0,"[-11.733433509789462, 11.733433509789464]",-11.733433509789462,11.733433509789464,images/picture_2.png,1,"[11.733433509789462, -11.733433509789466]",11.733433509789462,-11.733433509789464,images/picture_3.png,2,"[11.733433509789464, 11.733433509789462]",11.733433509789464,11.733433509789462,0,1,1,0.5780270875942474,1.5780270875942477,1.4219729124057523,3.0,1,1.3280270875942477,0,4.0,3.0,1,2,5,0,5,0,0,5,5,4,,,,,,,436.1837679579912,436.1837679579912,437.18347179098055,437.5167791249987,437.7500604579982,437.7500604579982,437.7500604579982,439.18369083298603,439.18369083298603,439.18369083298603,439.18369083298603,440.1831422910036,200008,005,2023-04-14_11h23.11.694,DMS_et_12-36,2022.2.4,None,
47,UNPRED,12,0.5780270875942474,0,images/picture_1.png,images/picture_1.png,0,"[11.733433509789462, -11.733433509789466]",11.733433509789462,-11.733433509789464,images/picture_2.png,1,"[-11.733433509789466, -11.733433509789462]",-11.733433509789464,-11.733433509789462,images/picture_3.png,2,"[11.733433509789464, 11.733433509789462]",11.733433509789464,11.733433509789462,0,1,1,0.5780270875942474,1.5780270875942477,1.4219729124057523,3.0,1,1.3280270875942477,0,4.0,3.0,1,2,5,0,5,0,0,6,6,2,,,,,,,440.1831422910036,440.1831422910036,441.18370200000936,441.517192875006,441.75042266599485,441.75042266599485,441.75042266599485,443.18373437499395,443.18373437499395,443.18373437499395,443.18373437499395,444.1834330410056,200008,005,2023-04-14_11h23.11.694,DMS_et_12-36,2022.2.4,None,
50,UNPRED,12,0.5780270875942474,0,images/picture_1.png,images/picture_1.png,0,"[11.733433509789464, 11.733433509789462]",11.733433509789464,11.733433509789462,images/picture_2.png,1,"[-11.733433509789462, 11.733433509789464]",-11.733433509789462,11.733433509789464,images/picture_3.png,2,"[-11.733433509789466, -11.733433509789462]",-11.733433509789464,-11.733433509789462,0,1,1,0.5780270875942474,1.5780270875942477,1.4219729124057523,3.0,1,1.3280270875942477,0,4.0,3.0,1,2,5,0,5,0,0,7,7,5,,,,,,,444.1834330410056,444.1834330410056,445.1837543750007,445.5169615409977,445.750400082994,445.750400082994,445.750400082994,447.18378016600036,447.18378016600036,447.18378016600036,447.18378016600036,448.20216912499745,200008,005,2023-04-14_11h23.11.694,DMS_et_12-36,2022.2.4,None,
46,UNPRED,12,0.5780270875942474,2,images/picture_3.png,images/picture_1.png,0,"[11.733433509789462, -11.733433509789466]",11.733433509789462,-11.733433509789464,images/picture_2.png,1,"[11.733433509789464, 11.733433509789462]",11.733433509789464,11.733433509789462,images/picture_3.png,2,"[-11.733433509789466, -11.733433509789462]",-11.733433509789464,-11.733433509789462,0,1,1,0.5780270875942474,1.5780270875942477,1.4219729124057523,3.0,1,1.3280270875942477,0,4.0,3.0,1,2,5,0,5,0,0,8,8,1,,,,,,,448.20216912499745,448.20216912499745,449.21702820798964,449.53706762500224,449.7504398750025,449.7504398750025,449.7504398750025,451.1837598749844,451.1837598749844,451.1837598749844,451.1837598749844,452.2996677909978,200008,005,2023-04-14_11h23.11.694,DMS_et_12-36,2022.2.4,None,
,,,,,,,,,,,,,,,,,,,,,,,,,,,,,,,,,,,5,0,5,0,,,,,,,,,452.2996677909978,464.3210213329876,,,,,,,,,,,,,200008,005,2023-04-14_11h23.11.694,DMS_et_12-36,2022.2.4,None,
58,PRED,12,0.5780270875942474,0,images/picture_1.png,images/picture_1.png,0,"[-11.733433509789462, 11.733433509789464]",-11.733433509789462,11.733433509789464,images/picture_2.png,1,"[11.733433509789462, -11.733433509789466]",11.733433509789462,-11.733433509789464,images/picture_3.png,2,"[11.733433509789464, 11.733433509789462]",11.733433509789464,11.733433509789462,0,1,1,0.5780270875942474,1.5780270875942477,1.4219729124057523,3.0,1,1.3280270875942477,0,4.0,3.0,1,2,6,0,6,0,0,0,0,4,,,,,,,464.3210213329876,464.3210213329876,465.3170711249986,465.6505962499941,465.9031428330054,465.9031428330054,465.9031428330054,467.31715641598566,467.33656791600515,467.33656791600515,467.33656791600515,468.3167743329832,200008,005,2023-04-14_11h23.11.694,DMS_et_12-36,2022.2.4,None,
60,PRED,12,0.5780270875942474,0,images/picture_1.png,images/picture_1.png,0,"[-11.733433509789466, -11.733433509789462]",-11.733433509789464,-11.733433509789462,images/picture_2.png,1,"[11.733433509789464, 11.733433509789462]",11.733433509789464,11.733433509789462,images/picture_3.png,2,"[11.733433509789462, -11.733433509789466]",11.733433509789462,-11.733433509789464,0,1,1,0.5780270875942474,1.5780270875942477,1.4219729124057523,3.0,1,1.3280270875942477,0,4.0,3.0,1,2,6,0,6,0,0,1,1,6,,,,,,,468.3167743329832,468.3167743329832,469.31701970798895,469.65042341599474,469.8836984579975,469.8836984579975,469.8836984579975,471.31700091599487,471.31700091599487,471.31700091599487,471.31700091599487,472.31677087498247,200008,005,2023-04-14_11h23.11.694,DMS_et_12-36,2022.2.4,None,
56,PRED,12,0.5780270875942474,0,images/picture_1.png,images/picture_1.png,0,"[-11.733433509789462, 11.733433509789464]",-11.733433509789462,11.733433509789464,images/picture_2.png,1,"[-11.733433509789466, -11.733433509789462]",-11.733433509789464,-11.733433509789462,images/picture_3.png,2,"[11.733433509789462, -11.733433509789466]",11.733433509789462,-11.733433509789464,0,1,1,0.5780270875942474,1.5780270875942477,1.4219729124057523,3.0,1,1.3280270875942477,0,4.0,3.0,1,2,6,0,6,0,0,2,2,2,,,,,,,472.31677087498247,472.31677087498247,473.3172585410066,473.6505134580075,473.8834880409995,473.8834880409995,473.8834880409995,475.31718874999206,475.31718874999206,475.31718874999206,475.31718874999206,476.3166724999901,200008,005,2023-04-14_11h23.11.694,DMS_et_12-36,2022.2.4,None,
61,PRED,12,0.5780270875942474,0,images/picture_1.png,images/picture_1.png,0,"[11.733433509789464, 11.733433509789462]",11.733433509789464,11.733433509789462,images/picture_2.png,1,"[-11.733433509789462, 11.733433509789464]",-11.733433509789462,11.733433509789464,images/picture_3.png,2,"[11.733433509789462, -11.733433509789466]",11.733433509789462,-11.733433509789464,0,1,1,0.5780270875942474,1.5780270875942477,1.4219729124057523,3.0,1,1.3280270875942477,0,4.0,3.0,1,2,6,0,6,0,0,3,3,7,,,,,,,476.3166724999901,476.3166724999901,477.3170012909977,477.6504697079945,477.88374175000354,477.88374175000354,477.88374175000354,479.31680562498514,479.31680562498514,479.31680562498514,479.31680562498514,480.31688162498176,200008,005,2023-04-14_11h23.11.694,DMS_et_12-36,2022.2.4,None,
59,PRED,12,0.5780270875942474,0,images/picture_1.png,images/picture_1.png,0,"[-11.733433509789466, -11.733433509789462]",-11.733433509789464,-11.733433509789462,images/picture_2.png,1,"[11.733433509789464, 11.733433509789462]",11.733433509789464,11.733433509789462,images/picture_3.png,2,"[11.733433509789462, -11.733433509789466]",11.733433509789462,-11.733433509789464,0,1,1,0.5780270875942474,1.5780270875942477,1.4219729124057523,3.0,1,1.3280270875942477,0,4.0,3.0,1,2,6,0,6,0,0,4,4,5,,,,,,,480.31688162498176,480.31688162498176,481.3172549580049,481.65043404098833,481.88374154100893,481.88374154100893,481.88374154100893,483.31698362500174,483.31698362500174,483.31698362500174,483.31698362500174,484.3169774999842,200008,005,2023-04-14_11h23.11.694,DMS_et_12-36,2022.2.4,None,
57,PRED,12,0.5780270875942474,0,images/picture_1.png,images/picture_1.png,0,"[11.733433509789464, 11.733433509789462]",11.733433509789464,11.733433509789462,images/picture_2.png,1,"[-11.733433509789466, -11.733433509789462]",-11.733433509789464,-11.733433509789462,images/picture_3.png,2,"[-11.733433509789462, 11.733433509789464]",-11.733433509789462,11.733433509789464,0,1,1,0.5780270875942474,1.5780270875942477,1.4219729124057523,3.0,1,1.3280270875942477,0,4.0,3.0,1,2,6,0,6,0,0,5,5,3,,,,,,,484.3169774999842,484.3169774999842,485.317133790988,485.6504134160059,485.8837063749961,485.8837063749961,485.8837063749961,487.317213790986,487.317213790986,487.317213790986,487.317213790986,488.3164565000043,200008,005,2023-04-14_11h23.11.694,DMS_et_12-36,2022.2.4,None,
62,PRED,12,0.5780270875942474,0,images/picture_1.png,images/picture_1.png,0,"[11.733433509789462, -11.733433509789466]",11.733433509789462,-11.733433509789464,images/picture_2.png,1,"[-11.733433509789466, -11.733433509789462]",-11.733433509789464,-11.733433509789462,images/picture_3.png,2,"[-11.733433509789462, 11.733433509789464]",-11.733433509789462,11.733433509789464,0,1,1,0.5780270875942474,1.5780270875942477,1.4219729124057523,3.0,1,1.3280270875942477,0,4.0,3.0,1,2,6,0,6,0,0,6,6,8,,,,,,,488.3164565000043,488.3164565000043,489.3168926250073,489.6505352499953,489.8837169999897,489.8837169999897,489.8837169999897,491.31699383299565,491.31699383299565,491.31699383299565,491.31699383299565,492.3167891659832,200008,005,2023-04-14_11h23.11.694,DMS_et_12-36,2022.2.4,None,
55,PRED,12,0.5780270875942474,0,images/picture_1.png,images/picture_1.png,0,"[-11.733433509789462, 11.733433509789464]",-11.733433509789462,11.733433509789464,images/picture_2.png,1,"[11.733433509789462, -11.733433509789466]",11.733433509789462,-11.733433509789464,images/picture_3.png,2,"[11.733433509789464, 11.733433509789462]",11.733433509789464,11.733433509789462,0,1,1,0.5780270875942474,1.5780270875942477,1.4219729124057523,3.0,1,1.3280270875942477,0,4.0,3.0,1,2,6,0,6,0,0,7,7,1,,,,,,,492.3167891659832,492.3167891659832,493.3173475000076,493.65055112499977,493.8837119159871,493.8837119159871,493.8837119159871,495.31696391600417,495.31696391600417,495.31696391600417,495.31696391600417,496.31675825000275,200008,005,2023-04-14_11h23.11.694,DMS_et_12-36,2022.2.4,None,
54,PRED,12,0.5780270875942474,0,images/picture_1.png,images/picture_1.png,0,"[11.733433509789464, 11.733433509789462]",11.733433509789464,11.733433509789462,images/picture_2.png,1,"[-11.733433509789466, -11.733433509789462]",-11.733433509789464,-11.733433509789462,images/picture_3.png,2,"[11.733433509789462, -11.733433509789466]",11.733433509789462,-11.733433509789464,0,1,1,0.5780270875942474,1.5780270875942477,1.4219729124057523,3.0,1,1.3280270875942477,0,4.0,3.0,1,2,6,0,6,0,0,8,8,0,,,,,,,496.31675825000275,496.31675825000275,497.3170788749994,497.6504133330018,497.88369870799943,497.88369870799943,497.88369870799943,499.3168846250046,499.3168846250046,499.3168846250046,499.3168846250046,500.39633387498907,200008,005,2023-04-14_11h23.11.694,DMS_et_12-36,2022.2.4,None,
,,,,,,,,,,,,,,,,,,,,,,,,,,,,,,,,,,,6,0,6,0,,,,,,,,,500.39633387498907,512.4209146659996,,,,,,,,,,,,,200008,005,2023-04-14_11h23.11.694,DMS_et_12-36,2022.2.4,None,
64,UNPRED,12,0.5780270875942474,1,images/picture_2.png,images/picture_1.png,0,"[-11.733433509789466, -11.733433509789462]",-11.733433509789464,-11.733433509789462,images/picture_2.png,1,"[11.733433509789462, -11.733433509789466]",11.733433509789462,-11.733433509789464,images/picture_3.png,2,"[11.733433509789464, 11.733433509789462]",11.733433509789464,11.733433509789462,0,1,1,0.5780270875942474,1.5780270875942477,1.4219729124057523,3.0,1,1.3280270875942477,0,4.0,3.0,1,2,7,0,7,0,0,0,0,1,,,,,,,512.4209146659996,512.4209146659996,513.4171614160005,513.7504604159913,514.0033751250012,514.0033751250012,514.0033751250012,515.4171221249853,515.4366203329992,515.4366203329992,515.4366203329992,516.4165515409841,200008,005,2023-04-14_11h23.11.694,DMS_et_12-36,2022.2.4,None,
63,UNPRED,12,0.5780270875942474,1,images/picture_2.png,images/picture_1.png,0,"[-11.733433509789462, 11.733433509789464]",-11.733433509789462,11.733433509789464,images/picture_2.png,1,"[11.733433509789462, -11.733433509789466]",11.733433509789462,-11.733433509789464,images/picture_3.png,2,"[-11.733433509789466, -11.733433509789462]",-11.733433509789464,-11.733433509789462,0,1,1,0.5780270875942474,1.5780270875942477,1.4219729124057523,3.0,1,1.3280270875942477,0,4.0,3.0,1,2,7,0,7,0,0,1,1,0,,,,,,,516.4165515409841,516.4165515409841,517.4171298329893,517.7504154999915,517.9837258330081,517.9837258330081,517.9837258330081,519.416769915988,519.416769915988,519.416769915988,519.416769915988,520.4358258749999,200008,005,2023-04-14_11h23.11.694,DMS_et_12-36,2022.2.4,None,
67,UNPRED,12,0.5780270875942474,2,images/picture_3.png,images/picture_1.png,0,"[-11.733433509789466, -11.733433509789462]",-11.733433509789464,-11.733433509789462,images/picture_2.png,1,"[11.733433509789464, 11.733433509789462]",11.733433509789464,11.733433509789462,images/picture_3.png,2,"[-11.733433509789462, 11.733433509789464]",-11.733433509789462,11.733433509789464,0,1,1,0.5780270875942474,1.5780270875942477,1.4219729124057523,3.0,1,1.3280270875942477,0,4.0,3.0,1,2,7,0,7,0,0,2,2,4,,,,,,,520.4358258749999,520.4358258749999,521.4503975409898,521.7698319999909,521.983682666003,521.983682666003,521.983682666003,523.4171539999952,523.4171539999952,523.4171539999952,523.4171539999952,524.4359708330012,200008,005,2023-04-14_11h23.11.694,DMS_et_12-36,2022.2.4,None,
71,UNPRED,12,0.5780270875942474,2,images/picture_3.png,images/picture_1.png,0,"[-11.733433509789466, -11.733433509789462]",-11.733433509789464,-11.733433509789462,images/picture_2.png,1,"[11.733433509789462, -11.733433509789466]",11.733433509789462,-11.733433509789464,images/picture_3.png,2,"[11.733433509789464, 11.733433509789462]",11.733433509789464,11.733433509789462,0,1,1,0.5780270875942474,1.5780270875942477,1.4219729124057523,3.0,1,1.3280270875942477,0,4.0,3.0,1,2,7,0,7,0,0,3,3,8,,,,,,,524.4359708330012,524.4359708330012,525.4505025410035,525.7697510829894,525.983697165997,525.983697165997,525.983697165997,527.4171906659903,527.4171906659903,527.4171906659903,527.4171906659903,528.4358391659916,200008,005,2023-04-14_11h23.11.694,DMS_et_12-36,2022.2.4,None,
66,UNPRED,12,0.5780270875942474,2,images/picture_3.png,images/picture_1.png,0,"[-11.733433509789466, -11.733433509789462]",-11.733433509789464,-11.733433509789462,images/picture_2.png,1,"[11.733433509789462, -11.733433509789466]",11.733433509789462,-11.733433509789464,images/picture_3.png,2,"[-11.733433509789462, 11.733433509789464]",-11.733433509789462,11.733433509789464,0,1,1,0.5780270875942474,1.5780270875942477,1.4219729124057523,3.0,1,1.3280270875942477,0,4.0,3.0,1,2,7,0,7,0,0,4,4,3,,,,,,,528.4358391659916,528.4358391659916,529.4505006659892,529.7689586659835,529.9834132909891,529.9834132909891,529.9834132909891,531.4172342910024,531.4172342910024,531.4172342910024,531.4172342910024,532.4359148329822,200008,005,2023-04-14_11h23.11.694,DMS_et_12-36,2022.2.4,None,
65,UNPRED,12,0.5780270875942474,2,images/picture_3.png,images/picture_1.png,0,"[-11.733433509789462, 11.733433509789464]",-11.733433509789462,11.733433509789464,images/picture_2.png,1,"[-11.733433509789466, -11.733433509789462]",-11.733433509789464,-11.733433509789462,images/picture_3.png,2,"[11.733433509789464, 11.733433509789462]",11.733433509789464,11.733433509789462,0,1,1,0.5780270875942474,1.5780270875942477,1.4219729124057523,3.0,1,1.3280270875942477,0,4.0,3.0,1,2,7,0,7,0,0,5,5,2,,,,,,,532.4359148329822,532.4359148329822,533.4503693750012,533.7702469159849,533.9836751660041,533.9836751660041,533.9836751660041,535.4171879159985,535.4171879159985,535.4171879159985,535.4171879159985,536.4159616249963,200008,005,2023-04-14_11h23.11.694,DMS_et_12-36,2022.2.4,None,
70,UNPRED,12,0.5780270875942474,0,images/picture_1.png,images/picture_1.png,0,"[11.733433509789462, -11.733433509789466]",11.733433509789462,-11.733433509789464,images/picture_2.png,1,"[-11.733433509789462, 11.733433509789464]",-11.733433509789462,11.733433509789464,images/picture_3.png,2,"[-11.733433509789466, -11.733433509789462]",-11.733433509789464,-11.733433509789462,0,1,1,0.5780270875942474,1.5780270875942477,1.4219729124057523,3.0,1,1.3280270875942477,0,4.0,3.0,1,2,7,0,7,0,0,6,6,7,,,,,,,536.4159616249963,536.4159616249963,537.4171571249899,537.7503949999809,537.983669624984,537.983669624984,537.983669624984,539.4169673750002,539.4169673750002,539.4169673750002,539.4169673750002,540.4167759580014,200008,005,2023-04-14_11h23.11.694,DMS_et_12-36,2022.2.4,None,
69,UNPRED,12,0.5780270875942474,0,images/picture_1.png,images/picture_1.png,0,"[11.733433509789464, 11.733433509789462]",11.733433509789464,11.733433509789462,images/picture_2.png,1,"[11.733433509789462, -11.733433509789466]",11.733433509789462,-11.733433509789464,images/picture_3.png,2,"[-11.733433509789462, 11.733433509789464]",-11.733433509789462,11.733433509789464,0,1,1,0.5780270875942474,1.5780270875942477,1.4219729124057523,3.0,1,1.3280270875942477,0,4.0,3.0,1,2,7,0,7,0,0,7,7,6,,,,,,,540.4167759580014,540.4167759580014,541.4171906659903,541.7504444579827,541.983742707991,541.983742707991,541.983742707991,543.4171614579973,543.4171614579973,543.4171614579973,543.4171614579973,544.4360068329843,200008,005,2023-04-14_11h23.11.694,DMS_et_12-36,2022.2.4,None,
68,UNPRED,12,0.5780270875942474,2,images/picture_3.png,images/picture_1.png,0,"[-11.733433509789462, 11.733433509789464]",-11.733433509789462,11.733433509789464,images/picture_2.png,1,"[-11.733433509789466, -11.733433509789462]",-11.733433509789464,-11.733433509789462,images/picture_3.png,2,"[11.733433509789462, -11.733433509789466]",11.733433509789462,-11.733433509789464,0,1,1,0.5780270875942474,1.5780270875942477,1.4219729124057523,3.0,1,1.3280270875942477,0,4.0,3.0,1,2,7,0,7,0,0,8,8,5,,,,,,,544.4360068329843,544.4360068329843,545.4504902909975,545.7699137500022,545.9837150829844,545.9837150829844,545.9837150829844,547.4169639159809,547.4169639159809,547.4169639159809,547.4169639159809,548.5034504159994,200008,005,2023-04-14_11h23.11.694,DMS_et_12-36,2022.2.4,None,
,,,,,,,,,,,,,,,,,,,,,,,,,,,,,,,,,,,7,0,7,0,,,,,,,,,548.5034504159994,560.5360033749894,,,,,,,,,,,,,200008,005,2023-04-14_11h23.11.694,DMS_et_12-36,2022.2.4,None,
78,PRED,12,0.5780270875942474,0,images/picture_1.png,images/picture_1.png,0,"[-11.733433509789462, 11.733433509789464]",-11.733433509789462,11.733433509789464,images/picture_2.png,1,"[11.733433509789462, -11.733433509789466]",11.733433509789462,-11.733433509789464,images/picture_3.png,2,"[11.733433509789464, 11.733433509789462]",11.733433509789464,11.733433509789462,0,1,1,0.5780270875942474,1.5780270875942477,1.4219729124057523,3.0,1,1.3280270875942477,0,4.0,3.0,1,2,8,0,8,0,0,0,0,6,,,,,,,560.5360033749894,560.5360033749894,561.5505108329817,561.8695632499876,562.1032110000087,562.1032110000087,562.1032110000087,563.5171023329895,563.5364213749999,563.5364213749999,563.5364213749999,564.5164752079872,200008,005,2023-04-14_11h23.11.694,DMS_et_12-36,2022.2.4,None,
79,PRED,12,0.5780270875942474,0,images/picture_1.png,images/picture_1.png,0,"[-11.733433509789462, 11.733433509789464]",-11.733433509789462,11.733433509789464,images/picture_2.png,1,"[-11.733433509789466, -11.733433509789462]",-11.733433509789464,-11.733433509789462,images/picture_3.png,2,"[11.733433509789464, 11.733433509789462]",11.733433509789464,11.733433509789462,0,1,1,0.5780270875942474,1.5780270875942477,1.4219729124057523,3.0,1,1.3280270875942477,0,4.0,3.0,1,2,8,0,8,0,0,1,1,7,,,,,,,564.5164752079872,564.5164752079872,565.5171592909901,565.850395165995,566.083735541004,566.083735541004,566.083735541004,567.5171984999906,567.5171984999906,567.5171984999906,567.5171984999906,568.5165007500036,200008,005,2023-04-14_11h23.11.694,DMS_et_12-36,2022.2.4,None,
74,PRED,12,0.5780270875942474,0,images/picture_1.png,images/picture_1.png,0,"[11.733433509789464, 11.733433509789462]",11.733433509789464,11.733433509789462,images/picture_2.png,1,"[-11.733433509789466, -11.733433509789462]",-11.733433509789464,-11.733433509789462,images/picture_3.png,2,"[-11.733433509789462, 11.733433509789464]",-11.733433509789462,11.733433509789464,0,1,1,0.5780270875942474,1.5780270875942477,1.4219729124057523,3.0,1,1.3280270875942477,0,4.0,3.0,1,2,8,0,8,0,0,2,2,2,,,,,,,568.5165007500036,568.5165007500036,569.5170324579813,569.850510874996,570.0837520000059,570.0837520000059,570.0837520000059,571.5169921249908,571.5169921249908,571.5169921249908,571.5169921249908,572.5164849160064,200008,005,2023-04-14_11h23.11.694,DMS_et_12-36,2022.2.4,None,
73,PRED,12,0.5780270875942474,0,images/picture_1.png,images/picture_1.png,0,"[11.733433509789462, -11.733433509789466]",11.733433509789462,-11.733433509789464,images/picture_2.png,1,"[-11.733433509789466, -11.733433509789462]",-11.733433509789464,-11.733433509789462,images/picture_3.png,2,"[-11.733433509789462, 11.733433509789464]",-11.733433509789462,11.733433509789464,0,1,1,0.5780270875942474,1.5780270875942477,1.4219729124057523,3.0,1,1.3280270875942477,0,4.0,3.0,1,2,8,0,8,0,0,3,3,1,,,,,,,572.5164849160064,572.5164849160064,573.5169745000021,573.8504998749995,574.0837485829834,574.0837485829834,574.0837485829834,575.5169552910083,575.5169552910083,575.5169552910083,575.5169552910083,576.5168450829806,200008,005,2023-04-14_11h23.11.694,DMS_et_12-36,2022.2.4,None,
72,PRED,12,0.5780270875942474,0,images/picture_1.png,images/picture_1.png,0,"[11.733433509789462, -11.733433509789466]",11.733433509789462,-11.733433509789464,images/picture_2.png,1,"[11.733433509789464, 11.733433509789462]",11.733433509789464,11.733433509789462,images/picture_3.png,2,"[-11.733433509789466, -11.733433509789462]",-11.733433509789464,-11.733433509789462,0,1,1,0.5780270875942474,1.5780270875942477,1.4219729124057523,3.0,1,1.3280270875942477,0,4.0,3.0,1,2,8,0,8,0,0,4,4,0,,,,,,,576.5168450829806,576.5168450829806,577.5171731660084,577.8504460830009,578.0837298329861,578.0837298329861,578.0837298329861,579.5171704999811,579.5171704999811,579.5171704999811,579.5171704999811,580.5164214579854,200008,005,2023-04-14_11h23.11.694,DMS_et_12-36,2022.2.4,None,
77,PRED,12,0.5780270875942474,0,images/picture_1.png,images/picture_1.png,0,"[11.733433509789464, 11.733433509789462]",11.733433509789464,11.733433509789462,images/picture_2.png,1,"[11.733433509789462, -11.733433509789466]",11.733433509789462,-11.733433509789464,images/picture_3.png,2,"[-11.733433509789466, -11.733433509789462]",-11.733433509789464,-11.733433509789462,0,1,1,0.5780270875942474,1.5780270875942477,1.4219729124057523,3.0,1,1.3280270875942477,0,4.0,3.0,1,2,8,0,8,0,0,5,5,5,,,,,,,580.5164214579854,580.5164214579854,581.5167438329954,581.8505922080076,582.0838212079834,582.0838212079834,582.0838212079834,583.5170399580093,583.5170399580093,583.5170399580093,583.5170399580093,584.516519708006,200008,005,2023-04-14_11h23.11.694,DMS_et_12-36,2022.2.4,None,
80,PRED,12,0.5780270875942474,0,images/picture_1.png,images/picture_1.png,0,"[11.733433509789464, 11.733433509789462]",11.733433509789464,11.733433509789462,images/picture_2.png,1,"[-11.733433509789462, 11.733433509789464]",-11.733433509789462,11.733433509789464,images/picture_3.png,2,"[11.733433509789462, -11.733433509789466]",11.733433509789462,-11.733433509789464,0,1,1,0.5780270875942474,1.5780270875942477,1.4219729124057523,3.0,1,1.3280270875942477,0,4.0,3.0,1,2,8,0,8,0,0,6,6,8,,,,,,,584.516519708006,584.516519708006,585.5171473329829,585.8504529159982,586.0837756659894,586.0837756659894,586.0837756659894,587.5169796249829,587.5169796249829,587.5169796249829,587.5169796249829,588.5165264579991,200008,005,2023-04-14_11h23.11.694,DMS_et_12-36,2022.2.4,None,
76,PRED,12,0.5780270875942474,0,images/picture_1.png,images/picture_1.png,0,"[11.733433509789462, -11.733433509789466]",11.733433509789462,-11.733433509789464,images/picture_2.png,1,"[-11.733433509789466, -11.733433509789462]",-11.733433509789464,-11.733433509789462,images/picture_3.png,2,"[11.733433509789464, 11.733433509789462]",11.733433509789464,11.733433509789462,0,1,1,0.5780270875942474,1.5780270875942477,1.4219729124057523,3.0,1,1.3280270875942477,0,4.0,3.0,1,2,8,0,8,0,0,7,7,4,,,,,,,588.5165264579991,588.5165264579991,589.5170003749954,589.850433915999,590.0837047910027,590.0837047910027,590.0837047910027,591.516788915993,591.516788915993,591.516788915993,591.516788915993,592.5165704159881,200008,005,2023-04-14_11h23.11.694,DMS_et_12-36,2022.2.4,None,
75,PRED,12,0.5780270875942474,0,images/picture_1.png,images/picture_1.png,0,"[-11.733433509789462, 11.733433509789464]",-11.733433509789462,11.733433509789464,images/picture_2.png,1,"[11.733433509789464, 11.733433509789462]",11.733433509789464,11.733433509789462,images/picture_3.png,2,"[-11.733433509789466, -11.733433509789462]",-11.733433509789464,-11.733433509789462,0,1,1,0.5780270875942474,1.5780270875942477,1.4219729124057523,3.0,1,1.3280270875942477,0,4.0,3.0,1,2,8,0,8,0,0,8,8,3,,,,,,,592.5165704159881,592.5165704159881,593.5172169579891,593.850412291009,594.0837254579819,594.0837254579819,594.0837254579819,595.5171502080048,595.5171502080048,595.5171502080048,595.5171502080048,596.6112085829955,200008,005,2023-04-14_11h23.11.694,DMS_et_12-36,2022.2.4,None,
,,,,,,,,,,,,,,,,,,,,,,,,,,,,,,,,,,,8,0,8,0,,,,,,,,,596.6112085829955,608.6485108330089,,,,,,,,,,,,,200008,005,2023-04-14_11h23.11.694,DMS_et_12-36,2022.2.4,None,
84,UNPRED,12,0.5780270875942474,2,images/picture_3.png,images/picture_1.png,0,"[-11.733433509789462, 11.733433509789464]",-11.733433509789462,11.733433509789464,images/picture_2.png,1,"[11.733433509789462, -11.733433509789466]",11.733433509789462,-11.733433509789464,images/picture_3.png,2,"[11.733433509789464, 11.733433509789462]",11.733433509789464,11.733433509789462,0,1,1,0.5780270875942474,1.5780270875942477,1.4219729124057523,3.0,1,1.3280270875942477,0,4.0,3.0,1,2,9,0,9,0,0,0,0,3,,,,,,,608.6485108330089,608.6485108330089,609.6505216659862,609.9837341249804,610.2169944999914,610.2169944999914,610.2169944999914,611.6358031659911,611.6500604999892,611.6500604999892,611.6500604999892,612.6511075409944,200008,005,2023-04-14_11h23.11.694,DMS_et_12-36,2022.2.4,None,
81,UNPRED,12,0.5780270875942474,1,images/picture_2.png,images/picture_1.png,0,"[11.733433509789464, 11.733433509789462]",11.733433509789464,11.733433509789462,images/picture_2.png,1,"[-11.733433509789462, 11.733433509789464]",-11.733433509789462,11.733433509789464,images/picture_3.png,2,"[11.733433509789462, -11.733433509789466]",11.733433509789462,-11.733433509789464,0,1,1,0.5780270875942474,1.5780270875942477,1.4219729124057523,3.0,1,1.3280270875942477,0,4.0,3.0,1,2,9,0,9,0,0,1,1,0,,,,,,,612.6511075409944,612.6511075409944,613.6504454159876,613.9839219999849,614.2170786249917,614.2170786249917,614.2170786249917,615.6504767499864,615.6504767499864,615.6504767499864,615.6504767499864,616.6500232910039,200008,005,2023-04-14_11h23.11.694,DMS_et_12-36,2022.2.4,None,
87,UNPRED,12,0.5780270875942474,1,images/picture_2.png,images/picture_1.png,0,"[11.733433509789462, -11.733433509789466]",11.733433509789462,-11.733433509789464,images/picture_2.png,1,"[11.733433509789464, 11.733433509789462]",11.733433509789464,11.733433509789462,images/picture_3.png,2,"[-11.733433509789462, 11.733433509789464]",-11.733433509789462,11.733433509789464,0,1,1,0.5780270875942474,1.5780270875942477,1.4219729124057523,3.0,1,1.3280270875942477,0,4.0,3.0,1,2,9,0,9,0,0,2,2,6,,,,,,,616.6500232910039,616.6500232910039,617.6504378749814,617.9837368750013,618.217027125007,618.217027125007,618.217027125007,619.6504118749872,619.6504118749872,619.6504118749872,619.6504118749872,620.6499361250026,200008,005,2023-04-14_11h23.11.694,DMS_et_12-36,2022.2.4,None,
85,UNPRED,12,0.5780270875942474,0,images/picture_1.png,images/picture_1.png,0,"[-11.733433509789466, -11.733433509789462]",-11.733433509789464,-11.733433509789462,images/picture_2.png,1,"[-11.733433509789462, 11.733433509789464]",-11.733433509789462,11.733433509789464,images/picture_3.png,2,"[11.733433509789464, 11.733433509789462]",11.733433509789464,11.733433509789462,0,1,1,0.5780270875942474,1.5780270875942477,1.4219729124057523,3.0,1,1.3280270875942477,0,4.0,3.0,1,2,9,0,9,0,0,3,3,4,,,,,,,620.6499361250026,620.6499361250026,621.6505546249973,621.9835307909816,622.2167654579971,622.2167654579971,622.2167654579971,623.6504502909956,623.6504502909956,623.6504502909956,623.6504502909956,624.6493799579912,200008,005,2023-04-14_11h23.11.694,DMS_et_12-36,2022.2.4,None,
89,UNPRED,12,0.5780270875942474,1,images/picture_2.png,images/picture_1.png,0,"[-11.733433509789466, -11.733433509789462]",-11.733433509789464,-11.733433509789462,images/picture_2.png,1,"[11.733433509789462, -11.733433509789466]",11.733433509789462,-11.733433509789464,images/picture_3.png,2,"[11.733433509789464, 11.733433509789462]",11.733433509789464,11.733433509789462,0,1,1,0.5780270875942474,1.5780270875942477,1.4219729124057523,3.0,1,1.3280270875942477,0,4.0,3.0,1,2,9,0,9,0,0,4,4,8,,,,,,,624.6493799579912,624.6493799579912,625.6504554160056,625.9837100410077,626.2169871660008,626.2169871660008,626.2169871660008,627.6505419999885,627.6505419999885,627.6505419999885,627.6505419999885,628.6497875000059,200008,005,2023-04-14_11h23.11.694,DMS_et_12-36,2022.2.4,None,
82,UNPRED,12,0.5780270875942474,0,images/picture_1.png,images/picture_1.png,0,"[-11.733433509789462, 11.733433509789464]",-11.733433509789462,11.733433509789464,images/picture_2.png,1,"[11.733433509789462, -11.733433509789466]",11.733433509789462,-11.733433509789464,images/picture_3.png,2,"[11.733433509789464, 11.733433509789462]",11.733433509789464,11.733433509789462,0,1,1,0.5780270875942474,1.5780270875942477,1.4219729124057523,3.0,1,1.3280270875942477,0,4.0,3.0,1,2,9,0,9,0,0,5,5,1,,,,,,,628.6497875000059,628.6497875000059,629.6504578749882,629.9837014579971,630.2172030000074,630.2172030000074,630.2172030000074,631.6503687079821,631.6503687079821,631.6503687079821,631.6503687079821,632.6688867500052,200008,005,2023-04-14_11h23.11.694,DMS_et_12-36,2022.2.4,None,
88,UNPRED,12,0.5780270875942474,2,images/picture_3.png,images/picture_1.png,0,"[-11.733433509789466, -11.733433509789462]",-11.733433509789464,-11.733433509789462,images/picture_2.png,1,"[11.733433509789464, 11.733433509789462]",11.733433509789464,11.733433509789462,images/picture_3.png,2,"[11.733433509789462, -11.733433509789466]",11.733433509789462,-11.733433509789464,0,1,1,0.5780270875942474,1.5780270875942477,1.4219729124057523,3.0,1,1.3280270875942477,0,4.0,3.0,1,2,9,0,9,0,0,6,6,7,,,,,,,632.6688867500052,632.6688867500052,633.6837066659937,634.0038542909897,634.2170002909843,634.2170002909843,634.2170002909843,635.6504989579844,635.6504989579844,635.6504989579844,635.6504989579844,636.669788500003,200008,005,2023-04-14_11h23.11.694,DMS_et_12-36,2022.2.4,None,
86,UNPRED,12,0.5780270875942474,1,images/picture_2.png,images/picture_1.png,0,"[-11.733433509789462, 11.733433509789464]",-11.733433509789462,11.733433509789464,images/picture_2.png,1,"[11.733433509789464, 11.733433509789462]",11.733433509789464,11.733433509789462,images/picture_3.png,2,"[-11.733433509789466, -11.733433509789462]",-11.733433509789464,-11.733433509789462,0,1,1,0.5780270875942474,1.5780270875942477,1.4219729124057523,3.0,1,1.3280270875942477,0,4.0,3.0,1,2,9,0,9,0,0,7,7,5,,,,,,,636.669788500003,636.669788500003,637.6837018750084,638.0032347909873,638.2170097499911,638.2170097499911,638.2170097499911,639.6505194999918,639.6505194999918,639.6505194999918,639.6505194999918,640.6498307079892,200008,005,2023-04-14_11h23.11.694,DMS_et_12-36,2022.2.4,None,
83,UNPRED,12,0.5780270875942474,0,images/picture_1.png,images/picture_1.png,0,"[-11.733433509789466, -11.733433509789462]",-11.733433509789464,-11.733433509789462,images/picture_2.png,1,"[-11.733433509789462, 11.733433509789464]",-11.733433509789462,11.733433509789464,images/picture_3.png,2,"[11.733433509789464, 11.733433509789462]",11.733433509789464,11.733433509789462,0,1,1,0.5780270875942474,1.5780270875942477,1.4219729124057523,3.0,1,1.3280270875942477,0,4.0,3.0,1,2,9,0,9,0,0,8,8,2,,,,,,,640.6498307079892,640.6498307079892,641.6504869159835,641.983728207997,642.2170477499894,642.2170477499894,642.2170477499894,643.6504330000025,643.6504330000025,643.6504330000025,643.6504330000025,644.7502982080041,200008,005,2023-04-14_11h23.11.694,DMS_et_12-36,2022.2.4,None,
,,,,,,,,,,,,,,,,,,,,,,,,,,,,,,,,,,,9,0,9,0,,,,,,,,,644.7502982080041,656.7769131659879,,,,,,,,,,,,,200008,005,2023-04-14_11h23.11.694,DMS_et_12-36,2022.2.4,None,
95,PRED,12,0.5780270875942474,1,images/picture_2.png,images/picture_1.png,0,"[11.733433509789462, -11.733433509789466]",11.733433509789462,-11.733433509789464,images/picture_2.png,1,"[11.733433509789464, 11.733433509789462]",11.733433509789464,11.733433509789462,images/picture_3.png,2,"[-11.733433509789462, 11.733433509789464]",-11.733433509789462,11.733433509789464,0,1,1,0.5780270875942474,1.5780270875942477,1.4219729124057523,3.0,1,1.3280270875942477,0,4.0,3.0,1,2,10,0,10,0,0,0,0,5,,,,,,,656.7769131659879,656.7769131659879,657.7836723749933,658.1172050829919,658.350722083007,658.350722083007,658.350722083007,659.7698067080055,659.7838855829905,659.7838855829905,659.7838855829905,660.7830818329821,200008,005,2023-04-14_11h23.11.694,DMS_et_12-36,2022.2.4,None,
91,PRED,12,0.5780270875942474,1,images/picture_2.png,images/picture_1.png,0,"[11.733433509789462, -11.733433509789466]",11.733433509789462,-11.733433509789464,images/picture_2.png,1,"[-11.733433509789466, -11.733433509789462]",-11.733433509789464,-11.733433509789462,images/picture_3.png,2,"[11.733433509789464, 11.733433509789462]",11.733433509789464,11.733433509789462,0,1,1,0.5780270875942474,1.5780270875942477,1.4219729124057523,3.0,1,1.3280270875942477,0,4.0,3.0,1,2,10,0,10,0,0,1,1,1,,,,,,,660.7830818329821,660.7830818329821,661.7839022080007,662.116979915998,662.3504651249968,662.3504651249968,662.3504651249968,663.7834371659847,663.7834371659847,663.7834371659847,663.7834371659847,664.7833939999982,200008,005,2023-04-14_11h23.11.694,DMS_et_12-36,2022.2.4,None,
93,PRED,12,0.5780270875942474,1,images/picture_2.png,images/picture_1.png,0,"[-11.733433509789462, 11.733433509789464]",-11.733433509789462,11.733433509789464,images/picture_2.png,1,"[-11.733433509789466, -11.733433509789462]",-11.733433509789464,-11.733433509789462,images/picture_3.png,2,"[11.733433509789464, 11.733433509789462]",11.733433509789464,11.733433509789462,0,1,1,0.5780270875942474,1.5780270875942477,1.4219729124057523,3.0,1,1.3280270875942477,0,4.0,3.0,1,2,10,0,10,0,0,2,2,3,,,,,,,664.7833939999982,664.7833939999982,665.7837411660003,666.1172349579865,666.3504631659889,666.3504631659889,666.3504631659889,667.7836046250013,667.7836046250013,667.7836046250013,667.7836046250013,668.7831642079982,200008,005,2023-04-14_11h23.11.694,DMS_et_12-36,2022.2.4,None,
94,PRED,12,0.5780270875942474,1,images/picture_2.png,images/picture_1.png,0,"[-11.733433509789466, -11.733433509789462]",-11.733433509789464,-11.733433509789462,images/picture_2.png,1,"[11.733433509789462, -11.733433509789466]",11.733433509789462,-11.733433509789464,images/picture_3.png,2,"[-11.733433509789462, 11.733433509789464]",-11.733433509789462,11.733433509789464,0,1,1,0.5780270875942474,1.5780270875942477,1.4219729124057523,3.0,1,1.3280270875942477,0,4.0,3.0,1,2,10,0,10,0,0,3,3,4,,,,,,,668.7831642079982,668.7831642079982,669.7837274580088,670.1171777079871,670.3504656250007,670.3504656250007,670.3504656250007,671.7839794580068,671.7839794580068,671.7839794580068,671.7839794580068,672.7832713749958,200008,005,2023-04-14_11h23.11.694,DMS_et_12-36,2022.2.4,None,
98,PRED,12,0.5780270875942474,1,images/picture_2.png,images/picture_1.png,0,"[11.733433509789464, 11.733433509789462]",11.733433509789464,11.733433509789462,images/picture_2.png,1,"[11.733433509789462, -11.733433509789466]",11.733433509789462,-11.733433509789464,images/picture_3.png,2,"[-11.733433509789466, -11.733433509789462]",-11.733433509789464,-11.733433509789462,0,1,1,0.5780270875942474,1.5780270875942477,1.4219729124057523,3.0,1,1.3280270875942477,0,4.0,3.0,1,2,10,0,10,0,0,4,4,8,,,,,,,672.7832713749958,672.7832713749958,673.783530582994,674.1167943330074,674.3504012909834,674.3504012909834,674.3504012909834,675.7837695409835,675.7837695409835,675.7837695409835,675.7837695409835,676.7831784999871,200008,005,2023-04-14_11h23.11.694,DMS_et_12-36,2022.2.4,None,
97,PRED,12,0.5780270875942474,1,images/picture_2.png,images/picture_1.png,0,"[11.733433509789462, -11.733433509789466]",11.733433509789462,-11.733433509789464,images/picture_2.png,1,"[-11.733433509789462, 11.733433509789464]",-11.733433509789462,11.733433509789464,images/picture_3.png,2,"[11.733433509789464, 11.733433509789462]",11.733433509789464,11.733433509789462,0,1,1,0.5780270875942474,1.5780270875942477,1.4219729124057523,3.0,1,1.3280270875942477,0,4.0,3.0,1,2,10,0,10,0,0,5,5,7,,,,,,,676.7831784999871,676.7831784999871,677.7837482079922,678.1172326249944,678.3503961249953,678.3503961249953,678.3503961249953,679.783809665998,679.783809665998,679.783809665998,679.783809665998,680.783149875002,200008,005,2023-04-14_11h23.11.694,DMS_et_12-36,2022.2.4,None,
92,PRED,12,0.5780270875942474,1,images/picture_2.png,images/picture_1.png,0,"[-11.733433509789466, -11.733433509789462]",-11.733433509789464,-11.733433509789462,images/picture_2.png,1,"[11.733433509789462, -11.733433509789466]",11.733433509789462,-11.733433509789464,images/picture_3.png,2,"[11.733433509789464, 11.733433509789462]",11.733433509789464,11.733433509789462,0,1,1,0.5780270875942474,1.5780270875942477,1.4219729124057523,3.0,1,1.3280270875942477,0,4.0,3.0,1,2,10,0,10,0,0,6,6,2,,,,,,,680.783149875002,680.783149875002,681.783763540996,682.1171632079931,682.3504866659932,682.3504866659932,682.3504866659932,683.7838365409989,683.7838365409989,683.7838365409989,683.7838365409989,684.7826519579976,200008,005,2023-04-14_11h23.11.694,DMS_et_12-36,2022.2.4,None,
90,PRED,12,0.5780270875942474,1,images/picture_2.png,images/picture_1.png,0,"[-11.733433509789466, -11.733433509789462]",-11.733433509789464,-11.733433509789462,images/picture_2.png,1,"[11.733433509789464, 11.733433509789462]",11.733433509789464,11.733433509789462,images/picture_3.png,2,"[11.733433509789462, -11.733433509789466]",11.733433509789462,-11.733433509789464,0,1,1,0.5780270875942474,1.5780270875942477,1.4219729124057523,3.0,1,1.3280270875942477,0,4.0,3.0,1,2,10,0,10,0,0,7,7,0,,,,,,,684.7826519579976,684.7826519579976,685.7835643749859,686.1169380829961,686.3504217079899,686.3504217079899,686.3504217079899,687.7837884159817,687.7837884159817,687.7837884159817,687.7837884159817,688.7833398749935,200008,005,2023-04-14_11h23.11.694,DMS_et_12-36,2022.2.4,None,
96,PRED,12,0.5780270875942474,1,images/picture_2.png,images/picture_1.png,0,"[11.733433509789464, 11.733433509789462]",11.733433509789464,11.733433509789462,images/picture_2.png,1,"[11.733433509789462, -11.733433509789466]",11.733433509789462,-11.733433509789464,images/picture_3.png,2,"[-11.733433509789466, -11.733433509789462]",-11.733433509789464,-11.733433509789462,0,1,1,0.5780270875942474,1.5780270875942477,1.4219729124057523,3.0,1,1.3280270875942477,0,4.0,3.0,1,2,10,0,10,0,0,8,8,6,,,,,,,688.7833398749935,688.7833398749935,689.7836505000014,690.1171435409924,690.3504337499908,690.3504337499908,690.3504337499908,691.7837783749856,691.7837783749856,691.7837783749856,691.7837783749856,692.896381041006,200008,005,2023-04-14_11h23.11.694,DMS_et_12-36,2022.2.4,None,
,,,,,,,,,,,,,,,,,,,,,,,,,,,,,,,,,,,10,0,10,0,,,,,,,,,692.896381041006,704.910857040988,,,,,,,,,,,,,200008,005,2023-04-14_11h23.11.694,DMS_et_12-36,2022.2.4,None,
106,UNPRED,12,0.5780270875942474,0,images/picture_1.png,images/picture_1.png,0,"[-11.733433509789462, 11.733433509789464]",-11.733433509789462,11.733433509789464,images/picture_2.png,1,"[11.733433509789462, -11.733433509789466]",11.733433509789462,-11.733433509789464,images/picture_3.png,2,"[-11.733433509789466, -11.733433509789462]",-11.733433509789464,-11.733433509789462,0,1,1,0.5780270875942474,1.5780270875942477,1.4219729124057523,3.0,1,1.3280270875942477,0,4.0,3.0,1,2,11,0,11,0,0,0,0,7,,,,,,,704.910857040988,704.910857040988,705.917005041003,706.2505604579928,706.4837030000053,706.4837030000053,706.4837030000053,707.9172818750085,707.9172818750085,707.9172818750085,707.9172818750085,708.9360503329954,200008,005,2023-04-14_11h23.11.694,DMS_et_12-36,2022.2.4,None,
104,UNPRED,12,0.5780270875942474,2,images/picture_3.png,images/picture_1.png,0,"[11.733433509789464, 11.733433509789462]",11.733433509789464,11.733433509789462,images/picture_2.png,1,"[11.733433509789462, -11.733433509789466]",11.733433509789462,-11.733433509789464,images/picture_3.png,2,"[-11.733433509789462, 11.733433509789464]",-11.733433509789462,11.733433509789464,0,1,1,0.5780270875942474,1.5780270875942477,1.4219729124057523,3.0,1,1.3280270875942477,0,4.0,3.0,1,2,11,0,11,0,0,1,1,5,,,,,,,708.9360503329954,708.9360503329954,709.950425957999,710.2697779159935,710.4836938329972,710.4836938329972,710.4836938329972,711.9171705000044,711.9171705000044,711.9171705000044,711.9171705000044,712.9356414159993,200008,005,2023-04-14_11h23.11.694,DMS_et_12-36,2022.2.4,None,
102,UNPRED,12,0.5780270875942474,2,images/picture_3.png,images/picture_1.png,0,"[-11.733433509789466, -11.733433509789462]",-11.733433509789464,-11.733433509789462,images/picture_2.png,1,"[11.733433509789462, -11.733433509789466]",11.733433509789462,-11.733433509789464,images/picture_3.png,2,"[-11.733433509789462, 11.733433509789464]",-11.733433509789462,11.733433509789464,0,1,1,0.5780270875942474,1.5780270875942477,1.4219729124057523,3.0,1,1.3280270875942477,0,4.0,3.0,1,2,11,0,11,0,0,2,2,3,,,,,,,712.9356414159993,712.9356414159993,713.9504259999958,714.2688326250063,714.4834070409997,714.4834070409997,714.4834070409997,715.917254540982,715.917254540982,715.917254540982,715.917254540982,716.9170260829851,200008,005,2023-04-14_11h23.11.694,DMS_et_12-36,2022.2.4,None,
101,UNPRED,12,0.5780270875942474,0,images/picture_1.png,images/picture_1.png,0,"[11.733433509789462, -11.733433509789466]",11.733433509789462,-11.733433509789464,images/picture_2.png,1,"[-11.733433509789466, -11.733433509789462]",-11.733433509789464,-11.733433509789462,images/picture_3.png,2,"[-11.733433509789462, 11.733433509789464]",-11.733433509789462,11.733433509789464,0,1,1,0.5780270875942474,1.5780270875942477,1.4219729124057523,3.0,1,1.3280270875942477,0,4.0,3.0,1,2,11,0,11,0,0,3,3,2,,,,,,,716.9170260829851,716.9170260829851,717.9171798329917,718.2504771660024,718.4836973749916,718.4836973749916,718.4836973749916,719.916953915992,719.916953915992,719.916953915992,719.916953915992,720.9165062079846,200008,005,2023-04-14_11h23.11.694,DMS_et_12-36,2022.2.4,None,
103,UNPRED,12,0.5780270875942474,0,images/picture_1.png,images/picture_1.png,0,"[-11.733433509789466, -11.733433509789462]",-11.733433509789464,-11.733433509789462,images/picture_2.png,1,"[11.733433509789464, 11.733433509789462]",11.733433509789464,11.733433509789462,images/picture_3.png,2,"[11.733433509789462, -11.733433509789466]",11.733433509789462,-11.733433509789464,0,1,1,0.5780270875942474,1.5780270875942477,1.4219729124057523,3.0,1,1.3280270875942477,0,4.0,3.0,1,2,11,0,11,0,0,4,4,4,,,,,,,720.9165062079846,720.9165062079846,721.9169915409875,722.2504540829977,722.4837388749875,722.4837388749875,722.4837388749875,723.9171759159944,723.9171759159944,723.9171759159944,723.9171759159944,724.9168509999872,200008,005,2023-04-14_11h23.11.694,DMS_et_12-36,2022.2.4,None,
107,UNPRED,12,0.5780270875942474,1,images/picture_2.png,images/picture_1.png,0,"[11.733433509789464, 11.733433509789462]",11.733433509789464,11.733433509789462,images/picture_2.png,1,"[-11.733433509789466, -11.733433509789462]",-11.733433509789464,-11.733433509789462,images/picture_3.png,2,"[11.733433509789462, -11.733433509789466]",11.733433509789462,-11.733433509789464,0,1,1,0.5780270875942474,1.5780270875942477,1.4219729124057523,3.0,1,1.3280270875942477,0,4.0,3.0,1,2,11,0,11,0,0,5,5,8,,,,,,,724.9168509999872,724.9168509999872,725.9169728329871,726.250431374996,726.4836833750014,726.4836833750014,726.4836833750014,727.9169424579886,727.9169424579886,727.9169424579886,727.9169424579886,728.9357754579978,200008,005,2023-04-14_11h23.11.694,DMS_et_12-36,2022.2.4,None,
100,UNPRED,12,0.5780270875942474,2,images/picture_3.png,images/picture_1.png,0,"[11.733433509789464, 11.733433509789462]",11.733433509789464,11.733433509789462,images/picture_2.png,1,"[-11.733433509789466, -11.733433509789462]",-11.733433509789464,-11.733433509789462,images/picture_3.png,2,"[11.733433509789462, -11.733433509789466]",11.733433509789462,-11.733433509789464,0,1,1,0.5780270875942474,1.5780270875942477,1.4219729124057523,3.0,1,1.3280270875942477,0,4.0,3.0,1,2,11,0,11,0,0,6,6,1,,,,,,,728.9357754579978,728.9357754579978,729.950447457988,730.2703375830024,730.4837709160056,730.4837709160056,730.4837709160056,731.9169489159831,731.9169489159831,731.9169489159831,731.9169489159831,732.9165522079857,200008,005,2023-04-14_11h23.11.694,DMS_et_12-36,2022.2.4,None,
105,UNPRED,12,0.5780270875942474,1,images/picture_2.png,images/picture_1.png,0,"[11.733433509789462, -11.733433509789466]",11.733433509789462,-11.733433509789464,images/picture_2.png,1,"[-11.733433509789466, -11.733433509789462]",-11.733433509789464,-11.733433509789462,images/picture_3.png,2,"[-11.733433509789462, 11.733433509789464]",-11.733433509789462,11.733433509789464,0,1,1,0.5780270875942474,1.5780270875942477,1.4219729124057523,3.0,1,1.3280270875942477,0,4.0,3.0,1,2,11,0,11,0,0,7,7,6,,,,,,,732.9165522079857,732.9165522079857,733.9169856249937,734.2504137909855,734.4837318749924,734.4837318749924,734.4837318749924,735.9171679579886,735.9171679579886,735.9171679579886,735.9171679579886,736.9160237080068,200008,005,2023-04-14_11h23.11.694,DMS_et_12-36,2022.2.4,None,
99,UNPRED,12,0.5780270875942474,0,images/picture_1.png,images/picture_1.png,0,"[-11.733433509789466, -11.733433509789462]",-11.733433509789464,-11.733433509789462,images/picture_2.png,1,"[-11.733433509789462, 11.733433509789464]",-11.733433509789462,11.733433509789464,images/picture_3.png,2,"[11.733433509789464, 11.733433509789462]",11.733433509789464,11.733433509789462,0,1,1,0.5780270875942474,1.5780270875942477,1.4219729124057523,3.0,1,1.3280270875942477,0,4.0,3.0,1,2,11,0,11,0,0,8,8,0,,,,,,,736.9160237080068,736.9160237080068,737.9167607499985,738.2504441659839,738.4837492909865,738.4837492909865,738.4837492909865,739.9169733749877,739.9169733749877,739.9169733749877,739.9169733749877,741.085154957982,200008,005,2023-04-14_11h23.11.694,DMS_et_12-36,2022.2.4,None,
,,,,,,,,,,,,,,,,,,,,,,,,,,,,,,,,,,,11,0,11,0,,,,,,,,,741.085154957982,753.2124660410045,,,,,,,,,,,,,200008,005,2023-04-14_11h23.11.694,DMS_et_12-36,2022.2.4,None,
,,,,,,,,,,,,,,,,,,,,,,,,,,,,,,,,,,,,,,,,,,,,,,,753.2124660410045,765.7295179159846,,,,,,,,,,,,,,,,,,,
