trial_count,blockType,blockNum,delay_time,stimImage_i,stimImage,responseImage1,responseImage1_i,responseImage1_pos,responseImage1_X,responseImage1_Y,responseImage2,responseImage2_i,responseImage2_pos,responseImage2_X,responseImage2_Y,responseImage3,responseImage3_i,responseImage3_pos,responseImage3_X,responseImage3_Y,cue_onset,cue_dur,delay_onset,delay_dur,resp_onset,resp_dur,rest_onset,rest_dur,circle_dur,circle_onset,blocks.thisRepN,blocks.thisTrialN,blocks.thisN,blocks.thisIndex,trials.thisRepN,trials.thisTrialN,trials.thisN,trials.thisIndex,key_resp.started,text.started,key_resp.keys,key_resp.rt,text_2.started,text_2.stopped,etRecord.started,sample.started,Delay.started,sample.stopped,Delay.stopped,Response_1.started,Response_2.started,Response_3.started,Response_1.stopped,Response_2.stopped,Response_3.stopped,polygon.started,etRecord.stopped,polygon.stopped,participant,session,date,expName,psychopyVersion,frameRate,
,,,,,,,,,,,,,,,,,,,,,,,,,,,,,,,,,,,,,,,19.156561374955345,19.156561374955345,t,39.55314791703131,,,,,,,,,,,,,,,,,200002,005,2023-03-16_16h14.00.882,DMS_BEST_eyetracking_DAN_base_12-36_looped_10minWORKING,2022.2.4,None,
2,PRED,12,0.8031576572348741,0,images/picture_1.png,images/picture_1.png,0,"[11.733433509789462, -11.733433509789466]",11.733433509789462,-11.733433509789464,images/picture_2.png,1,"[-11.733433509789462, 11.733433509789464]",-11.733433509789462,11.733433509789464,images/picture_3.png,2,"[-11.733433509789466, -11.733433509789462]",-11.733433509789464,-11.733433509789462,0,1,1,0.8031576572348741,1.803157657234874,1.196842342765126,3,1,1.553157657234874,0,0,0,0,0,0,0,0,2,,,,,58.71643595799105,70.73581983300392,,,,,,,,,,,,,,,200002,005,2023-03-16_16h14.00.882,DMS_BEST_eyetracking_DAN_base_12-36_looped_10minWORKING,2022.2.4,None,
2,PRED,12,0.8031576572348741,0,images/picture_1.png,images/picture_1.png,0,"[11.733433509789462, -11.733433509789466]",11.733433509789462,-11.733433509789464,images/picture_2.png,1,"[-11.733433509789462, 11.733433509789464]",-11.733433509789462,11.733433509789464,images/picture_3.png,2,"[-11.733433509789466, -11.733433509789462]",-11.733433509789464,-11.733433509789462,0,1,1,0.8031576572348741,1.803157657234874,1.196842342765126,3,1,1.553157657234874,0,0,0,0,0,0,0,0,2,,,,,,,0.003713625017553568,70.73581983300392,70.73581983300392,71.75045320799109,72.3027757909731,72.53566041594604,72.53566041594604,72.53566041594604,73.73581683298107,73.73581683298107,73.73581683298107,73.73581683298107,4.01492483302718,74.74979604099644,200002,005,2023-03-16_16h14.00.882,DMS_BEST_eyetracking_DAN_base_12-36_looped_10minWORKING,2022.2.4,None,
8,PRED,12,0.8259764557999083,0,images/picture_1.png,images/picture_1.png,0,"[-11.733433509789466, -11.733433509789462]",-11.733433509789464,-11.733433509789462,images/picture_2.png,1,"[-11.733433509789462, 11.733433509789464]",-11.733433509789462,11.733433509789464,images/picture_3.png,2,"[11.733433509789462, -11.733433509789466]",11.733433509789462,-11.733433509789464,0,1,1,0.8259764557999083,1.8259764557999083,1.1740235442000917,3,1,1.5759764557999083,0,0,0,0,0,0,1,1,8,,,,,,,,,,,,,,,,,,,,,200002,005,2023-03-16_16h14.00.882,DMS_BEST_eyetracking_DAN_base_12-36_looped_10minWORKING,2022.2.4,None,
8,PRED,12,0.8259764557999083,0,images/picture_1.png,images/picture_1.png,0,"[-11.733433509789466, -11.733433509789462]",-11.733433509789464,-11.733433509789462,images/picture_2.png,1,"[-11.733433509789462, 11.733433509789464]",-11.733433509789462,11.733433509789464,images/picture_3.png,2,"[11.733433509789462, -11.733433509789466]",11.733433509789462,-11.733433509789464,0,1,1,0.8259764557999083,1.8259764557999083,1.1740235442000917,3,1,1.5759764557999083,0,0,0,0,0,0,1,1,8,,,,,,,0.0014461670070886612,74.74979604099644,74.74979604099644,75.74998608295573,76.33614070795011,76.56948891596403,76.56948891596403,76.56948891596403,77.74999683297938,77.74999683297938,77.74999683297938,77.74999683297938,3.9986719590378925,78.75006616598694,200002,005,2023-03-16_16h14.00.882,DMS_BEST_eyetracking_DAN_base_12-36_looped_10minWORKING,2022.2.4,None,
0,PRED,12,0.7971894579259621,0,images/picture_1.png,images/picture_1.png,0,"[11.733433509789464, 11.733433509789462]",11.733433509789464,11.733433509789462,images/picture_2.png,1,"[-11.733433509789462, 11.733433509789464]",-11.733433509789462,11.733433509789464,images/picture_3.png,2,"[11.733433509789462, -11.733433509789466]",11.733433509789462,-11.733433509789464,0,1,1,0.7971894579259621,1.797189457925962,1.202810542074038,3,1,1.547189457925962,0,0,0,0,0,0,2,2,0,,,,,,,,,,,,,,,,,,,,,200002,005,2023-03-16_16h14.00.882,DMS_BEST_eyetracking_DAN_base_12-36_looped_10minWORKING,2022.2.4,None,
0,PRED,12,0.7971894579259621,0,images/picture_1.png,images/picture_1.png,0,"[11.733433509789464, 11.733433509789462]",11.733433509789464,11.733433509789462,images/picture_2.png,1,"[-11.733433509789462, 11.733433509789464]",-11.733433509789462,11.733433509789464,images/picture_3.png,2,"[11.733433509789462, -11.733433509789466]",11.733433509789462,-11.733433509789464,0,1,1,0.7971894579259621,1.797189457925962,1.202810542074038,3,1,1.547189457925962,0,0,0,0,0,0,2,2,0,,,,,,,0.0014757500030100346,78.75006616598694,78.75006616598694,79.74975404096767,80.30232633295236,80.54988083295757,80.54988083295757,80.54988083295757,81.75006062496686,81.75006062496686,81.75006062496686,81.75006062496686,3.997987832990475,82.74970474996371,200002,005,2023-03-16_16h14.00.882,DMS_BEST_eyetracking_DAN_base_12-36_looped_10minWORKING,2022.2.4,None,
3,PRED,12,0.8960078017989461,0,images/picture_1.png,images/picture_1.png,0,"[11.733433509789464, 11.733433509789462]",11.733433509789464,11.733433509789462,images/picture_2.png,1,"[-11.733433509789466, -11.733433509789462]",-11.733433509789464,-11.733433509789462,images/picture_3.png,2,"[-11.733433509789462, 11.733433509789464]",-11.733433509789462,11.733433509789464,0,1,1,0.8960078017989461,1.896007801798946,1.103992198201054,3,1,1.646007801798946,0,0,0,0,0,0,3,3,3,,,,,,,,,,,,,,,,,,,,,200002,005,2023-03-16_16h14.00.882,DMS_BEST_eyetracking_DAN_base_12-36_looped_10minWORKING,2022.2.4,None,
3,PRED,12,0.8960078017989461,0,images/picture_1.png,images/picture_1.png,0,"[11.733433509789464, 11.733433509789462]",11.733433509789464,11.733433509789462,images/picture_2.png,1,"[-11.733433509789466, -11.733433509789462]",-11.733433509789464,-11.733433509789462,images/picture_3.png,2,"[-11.733433509789462, 11.733433509789464]",-11.733433509789462,11.733433509789464,0,1,1,0.8960078017989461,1.896007801798946,1.103992198201054,3,1,1.646007801798946,0,0,0,0,0,0,3,3,3,,,,,,,0.0014064579736441374,82.74970474996371,82.74970474996371,83.74999758298509,84.40318449999904,84.6358675409574,84.6358675409574,84.6358675409574,85.74993629095843,85.74993629095843,85.74993629095843,85.74993629095843,3.999348374956753,86.74974912498146,200002,005,2023-03-16_16h14.00.882,DMS_BEST_eyetracking_DAN_base_12-36_looped_10minWORKING,2022.2.4,None,
6,PRED,12,0.9256840256204636,0,images/picture_1.png,images/picture_1.png,0,"[11.733433509789464, 11.733433509789462]",11.733433509789464,11.733433509789462,images/picture_2.png,1,"[-11.733433509789462, 11.733433509789464]",-11.733433509789462,11.733433509789464,images/picture_3.png,2,"[11.733433509789462, -11.733433509789466]",11.733433509789462,-11.733433509789464,0,1,1,0.9256840256204636,1.925684025620464,1.0743159743795363,3,1,1.6756840256204637,0,0,0,0,0,0,4,4,6,,,,,,,,,,,,,,,,,,,,,200002,005,2023-03-16_16h14.00.882,DMS_BEST_eyetracking_DAN_base_12-36_looped_10minWORKING,2022.2.4,None,
6,PRED,12,0.9256840256204636,0,images/picture_1.png,images/picture_1.png,0,"[11.733433509789464, 11.733433509789462]",11.733433509789464,11.733433509789462,images/picture_2.png,1,"[-11.733433509789462, 11.733433509789464]",-11.733433509789462,11.733433509789464,images/picture_3.png,2,"[11.733433509789462, -11.733433509789466]",11.733433509789462,-11.733433509789464,0,1,1,0.9256840256204636,1.925684025620464,1.0743159743795363,3,1,1.6756840256204637,0,0,0,0,0,0,4,4,6,,,,,,,0.0014673330006189644,86.74974912498146,86.74974912498146,87.75035004096571,88.4360064159846,88.66882716596592,88.66882716596592,88.66882716596592,89.74971795798047,89.74971795798047,89.74971795798047,89.74971795798047,3.999542500008829,90.7496230409597,200002,005,2023-03-16_16h14.00.882,DMS_BEST_eyetracking_DAN_base_12-36_looped_10minWORKING,2022.2.4,None,
7,PRED,12,0.7448276747720344,0,images/picture_1.png,images/picture_1.png,0,"[-11.733433509789466, -11.733433509789462]",-11.733433509789464,-11.733433509789462,images/picture_2.png,1,"[-11.733433509789462, 11.733433509789464]",-11.733433509789462,11.733433509789464,images/picture_3.png,2,"[11.733433509789464, 11.733433509789462]",11.733433509789464,11.733433509789462,0,1,1,0.7448276747720344,1.7448276747720344,1.2551723252279656,3,1,1.4948276747720344,0,0,0,0,0,0,5,5,7,,,,,,,,,,,,,,,,,,,,,200002,005,2023-03-16_16h14.00.882,DMS_BEST_eyetracking_DAN_base_12-36_looped_10minWORKING,2022.2.4,None,
7,PRED,12,0.7448276747720344,0,images/picture_1.png,images/picture_1.png,0,"[-11.733433509789466, -11.733433509789462]",-11.733433509789464,-11.733433509789462,images/picture_2.png,1,"[-11.733433509789462, 11.733433509789464]",-11.733433509789462,11.733433509789464,images/picture_3.png,2,"[11.733433509789464, 11.733433509789462]",11.733433509789464,11.733433509789462,0,1,1,0.7448276747720344,1.7448276747720344,1.2551723252279656,3,1,1.4948276747720344,0,0,0,0,0,0,5,5,7,,,,,,,0.0015617920435033739,90.7496230409597,90.7496230409597,91.74955783295445,92.24966354097705,92.48320937500102,92.48320937500102,92.48320937500102,93.74974395800382,93.74974395800382,93.74974395800382,93.74974395800382,3.9973064580117352,94.74982570798602,200002,005,2023-03-16_16h14.00.882,DMS_BEST_eyetracking_DAN_base_12-36_looped_10minWORKING,2022.2.4,None,
5,PRED,12,1.0321507161380747,0,images/picture_1.png,images/picture_1.png,0,"[-11.733433509789466, -11.733433509789462]",-11.733433509789464,-11.733433509789462,images/picture_2.png,1,"[-11.733433509789462, 11.733433509789464]",-11.733433509789462,11.733433509789464,images/picture_3.png,2,"[11.733433509789462, -11.733433509789466]",11.733433509789462,-11.733433509789464,0,1,1,1.0321507161380747,2.0321507161380747,0.9678492838619251,3,1,1.7821507161380747,0,0,0,0,0,0,6,6,5,,,,,,,,,,,,,,,,,,,,,200002,005,2023-03-16_16h14.00.882,DMS_BEST_eyetracking_DAN_base_12-36_looped_10minWORKING,2022.2.4,None,
5,PRED,12,1.0321507161380747,0,images/picture_1.png,images/picture_1.png,0,"[-11.733433509789466, -11.733433509789462]",-11.733433509789464,-11.733433509789462,images/picture_2.png,1,"[-11.733433509789462, 11.733433509789464]",-11.733433509789462,11.733433509789464,images/picture_3.png,2,"[11.733433509789462, -11.733433509789466]",11.733433509789462,-11.733433509789464,0,1,1,1.0321507161380747,2.0321507161380747,0.9678492838619251,3,1,1.7821507161380747,0,0,0,0,0,0,6,6,5,,,,,,,0.0014204999897629023,94.74982570798602,94.74982570798602,95.74966020794818,96.53622487495886,96.78294816595735,96.78294816595735,96.78294816595735,97.75087395799346,97.75087395799346,97.75087395799346,97.75087395799346,3.998612791998312,98.74963316594949,200002,005,2023-03-16_16h14.00.882,DMS_BEST_eyetracking_DAN_base_12-36_looped_10minWORKING,2022.2.4,None,
1,PRED,12,1.1975335505479134,0,images/picture_1.png,images/picture_1.png,0,"[-11.733433509789462, 11.733433509789464]",-11.733433509789462,11.733433509789464,images/picture_2.png,1,"[-11.733433509789466, -11.733433509789462]",-11.733433509789464,-11.733433509789462,images/picture_3.png,2,"[11.733433509789462, -11.733433509789466]",11.733433509789462,-11.733433509789464,0,1,1,1.1975335505479134,2.197533550547913,0.8024664494520866,3,1,1.9475335505479132,0,0,0,0,0,0,7,7,1,,,,,,,,,,,,,,,,,,,,,200002,005,2023-03-16_16h14.00.882,DMS_BEST_eyetracking_DAN_base_12-36_looped_10minWORKING,2022.2.4,None,
1,PRED,12,1.1975335505479134,0,images/picture_1.png,images/picture_1.png,0,"[-11.733433509789462, 11.733433509789464]",-11.733433509789462,11.733433509789464,images/picture_2.png,1,"[-11.733433509789466, -11.733433509789462]",-11.733433509789464,-11.733433509789462,images/picture_3.png,2,"[11.733433509789462, -11.733433509789466]",11.733433509789462,-11.733433509789464,0,1,1,1.1975335505479134,2.197533550547913,0.8024664494520866,3,1,1.9475335505479132,0,0,0,0,0,0,7,7,1,,,,,,,0.0014757500030100346,98.74963316594949,98.74963316594949,99.7497334999498,100.70227895799326,100.94963570794789,100.94963570794789,100.94963570794789,101.74969258299097,101.74969258299097,101.74969258299097,101.74969258299097,3.9986916669877246,102.74945374997333,200002,005,2023-03-16_16h14.00.882,DMS_BEST_eyetracking_DAN_base_12-36_looped_10minWORKING,2022.2.4,None,
4,PRED,12,0.5601608018402878,0,images/picture_1.png,images/picture_1.png,0,"[11.733433509789462, -11.733433509789466]",11.733433509789462,-11.733433509789464,images/picture_2.png,1,"[11.733433509789464, 11.733433509789462]",11.733433509789464,11.733433509789462,images/picture_3.png,2,"[-11.733433509789462, 11.733433509789464]",-11.733433509789462,11.733433509789464,0,1,1,0.5601608018402878,1.5601608018402875,1.4398391981597125,3,1,1.3101608018402875,0,0,0,0,0,0,8,8,4,,,,,,,,,,,,,,,,,,,,,200002,005,2023-03-16_16h14.00.882,DMS_BEST_eyetracking_DAN_base_12-36_looped_10minWORKING,2022.2.4,None,
4,PRED,12,0.5601608018402878,0,images/picture_1.png,images/picture_1.png,0,"[11.733433509789462, -11.733433509789466]",11.733433509789462,-11.733433509789464,images/picture_2.png,1,"[11.733433509789464, 11.733433509789462]",11.733433509789464,11.733433509789462,images/picture_3.png,2,"[-11.733433509789462, 11.733433509789464]",-11.733433509789462,11.733433509789464,0,1,1,0.5601608018402878,1.5601608018402875,1.4398391981597125,3,1,1.3101608018402875,0,0,0,0,0,0,8,8,4,,,,,,,0.0015633340226486325,102.74945374997333,102.74945374997333,103.74980695795966,104.06893887498882,104.30230091599515,104.30230091599515,104.30230091599515,105.74971445795381,105.74971445795381,105.74971445795381,105.74971445795381,3.997154375014361,106.76836379099404,200002,005,2023-03-16_16h14.00.882,DMS_BEST_eyetracking_DAN_base_12-36_looped_10minWORKING,2022.2.4,None,
,,,,,,,,,,,,,,,,,,,,,,,,,,,,,,,0,0,0,0,,,,,,,,,106.76836379099404,118.801699582953,,,,,,,,,,,,,,,200002,005,2023-03-16_16h14.00.882,DMS_BEST_eyetracking_DAN_base_12-36_looped_10minWORKING,2022.2.4,None,
15,UNPRED,12,0.8422467904902013,0,images/picture_1.png,images/picture_1.png,0,"[-11.733433509789466, -11.733433509789462]",-11.733433509789464,-11.733433509789462,images/picture_2.png,1,"[11.733433509789464, 11.733433509789462]",11.733433509789464,11.733433509789462,images/picture_3.png,2,"[-11.733433509789462, 11.733433509789464]",-11.733433509789462,11.733433509789464,0,1,1,0.8422467904902013,1.8422467904902011,1.1577532095097989,3,1,1.5922467904902011,0,1,0,1,0,0,0,0,6,,,,,,,,,,,,,,,,,,,,,200002,005,2023-03-16_16h14.00.882,DMS_BEST_eyetracking_DAN_base_12-36_looped_10minWORKING,2022.2.4,None,
15,UNPRED,12,0.8422467904902013,0,images/picture_1.png,images/picture_1.png,0,"[-11.733433509789466, -11.733433509789462]",-11.733433509789464,-11.733433509789462,images/picture_2.png,1,"[11.733433509789464, 11.733433509789462]",11.733433509789464,11.733433509789462,images/picture_3.png,2,"[-11.733433509789462, 11.733433509789464]",-11.733433509789462,11.733433509789464,0,1,1,0.8422467904902013,1.8422467904902011,1.1577532095097989,3,1,1.5922467904902011,0,1,0,1,0,0,0,0,6,,,,,,,0.001918082998599857,118.801699582953,118.801699582953,119.81621274998179,120.40255816595163,120.63495937496191,120.63495937496191,120.63495937496191,121.80152124998858,121.80152124998858,121.80152124998858,121.78260033298284,4.023669875052292,122.78325058298651,200002,005,2023-03-16_16h14.00.882,DMS_BEST_eyetracking_DAN_base_12-36_looped_10minWORKING,2022.2.4,None,
11,UNPRED,12,0.6185531306141413,1,images/picture_2.png,images/picture_1.png,0,"[-11.733433509789462, 11.733433509789464]",-11.733433509789462,11.733433509789464,images/picture_2.png,1,"[11.733433509789462, -11.733433509789466]",11.733433509789462,-11.733433509789464,images/picture_3.png,2,"[11.733433509789464, 11.733433509789462]",11.733433509789464,11.733433509789462,0,1,1,0.6185531306141413,1.6185531306141412,1.3814468693858588,3,1,1.3685531306141412,0,1,0,1,0,0,1,1,2,,,,,,,,,,,,,,,,,,,,,200002,005,2023-03-16_16h14.00.882,DMS_BEST_eyetracking_DAN_base_12-36_looped_10minWORKING,2022.2.4,None,
11,UNPRED,12,0.6185531306141413,1,images/picture_2.png,images/picture_1.png,0,"[-11.733433509789462, 11.733433509789464]",-11.733433509789462,11.733433509789464,images/picture_2.png,1,"[11.733433509789462, -11.733433509789466]",11.733433509789462,-11.733433509789464,images/picture_3.png,2,"[11.733433509789464, 11.733433509789462]",11.733433509789464,11.733433509789462,0,1,1,0.6185531306141413,1.6185531306141412,1.3814468693858588,3,1,1.3685531306141412,0,1,0,1,0,0,1,1,2,,,,,,,0.00370870903134346,122.81543849996524,122.81543849996524,123.81601258297451,124.18279270798666,124.43478787498316,124.43478787498316,124.43478787498316,125.816372207948,125.816372207948,125.816372207948,125.816372207948,3.9973352500237525,126.81621191598242,200002,005,2023-03-16_16h14.00.882,DMS_BEST_eyetracking_DAN_base_12-36_looped_10minWORKING,2022.2.4,None,
12,UNPRED,12,1.1746947019469838,1,images/picture_2.png,images/picture_1.png,0,"[-11.733433509789462, 11.733433509789464]",-11.733433509789462,11.733433509789464,images/picture_2.png,1,"[-11.733433509789466, -11.733433509789462]",-11.733433509789464,-11.733433509789462,images/picture_3.png,2,"[11.733433509789464, 11.733433509789462]",11.733433509789464,11.733433509789462,0,1,1,1.1746947019469838,2.174694701946984,0.8253052980530162,3,1,1.924694701946984,0,1,0,1,0,0,2,2,3,,,,,,,,,,,,,,,,,,,,,200002,005,2023-03-16_16h14.00.882,DMS_BEST_eyetracking_DAN_base_12-36_looped_10minWORKING,2022.2.4,None,
12,UNPRED,12,1.1746947019469838,1,images/picture_2.png,images/picture_1.png,0,"[-11.733433509789462, 11.733433509789464]",-11.733433509789462,11.733433509789464,images/picture_2.png,1,"[-11.733433509789466, -11.733433509789462]",-11.733433509789464,-11.733433509789462,images/picture_3.png,2,"[11.733433509789464, 11.733433509789462]",11.733433509789464,11.733433509789462,0,1,1,1.1746947019469838,2.174694701946984,0.8253052980530162,3,1,1.924694701946984,0,1,0,1,0,0,2,2,3,,,,,,,0.00209145899862051,126.81621191598242,126.81621191598242,127.8160563329584,128.7492994159693,128.98262958298437,128.98262958298437,128.98262958298437,129.8159110409906,129.8159110409906,129.8159110409906,129.8159110409906,3.9980994170182385,130.81559754098998,200002,005,2023-03-16_16h14.00.882,DMS_BEST_eyetracking_DAN_base_12-36_looped_10minWORKING,2022.2.4,None,
16,UNPRED,12,0.8701966050050761,0,images/picture_1.png,images/picture_1.png,0,"[-11.733433509789466, -11.733433509789462]",-11.733433509789464,-11.733433509789462,images/picture_2.png,1,"[-11.733433509789462, 11.733433509789464]",-11.733433509789462,11.733433509789464,images/picture_3.png,2,"[11.733433509789464, 11.733433509789462]",11.733433509789464,11.733433509789462,0,1,1,0.8701966050050761,1.870196605005076,1.1298033949949238,3,1,1.6201966050050762,0,1,0,1,0,0,3,3,7,,,,,,,,,,,,,,,,,,,,,200002,005,2023-03-16_16h14.00.882,DMS_BEST_eyetracking_DAN_base_12-36_looped_10minWORKING,2022.2.4,None,
16,UNPRED,12,0.8701966050050761,0,images/picture_1.png,images/picture_1.png,0,"[-11.733433509789466, -11.733433509789462]",-11.733433509789464,-11.733433509789462,images/picture_2.png,1,"[-11.733433509789462, 11.733433509789464]",-11.733433509789462,11.733433509789464,images/picture_3.png,2,"[11.733433509789464, 11.733433509789462]",11.733433509789464,11.733433509789462,0,1,1,0.8701966050050761,1.870196605005076,1.1298033949949238,3,1,1.6201966050050762,0,1,0,1,0,0,3,3,7,,,,,,,0.0029795829905197024,130.81559754098998,130.81559754098998,131.81623008300085,132.4492756659747,132.68247495795367,132.68247495795367,132.68247495795367,133.81596266594715,133.81596266594715,133.81596266594715,133.81596266594715,3.9972659579943866,134.81589174998226,200002,005,2023-03-16_16h14.00.882,DMS_BEST_eyetracking_DAN_base_12-36_looped_10minWORKING,2022.2.4,None,
17,UNPRED,12,0.5882608131147126,0,images/picture_1.png,images/picture_1.png,0,"[11.733433509789464, 11.733433509789462]",11.733433509789464,11.733433509789462,images/picture_2.png,1,"[-11.733433509789466, -11.733433509789462]",-11.733433509789464,-11.733433509789462,images/picture_3.png,2,"[-11.733433509789462, 11.733433509789464]",-11.733433509789462,11.733433509789464,0,1,1,0.5882608131147126,1.5882608131147125,1.4117391868852875,3,1,1.3382608131147125,0,1,0,1,0,0,4,4,8,,,,,,,,,,,,,,,,,,,,,200002,005,2023-03-16_16h14.00.882,DMS_BEST_eyetracking_DAN_base_12-36_looped_10minWORKING,2022.2.4,None,
17,UNPRED,12,0.5882608131147126,0,images/picture_1.png,images/picture_1.png,0,"[11.733433509789464, 11.733433509789462]",11.733433509789464,11.733433509789462,images/picture_2.png,1,"[-11.733433509789466, -11.733433509789462]",-11.733433509789464,-11.733433509789462,images/picture_3.png,2,"[-11.733433509789462, 11.733433509789464]",-11.733433509789462,11.733433509789464,0,1,1,0.5882608131147126,1.5882608131147125,1.4117391868852875,3,1,1.3382608131147125,0,1,0,1,0,0,4,4,8,,,,,,,0.0014135419623926282,134.81589174998226,134.81589174998226,135.81604145799065,136.1686805409845,136.40182004094822,136.40182004094822,136.40182004094822,137.81595362495864,137.81595362495864,137.81595362495864,137.81595362495864,3.998439082992263,138.81652591598686,200002,005,2023-03-16_16h14.00.882,DMS_BEST_eyetracking_DAN_base_12-36_looped_10minWORKING,2022.2.4,None,
9,UNPRED,12,0.980217235281003,0,images/picture_1.png,images/picture_1.png,0,"[11.733433509789464, 11.733433509789462]",11.733433509789464,11.733433509789462,images/picture_2.png,1,"[-11.733433509789466, -11.733433509789462]",-11.733433509789464,-11.733433509789462,images/picture_3.png,2,"[-11.733433509789462, 11.733433509789464]",-11.733433509789462,11.733433509789464,0,1,1,0.980217235281003,1.980217235281003,1.019782764718997,3,1,1.730217235281003,0,1,0,1,0,0,5,5,0,,,,,,,,,,,,,,,,,,,,,200002,005,2023-03-16_16h14.00.882,DMS_BEST_eyetracking_DAN_base_12-36_looped_10minWORKING,2022.2.4,None,
9,UNPRED,12,0.980217235281003,0,images/picture_1.png,images/picture_1.png,0,"[11.733433509789464, 11.733433509789462]",11.733433509789464,11.733433509789462,images/picture_2.png,1,"[-11.733433509789466, -11.733433509789462]",-11.733433509789464,-11.733433509789462,images/picture_3.png,2,"[-11.733433509789462, 11.733433509789464]",-11.733433509789462,11.733433509789464,0,1,1,0.980217235281003,1.980217235281003,1.019782764718997,3,1,1.730217235281003,0,1,0,1,0,0,5,5,0,,,,,,,0.0014880840317346156,138.81652591598686,138.81652591598686,139.81581320799887,140.549210749974,140.78254962497158,140.78254962497158,140.78254962497158,141.8158057909459,141.8158057909459,141.8158057909459,141.8158057909459,3.9974933339981362,142.81545224995352,200002,005,2023-03-16_16h14.00.882,DMS_BEST_eyetracking_DAN_base_12-36_looped_10minWORKING,2022.2.4,None,
10,UNPRED,12,1.0901248179041367,1,images/picture_2.png,images/picture_1.png,0,"[-11.733433509789462, 11.733433509789464]",-11.733433509789462,11.733433509789464,images/picture_2.png,1,"[11.733433509789462, -11.733433509789466]",11.733433509789462,-11.733433509789464,images/picture_3.png,2,"[11.733433509789464, 11.733433509789462]",11.733433509789464,11.733433509789462,0,1,1,1.0901248179041367,2.0901248179041367,0.9098751820958632,3,1,1.8401248179041367,0,1,0,1,0,0,6,6,1,,,,,,,,,,,,,,,,,,,,,200002,005,2023-03-16_16h14.00.882,DMS_BEST_eyetracking_DAN_base_12-36_looped_10minWORKING,2022.2.4,None,
10,UNPRED,12,1.0901248179041367,1,images/picture_2.png,images/picture_1.png,0,"[-11.733433509789462, 11.733433509789464]",-11.733433509789462,11.733433509789464,images/picture_2.png,1,"[11.733433509789462, -11.733433509789466]",11.733433509789462,-11.733433509789464,images/picture_3.png,2,"[11.733433509789464, 11.733433509789462]",11.733433509789464,11.733433509789462,0,1,1,1.0901248179041367,2.0901248179041367,0.9098751820958632,3,1,1.8401248179041367,0,1,0,1,0,0,6,6,1,,,,,,,0.0027329169679433107,142.81545224995352,142.81545224995352,143.81570595799712,144.66819595795823,144.90166187495925,144.90166187495925,144.90166187495925,145.81574662495404,145.81574662495404,145.81574662495404,145.81574662495404,3.9977247499627993,146.81608162500197,200002,005,2023-03-16_16h14.00.882,DMS_BEST_eyetracking_DAN_base_12-36_looped_10minWORKING,2022.2.4,None,
13,UNPRED,12,0.6715212941086584,2,images/picture_3.png,images/picture_1.png,0,"[11.733433509789464, 11.733433509789462]",11.733433509789464,11.733433509789462,images/picture_2.png,1,"[-11.733433509789466, -11.733433509789462]",-11.733433509789464,-11.733433509789462,images/picture_3.png,2,"[11.733433509789462, -11.733433509789466]",11.733433509789462,-11.733433509789464,0,1,1,0.6715212941086584,1.6715212941086584,1.3284787058913416,3,1,1.4215212941086584,0,1,0,1,0,0,7,7,4,,,,,,,,,,,,,,,,,,,,,200002,005,2023-03-16_16h14.00.882,DMS_BEST_eyetracking_DAN_base_12-36_looped_10minWORKING,2022.2.4,None,
13,UNPRED,12,0.6715212941086584,2,images/picture_3.png,images/picture_1.png,0,"[11.733433509789464, 11.733433509789462]",11.733433509789464,11.733433509789462,images/picture_2.png,1,"[-11.733433509789466, -11.733433509789462]",-11.733433509789464,-11.733433509789462,images/picture_3.png,2,"[11.733433509789462, -11.733433509789466]",11.733433509789462,-11.733433509789464,0,1,1,0.6715212941086584,1.6715212941086584,1.3284787058913416,3,1,1.4215212941086584,0,1,0,1,0,0,7,7,4,,,,,,,0.0027093749959021807,146.81608162500197,146.81608162500197,147.81591445795493,148.24910362495575,148.48241962498287,148.48241962498287,148.48241962498287,149.8157319999882,149.8157319999882,149.8157319999882,149.8157319999882,3.996415874978993,150.8158579999581,200002,005,2023-03-16_16h14.00.882,DMS_BEST_eyetracking_DAN_base_12-36_looped_10minWORKING,2022.2.4,None,
14,UNPRED,12,0.5875810913064913,2,images/picture_3.png,images/picture_1.png,0,"[11.733433509789462, -11.733433509789466]",11.733433509789462,-11.733433509789464,images/picture_2.png,1,"[-11.733433509789466, -11.733433509789462]",-11.733433509789464,-11.733433509789462,images/picture_3.png,2,"[-11.733433509789462, 11.733433509789464]",-11.733433509789462,11.733433509789464,0,1,1,0.5875810913064913,1.5875810913064914,1.4124189086935086,3,1,1.3375810913064914,0,1,0,1,0,0,8,8,5,,,,,,,,,,,,,,,,,,,,,200002,005,2023-03-16_16h14.00.882,DMS_BEST_eyetracking_DAN_base_12-36_looped_10minWORKING,2022.2.4,None,
14,UNPRED,12,0.5875810913064913,2,images/picture_3.png,images/picture_1.png,0,"[11.733433509789462, -11.733433509789466]",11.733433509789462,-11.733433509789464,images/picture_2.png,1,"[-11.733433509789466, -11.733433509789462]",-11.733433509789464,-11.733433509789462,images/picture_3.png,2,"[-11.733433509789462, 11.733433509789464]",-11.733433509789462,11.733433509789464,0,1,1,0.5875810913064913,1.5875810913064914,1.4124189086935086,3,1,1.3375810913064914,0,1,0,1,0,0,8,8,5,,,,,,,0.0014690840034745634,150.8158579999581,150.8158579999581,151.81579787499504,152.16804312495515,152.40148929099087,152.40148929099087,152.40148929099087,153.81580104096793,153.81580104096793,153.81580104096793,153.81580104096793,3.997414041950833,154.84916195797268,200002,005,2023-03-16_16h14.00.882,DMS_BEST_eyetracking_DAN_base_12-36_looped_10minWORKING,2022.2.4,None,
,,,,,,,,,,,,,,,,,,,,,,,,,,,,,,,1,0,1,0,,,,,,,,,154.84916195797268,166.86774483299814,,,,,,,,,,,,,,,200002,005,2023-03-16_16h14.00.882,DMS_BEST_eyetracking_DAN_base_12-36_looped_10minWORKING,2022.2.4,None,
19,PRED,12,0.6499777516755281,0,images/picture_1.png,images/picture_1.png,0,"[11.733433509789464, 11.733433509789462]",11.733433509789464,11.733433509789462,images/picture_2.png,1,"[11.733433509789462, -11.733433509789466]",11.733433509789462,-11.733433509789464,images/picture_3.png,2,"[-11.733433509789462, 11.733433509789464]",-11.733433509789462,11.733433509789464,0,1,1,0.6499777516755281,1.649977751675528,1.350022248324472,3,1,1.399977751675528,0,2,0,2,0,0,0,0,1,,,,,,,,,,,,,,,,,,,,,200002,005,2023-03-16_16h14.00.882,DMS_BEST_eyetracking_DAN_base_12-36_looped_10minWORKING,2022.2.4,None,
19,PRED,12,0.6499777516755281,0,images/picture_1.png,images/picture_1.png,0,"[11.733433509789464, 11.733433509789462]",11.733433509789464,11.733433509789462,images/picture_2.png,1,"[11.733433509789462, -11.733433509789466]",11.733433509789462,-11.733433509789464,images/picture_3.png,2,"[-11.733433509789462, 11.733433509789464]",-11.733433509789462,11.733433509789464,0,1,1,0.6499777516755281,1.649977751675528,1.350022248324472,3,1,1.399977751675528,0,2,0,2,0,0,0,0,1,,,,,,,0.0021437089890241623,166.86774483299814,166.86774483299814,167.88201620796463,168.28218366595684,168.5009352499619,168.5009352499619,168.5009352499619,169.84853912499966,169.84853912499966,169.84853912499966,169.84853912499966,4.021476541995071,170.84848124999553,200002,005,2023-03-16_16h14.00.882,DMS_BEST_eyetracking_DAN_base_12-36_looped_10minWORKING,2022.2.4,None,
18,PRED,12,1.030461318442235,0,images/picture_1.png,images/picture_1.png,0,"[11.733433509789464, 11.733433509789462]",11.733433509789464,11.733433509789462,images/picture_2.png,1,"[-11.733433509789466, -11.733433509789462]",-11.733433509789464,-11.733433509789462,images/picture_3.png,2,"[-11.733433509789462, 11.733433509789464]",-11.733433509789462,11.733433509789464,0,1,1,1.030461318442235,2.030461318442235,0.9695386815577648,3,1,1.780461318442235,0,2,0,2,0,0,1,1,0,,,,,,,,,,,,,,,,,,,,,200002,005,2023-03-16_16h14.00.882,DMS_BEST_eyetracking_DAN_base_12-36_looped_10minWORKING,2022.2.4,None,
18,PRED,12,1.030461318442235,0,images/picture_1.png,images/picture_1.png,0,"[11.733433509789464, 11.733433509789462]",11.733433509789464,11.733433509789462,images/picture_2.png,1,"[-11.733433509789466, -11.733433509789462]",-11.733433509789464,-11.733433509789462,images/picture_3.png,2,"[-11.733433509789462, 11.733433509789464]",-11.733433509789462,11.733433509789464,0,1,1,1.030461318442235,2.030461318442235,0.9695386815577648,3,1,1.780461318442235,0,2,0,2,0,0,1,1,0,,,,,,,0.0014502920093946159,170.88178462500218,170.88178462500218,171.883405999979,172.66745033295592,172.9005531659932,172.9005531659932,172.9005531659932,173.88180854095845,173.88180854095845,173.88180854095845,173.88180854095845,3.998694791982416,174.8816533749923,200002,005,2023-03-16_16h14.00.882,DMS_BEST_eyetracking_DAN_base_12-36_looped_10minWORKING,2022.2.4,None,
26,PRED,12,1.1497325685986732,0,images/picture_1.png,images/picture_1.png,0,"[-11.733433509789462, 11.733433509789464]",-11.733433509789462,11.733433509789464,images/picture_2.png,1,"[11.733433509789462, -11.733433509789466]",11.733433509789462,-11.733433509789464,images/picture_3.png,2,"[11.733433509789464, 11.733433509789462]",11.733433509789464,11.733433509789462,0,1,1,1.1497325685986732,2.149732568598673,0.8502674314013268,3,1,1.8997325685986728,0,2,0,2,0,0,2,2,8,,,,,,,,,,,,,,,,,,,,,200002,005,2023-03-16_16h14.00.882,DMS_BEST_eyetracking_DAN_base_12-36_looped_10minWORKING,2022.2.4,None,
26,PRED,12,1.1497325685986732,0,images/picture_1.png,images/picture_1.png,0,"[-11.733433509789462, 11.733433509789464]",-11.733433509789462,11.733433509789464,images/picture_2.png,1,"[11.733433509789462, -11.733433509789466]",11.733433509789462,-11.733433509789464,images/picture_3.png,2,"[11.733433509789464, 11.733433509789462]",11.733433509789464,11.733433509789462,0,1,1,1.1497325685986732,2.149732568598673,0.8502674314013268,3,1,1.8997325685986728,0,2,0,2,0,0,2,2,8,,,,,,,0.0014477919903583825,174.8816533749923,174.8816533749923,175.8819709160016,176.7817943749833,177.01501899998402,177.01501899998402,177.01501899998402,177.86722741596168,177.86722741596168,177.86722741596168,177.8816894159536,3.998837957973592,178.88176795799518,200002,005,2023-03-16_16h14.00.882,DMS_BEST_eyetracking_DAN_base_12-36_looped_10minWORKING,2022.2.4,None,
21,PRED,12,0.8572413957139149,0,images/picture_1.png,images/picture_1.png,0,"[-11.733433509789466, -11.733433509789462]",-11.733433509789464,-11.733433509789462,images/picture_2.png,1,"[11.733433509789462, -11.733433509789466]",11.733433509789462,-11.733433509789464,images/picture_3.png,2,"[-11.733433509789462, 11.733433509789464]",-11.733433509789462,11.733433509789464,0,1,1,0.8572413957139149,1.8572413957139149,1.1427586042860851,3,1,1.6072413957139149,0,2,0,2,0,0,3,3,3,,,,,,,,,,,,,,,,,,,,,200002,005,2023-03-16_16h14.00.882,DMS_BEST_eyetracking_DAN_base_12-36_looped_10minWORKING,2022.2.4,None,
21,PRED,12,0.8572413957139149,0,images/picture_1.png,images/picture_1.png,0,"[-11.733433509789466, -11.733433509789462]",-11.733433509789464,-11.733433509789462,images/picture_2.png,1,"[11.733433509789462, -11.733433509789466]",11.733433509789462,-11.733433509789464,images/picture_3.png,2,"[-11.733433509789462, 11.733433509789464]",-11.733433509789462,11.733433509789464,0,1,1,0.8572413957139149,1.8572413957139149,1.1427586042860851,3,1,1.6072413957139149,0,2,0,2,0,0,3,3,3,,,,,,,0.0014388340059667826,178.88176795799518,178.88176795799518,179.8815889999969,180.50080312497448,180.73450116597814,180.73450116597814,180.73450116597814,181.88163649995113,181.88163649995113,181.88163649995113,181.88163649995113,3.9983134590438567,182.8817791659967,200002,005,2023-03-16_16h14.00.882,DMS_BEST_eyetracking_DAN_base_12-36_looped_10minWORKING,2022.2.4,None,
24,PRED,12,0.9996113158453156,0,images/picture_1.png,images/picture_1.png,0,"[11.733433509789462, -11.733433509789466]",11.733433509789462,-11.733433509789464,images/picture_2.png,1,"[-11.733433509789466, -11.733433509789462]",-11.733433509789464,-11.733433509789462,images/picture_3.png,2,"[11.733433509789464, 11.733433509789462]",11.733433509789464,11.733433509789462,0,1,1,0.9996113158453156,1.9996113158453157,1.0003886841546843,3,1,1.7496113158453157,0,2,0,2,0,0,4,4,6,,,,,,,,,,,,,,,,,,,,,200002,005,2023-03-16_16h14.00.882,DMS_BEST_eyetracking_DAN_base_12-36_looped_10minWORKING,2022.2.4,None,
24,PRED,12,0.9996113158453156,0,images/picture_1.png,images/picture_1.png,0,"[11.733433509789462, -11.733433509789466]",11.733433509789462,-11.733433509789464,images/picture_2.png,1,"[-11.733433509789466, -11.733433509789462]",-11.733433509789464,-11.733433509789462,images/picture_3.png,2,"[11.733433509789464, 11.733433509789462]",11.733433509789464,11.733433509789462,0,1,1,0.9996113158453156,1.9996113158453157,1.0003886841546843,3,1,1.7496113158453157,0,2,0,2,0,0,4,4,6,,,,,,,0.00139458297053352,182.8817791659967,182.8817791659967,183.88161074998789,184.63408629095647,184.88154883298557,184.88154883298557,184.88154883298557,185.88242579100188,185.88242579100188,185.88242579100188,185.88242579100188,3.9985008749645203,186.88140699994983,200002,005,2023-03-16_16h14.00.882,DMS_BEST_eyetracking_DAN_base_12-36_looped_10minWORKING,2022.2.4,None,
23,PRED,12,0.5532044780228765,0,images/picture_1.png,images/picture_1.png,0,"[-11.733433509789462, 11.733433509789464]",-11.733433509789462,11.733433509789464,images/picture_2.png,1,"[11.733433509789462, -11.733433509789466]",11.733433509789462,-11.733433509789464,images/picture_3.png,2,"[11.733433509789464, 11.733433509789462]",11.733433509789464,11.733433509789462,0,1,1,0.5532044780228765,1.5532044780228764,1.4467955219771236,3,1,1.3032044780228764,0,2,0,2,0,0,5,5,5,,,,,,,,,,,,,,,,,,,,,200002,005,2023-03-16_16h14.00.882,DMS_BEST_eyetracking_DAN_base_12-36_looped_10minWORKING,2022.2.4,None,
23,PRED,12,0.5532044780228765,0,images/picture_1.png,images/picture_1.png,0,"[-11.733433509789462, 11.733433509789464]",-11.733433509789462,11.733433509789464,images/picture_2.png,1,"[11.733433509789462, -11.733433509789466]",11.733433509789462,-11.733433509789464,images/picture_3.png,2,"[11.733433509789464, 11.733433509789462]",11.733433509789464,11.733433509789462,0,1,1,0.5532044780228765,1.5532044780228764,1.4467955219771236,3,1,1.3032044780228764,0,2,0,2,0,0,5,5,5,,,,,,,0.0014363329974003136,186.88140699994983,186.88140699994983,187.88177254097536,188.1819676659652,188.43387675000122,188.43387675000122,188.43387675000122,189.88162858295254,189.88162858295254,189.88162858295254,189.88162858295254,3.9986219169804826,190.88209149998147,200002,005,2023-03-16_16h14.00.882,DMS_BEST_eyetracking_DAN_base_12-36_looped_10minWORKING,2022.2.4,None,
22,PRED,12,1.1166825883042168,0,images/picture_1.png,images/picture_1.png,0,"[11.733433509789464, 11.733433509789462]",11.733433509789464,11.733433509789462,images/picture_2.png,1,"[11.733433509789462, -11.733433509789466]",11.733433509789462,-11.733433509789464,images/picture_3.png,2,"[-11.733433509789466, -11.733433509789462]",-11.733433509789464,-11.733433509789462,0,1,1,1.1166825883042168,2.116682588304217,0.8833174116957832,3,1,1.8666825883042168,0,2,0,2,0,0,6,6,4,,,,,,,,,,,,,,,,,,,,,200002,005,2023-03-16_16h14.00.882,DMS_BEST_eyetracking_DAN_base_12-36_looped_10minWORKING,2022.2.4,None,
22,PRED,12,1.1166825883042168,0,images/picture_1.png,images/picture_1.png,0,"[11.733433509789464, 11.733433509789462]",11.733433509789464,11.733433509789462,images/picture_2.png,1,"[11.733433509789462, -11.733433509789466]",11.733433509789462,-11.733433509789464,images/picture_3.png,2,"[-11.733433509789466, -11.733433509789462]",-11.733433509789464,-11.733433509789462,0,1,1,1.1166825883042168,2.116682588304217,0.8833174116957832,3,1,1.8666825883042168,0,2,0,2,0,0,6,6,4,,,,,,,0.0014330829726532102,190.88209149998147,190.88209149998147,191.88138574996265,192.7488321249839,193.00026612496004,193.00026612496004,193.00026612496004,193.88143433298683,193.88143433298683,193.88143433298683,193.88143433298683,3.9981929159839638,194.8812947080005,200002,005,2023-03-16_16h14.00.882,DMS_BEST_eyetracking_DAN_base_12-36_looped_10minWORKING,2022.2.4,None,
25,PRED,12,0.7082106368621628,0,images/picture_1.png,images/picture_1.png,0,"[-11.733433509789462, 11.733433509789464]",-11.733433509789462,11.733433509789464,images/picture_2.png,1,"[11.733433509789462, -11.733433509789466]",11.733433509789462,-11.733433509789464,images/picture_3.png,2,"[-11.733433509789466, -11.733433509789462]",-11.733433509789464,-11.733433509789462,0,1,1,0.7082106368621628,1.7082106368621628,1.2917893631378372,3,1,1.4582106368621628,0,2,0,2,0,0,7,7,7,,,,,,,,,,,,,,,,,,,,,200002,005,2023-03-16_16h14.00.882,DMS_BEST_eyetracking_DAN_base_12-36_looped_10minWORKING,2022.2.4,None,
25,PRED,12,0.7082106368621628,0,images/picture_1.png,images/picture_1.png,0,"[-11.733433509789462, 11.733433509789464]",-11.733433509789462,11.733433509789464,images/picture_2.png,1,"[11.733433509789462, -11.733433509789466]",11.733433509789462,-11.733433509789464,images/picture_3.png,2,"[-11.733433509789466, -11.733433509789462]",-11.733433509789464,-11.733433509789462,0,1,1,0.7082106368621628,1.7082106368621628,1.2917893631378372,3,1,1.4582106368621628,0,2,0,2,0,0,7,7,7,,,,,,,0.001515124982688576,194.8812947080005,194.8812947080005,195.88150974997552,196.34826391597744,196.58135949994903,196.58135949994903,196.58135949994903,197.88126974995248,197.88126974995248,197.88126974995248,197.88126974995248,3.9972199160256423,198.88125691597816,200002,005,2023-03-16_16h14.00.882,DMS_BEST_eyetracking_DAN_base_12-36_looped_10minWORKING,2022.2.4,None,
20,PRED,12,0.5775647065167556,0,images/picture_1.png,images/picture_1.png,0,"[-11.733433509789462, 11.733433509789464]",-11.733433509789462,11.733433509789464,images/picture_2.png,1,"[11.733433509789462, -11.733433509789466]",11.733433509789462,-11.733433509789464,images/picture_3.png,2,"[-11.733433509789466, -11.733433509789462]",-11.733433509789464,-11.733433509789462,0,1,1,0.5775647065167556,1.5775647065167555,1.4224352934832445,3,1,1.3275647065167555,0,2,0,2,0,0,8,8,2,,,,,,,,,,,,,,,,,,,,,200002,005,2023-03-16_16h14.00.882,DMS_BEST_eyetracking_DAN_base_12-36_looped_10minWORKING,2022.2.4,None,
20,PRED,12,0.5775647065167556,0,images/picture_1.png,images/picture_1.png,0,"[-11.733433509789462, 11.733433509789464]",-11.733433509789462,11.733433509789464,images/picture_2.png,1,"[11.733433509789462, -11.733433509789466]",11.733433509789462,-11.733433509789464,images/picture_3.png,2,"[-11.733433509789466, -11.733433509789462]",-11.733433509789464,-11.733433509789462,0,1,1,0.5775647065167556,1.5775647065167555,1.4224352934832445,3,1,1.3275647065167555,0,2,0,2,0,0,8,8,2,,,,,,,0.0016719999839551747,198.88125691597816,198.88125691597816,199.88161812495673,200.2150907079922,200.44815004098928,200.44815004098928,200.44815004098928,201.88127237500157,201.88127237500157,201.88127237500157,201.88127237500157,3.9971735409926623,202.90547862497624,200002,005,2023-03-16_16h14.00.882,DMS_BEST_eyetracking_DAN_base_12-36_looped_10minWORKING,2022.2.4,None,
,,,,,,,,,,,,,,,,,,,,,,,,,,,,,,,2,0,2,0,,,,,,,,,202.90547862497624,214.9334733329597,,,,,,,,,,,,,,,200002,005,2023-03-16_16h14.00.882,DMS_BEST_eyetracking_DAN_base_12-36_looped_10minWORKING,2022.2.4,None,
27,UNPRED,12,0.9677880250796504,2,images/picture_3.png,images/picture_1.png,0,"[11.733433509789462, -11.733433509789466]",11.733433509789462,-11.733433509789464,images/picture_2.png,1,"[-11.733433509789462, 11.733433509789464]",-11.733433509789462,11.733433509789464,images/picture_3.png,2,"[-11.733433509789466, -11.733433509789462]",-11.733433509789464,-11.733433509789462,0,1,1,0.9677880250796504,1.9677880250796504,1.0322119749203496,3,1,1.7177880250796504,0,3,0,3,0,0,0,0,0,,,,,,,,,,,,,,,,,,,,,200002,005,2023-03-16_16h14.00.882,DMS_BEST_eyetracking_DAN_base_12-36_looped_10minWORKING,2022.2.4,None,
27,UNPRED,12,0.9677880250796504,2,images/picture_3.png,images/picture_1.png,0,"[11.733433509789462, -11.733433509789466]",11.733433509789462,-11.733433509789464,images/picture_2.png,1,"[-11.733433509789462, 11.733433509789464]",-11.733433509789462,11.733433509789464,images/picture_3.png,2,"[-11.733433509789466, -11.733433509789462]",-11.733433509789464,-11.733433509789462,0,1,1,0.9677880250796504,1.9677880250796504,1.0322119749203496,3,1,1.7177880250796504,0,3,0,3,0,0,0,0,0,,,,,,,0.0019854999845847487,214.9334733329597,214.9334733329597,215.94761899998412,216.64768720796565,216.88103129097726,216.88103129097726,216.88103129097726,217.9143142909743,217.9143142909743,217.9143142909743,217.9143142909743,4.02322745800484,218.91432445799,200002,005,2023-03-16_16h14.00.882,DMS_BEST_eyetracking_DAN_base_12-36_looped_10minWORKING,2022.2.4,None,
35,UNPRED,12,1.190672923531822,1,images/picture_2.png,images/picture_1.png,0,"[-11.733433509789462, 11.733433509789464]",-11.733433509789462,11.733433509789464,images/picture_2.png,1,"[11.733433509789462, -11.733433509789466]",11.733433509789462,-11.733433509789464,images/picture_3.png,2,"[-11.733433509789466, -11.733433509789462]",-11.733433509789464,-11.733433509789462,0,1,1,1.190672923531822,2.190672923531822,0.8093270764681781,3,1,1.9406729235318216,0,3,0,3,0,0,1,1,8,,,,,,,,,,,,,,,,,,,,,200002,005,2023-03-16_16h14.00.882,DMS_BEST_eyetracking_DAN_base_12-36_looped_10minWORKING,2022.2.4,None,
35,UNPRED,12,1.190672923531822,1,images/picture_2.png,images/picture_1.png,0,"[-11.733433509789462, 11.733433509789464]",-11.733433509789462,11.733433509789464,images/picture_2.png,1,"[11.733433509789462, -11.733433509789466]",11.733433509789462,-11.733433509789464,images/picture_3.png,2,"[-11.733433509789466, -11.733433509789462]",-11.733433509789464,-11.733433509789462,0,1,1,1.190672923531822,2.190672923531822,0.8093270764681781,3,1,1.9406729235318216,0,3,0,3,0,0,1,1,8,,,,,,,0.0031212500180117786,218.9474337909487,218.9474337909487,219.94760924996808,220.90013533295132,221.13341220800066,221.13341220800066,221.13341220800066,221.94775862497045,221.94775862497045,221.94775862497045,221.94775862497045,3.9993630000390112,222.9487203329918,200002,005,2023-03-16_16h14.00.882,DMS_BEST_eyetracking_DAN_base_12-36_looped_10minWORKING,2022.2.4,None,
31,UNPRED,12,0.6453437493274847,2,images/picture_3.png,images/picture_1.png,0,"[11.733433509789462, -11.733433509789466]",11.733433509789462,-11.733433509789464,images/picture_2.png,1,"[-11.733433509789462, 11.733433509789464]",-11.733433509789462,11.733433509789464,images/picture_3.png,2,"[-11.733433509789466, -11.733433509789462]",-11.733433509789464,-11.733433509789462,0,1,1,0.6453437493274847,1.6453437493274847,1.3546562506725153,3,1,1.3953437493274847,0,3,0,3,0,0,2,2,4,,,,,,,,,,,,,,,,,,,,,200002,005,2023-03-16_16h14.00.882,DMS_BEST_eyetracking_DAN_base_12-36_looped_10minWORKING,2022.2.4,None,
31,UNPRED,12,0.6453437493274847,2,images/picture_3.png,images/picture_1.png,0,"[11.733433509789462, -11.733433509789466]",11.733433509789462,-11.733433509789464,images/picture_2.png,1,"[-11.733433509789462, 11.733433509789464]",-11.733433509789462,11.733433509789464,images/picture_3.png,2,"[-11.733433509789466, -11.733433509789462]",-11.733433509789464,-11.733433509789462,0,1,1,0.6453437493274847,1.6453437493274847,1.3546562506725153,3,1,1.3953437493274847,0,3,0,3,0,0,2,2,4,,,,,,,0.002450166968628764,222.9487203329918,222.9487203329918,223.94756279099965,224.34757250000257,224.58088599995244,224.58088599995244,224.58088599995244,225.94752887496725,225.94752887496725,225.94752887496725,225.94752887496725,3.997415916994214,226.947704582999,200002,005,2023-03-16_16h14.00.882,DMS_BEST_eyetracking_DAN_base_12-36_looped_10minWORKING,2022.2.4,None,
29,UNPRED,12,0.5133246305344213,0,images/picture_1.png,images/picture_1.png,0,"[11.733433509789462, -11.733433509789466]",11.733433509789462,-11.733433509789464,images/picture_2.png,1,"[-11.733433509789462, 11.733433509789464]",-11.733433509789462,11.733433509789464,images/picture_3.png,2,"[-11.733433509789466, -11.733433509789462]",-11.733433509789464,-11.733433509789462,0,1,1,0.5133246305344213,1.5133246305344217,1.4866753694655783,3,1,1.2633246305344217,0,3,0,3,0,0,3,3,2,,,,,,,,,,,,,,,,,,,,,200002,005,2023-03-16_16h14.00.882,DMS_BEST_eyetracking_DAN_base_12-36_looped_10minWORKING,2022.2.4,None,
29,UNPRED,12,0.5133246305344213,0,images/picture_1.png,images/picture_1.png,0,"[11.733433509789462, -11.733433509789466]",11.733433509789462,-11.733433509789464,images/picture_2.png,1,"[-11.733433509789462, 11.733433509789464]",-11.733433509789462,11.733433509789464,images/picture_3.png,2,"[-11.733433509789466, -11.733433509789462]",-11.733433509789464,-11.733433509789462,0,1,1,0.5133246305344213,1.5133246305344217,1.4866753694655783,3,1,1.2633246305344217,0,3,0,3,0,0,3,3,2,,,,,,,0.0029371249838732183,226.947704582999,226.947704582999,227.9475142909796,228.21404774999246,228.44739666598616,228.44739666598616,228.44739666598616,229.94735058298102,229.94735058298102,229.94735058298102,229.94735058298102,3.998317166988272,230.94729570799973,200002,005,2023-03-16_16h14.00.882,DMS_BEST_eyetracking_DAN_base_12-36_looped_10minWORKING,2022.2.4,None,
28,UNPRED,12,1.0796090783968193,1,images/picture_2.png,images/picture_1.png,0,"[11.733433509789464, 11.733433509789462]",11.733433509789464,11.733433509789462,images/picture_2.png,1,"[11.733433509789462, -11.733433509789466]",11.733433509789462,-11.733433509789464,images/picture_3.png,2,"[-11.733433509789466, -11.733433509789462]",-11.733433509789464,-11.733433509789462,0,1,1,1.0796090783968193,2.0796090783968197,0.9203909216031808,3,1,1.8296090783968195,0,3,0,3,0,0,4,4,1,,,,,,,,,,,,,,,,,,,,,200002,005,2023-03-16_16h14.00.882,DMS_BEST_eyetracking_DAN_base_12-36_looped_10minWORKING,2022.2.4,None,
28,UNPRED,12,1.0796090783968193,1,images/picture_2.png,images/picture_1.png,0,"[11.733433509789464, 11.733433509789462]",11.733433509789464,11.733433509789462,images/picture_2.png,1,"[11.733433509789462, -11.733433509789466]",11.733433509789462,-11.733433509789464,images/picture_3.png,2,"[-11.733433509789466, -11.733433509789462]",-11.733433509789464,-11.733433509789462,0,1,1,1.0796090783968193,2.0796090783968197,0.9203909216031808,3,1,1.8296090783968195,0,3,0,3,0,0,4,4,1,,,,,,,0.0023707920336164534,230.94729570799973,230.94729570799973,231.94761283299886,232.78097858297406,233.0142061659717,233.0142061659717,233.0142061659717,233.94742766598938,233.94742766598938,233.94742766598938,233.94742766598938,3.9987796670175157,234.947299499996,200002,005,2023-03-16_16h14.00.882,DMS_BEST_eyetracking_DAN_base_12-36_looped_10minWORKING,2022.2.4,None,
34,UNPRED,12,0.5253003330955539,0,images/picture_1.png,images/picture_1.png,0,"[-11.733433509789466, -11.733433509789462]",-11.733433509789464,-11.733433509789462,images/picture_2.png,1,"[-11.733433509789462, 11.733433509789464]",-11.733433509789462,11.733433509789464,images/picture_3.png,2,"[11.733433509789462, -11.733433509789466]",11.733433509789462,-11.733433509789464,0,1,1,0.5253003330955539,1.525300333095554,1.474699666904446,3,1,1.275300333095554,0,3,0,3,0,0,5,5,7,,,,,,,,,,,,,,,,,,,,,200002,005,2023-03-16_16h14.00.882,DMS_BEST_eyetracking_DAN_base_12-36_looped_10minWORKING,2022.2.4,None,
34,UNPRED,12,0.5253003330955539,0,images/picture_1.png,images/picture_1.png,0,"[-11.733433509789466, -11.733433509789462]",-11.733433509789464,-11.733433509789462,images/picture_2.png,1,"[-11.733433509789462, 11.733433509789464]",-11.733433509789462,11.733433509789464,images/picture_3.png,2,"[11.733433509789462, -11.733433509789466]",11.733433509789462,-11.733433509789464,0,1,1,0.5253003330955539,1.525300333095554,1.474699666904446,3,1,1.275300333095554,0,3,0,3,0,0,5,5,7,,,,,,,0.002173874992877245,234.947299499996,234.947299499996,235.94812504097354,236.23401849996299,236.46636920794845,236.46636920794845,236.46636920794845,237.94731575000333,237.94731575000333,237.94731575000333,237.94731575000333,3.9984267500112765,238.94702904095175,200002,005,2023-03-16_16h14.00.882,DMS_BEST_eyetracking_DAN_base_12-36_looped_10minWORKING,2022.2.4,None,
33,UNPRED,12,0.8050820038684022,1,images/picture_2.png,images/picture_1.png,0,"[11.733433509789464, 11.733433509789462]",11.733433509789464,11.733433509789462,images/picture_2.png,1,"[-11.733433509789466, -11.733433509789462]",-11.733433509789464,-11.733433509789462,images/picture_3.png,2,"[-11.733433509789462, 11.733433509789464]",-11.733433509789462,11.733433509789464,0,1,1,0.8050820038684022,1.805082003868402,1.194917996131598,3,1,1.555082003868402,0,3,0,3,0,0,6,6,6,,,,,,,,,,,,,,,,,,,,,200002,005,2023-03-16_16h14.00.882,DMS_BEST_eyetracking_DAN_base_12-36_looped_10minWORKING,2022.2.4,None,
33,UNPRED,12,0.8050820038684022,1,images/picture_2.png,images/picture_1.png,0,"[11.733433509789464, 11.733433509789462]",11.733433509789464,11.733433509789462,images/picture_2.png,1,"[-11.733433509789466, -11.733433509789462]",-11.733433509789464,-11.733433509789462,images/picture_3.png,2,"[-11.733433509789462, 11.733433509789464]",-11.733433509789462,11.733433509789464,0,1,1,0.8050820038684022,1.805082003868402,1.194917996131598,3,1,1.555082003868402,0,3,0,3,0,0,6,6,6,,,,,,,0.002540874993428588,238.94702904095175,238.94702904095175,239.94731524999952,240.51400883297902,240.7472248749691,240.7472248749691,240.7472248749691,241.94749779097037,241.94749779097037,241.94749779097037,241.94749779097037,3.996729541977402,242.94721833296353,200002,005,2023-03-16_16h14.00.882,DMS_BEST_eyetracking_DAN_base_12-36_looped_10minWORKING,2022.2.4,None,
32,UNPRED,12,0.5675183397117032,0,images/picture_1.png,images/picture_1.png,0,"[11.733433509789462, -11.733433509789466]",11.733433509789462,-11.733433509789464,images/picture_2.png,1,"[-11.733433509789466, -11.733433509789462]",-11.733433509789464,-11.733433509789462,images/picture_3.png,2,"[11.733433509789464, 11.733433509789462]",11.733433509789464,11.733433509789462,0,1,1,0.5675183397117032,1.5675183397117032,1.4324816602882968,3,1,1.3175183397117032,0,3,0,3,0,0,7,7,5,,,,,,,,,,,,,,,,,,,,,200002,005,2023-03-16_16h14.00.882,DMS_BEST_eyetracking_DAN_base_12-36_looped_10minWORKING,2022.2.4,None,
32,UNPRED,12,0.5675183397117032,0,images/picture_1.png,images/picture_1.png,0,"[11.733433509789462, -11.733433509789466]",11.733433509789462,-11.733433509789464,images/picture_2.png,1,"[-11.733433509789466, -11.733433509789462]",-11.733433509789464,-11.733433509789462,images/picture_3.png,2,"[11.733433509789464, 11.733433509789462]",11.733433509789464,11.733433509789462,0,1,1,0.5675183397117032,1.5675183397117032,1.4324816602882968,3,1,1.3175183397117032,0,3,0,3,0,0,7,7,5,,,,,,,0.0020760410116054118,242.94721833296353,242.94721833296353,243.94735574995866,244.26665829098783,244.5139251249493,244.5139251249493,244.5139251249493,245.9475429999875,245.9475429999875,245.9475429999875,245.9475429999875,3.9964908749680035,246.94729354098672,200002,005,2023-03-16_16h14.00.882,DMS_BEST_eyetracking_DAN_base_12-36_looped_10minWORKING,2022.2.4,None,
30,UNPRED,12,1.1630543984118449,2,images/picture_3.png,images/picture_1.png,0,"[11.733433509789464, 11.733433509789462]",11.733433509789464,11.733433509789462,images/picture_2.png,1,"[-11.733433509789462, 11.733433509789464]",-11.733433509789462,11.733433509789464,images/picture_3.png,2,"[-11.733433509789466, -11.733433509789462]",-11.733433509789464,-11.733433509789462,0,1,1,1.1630543984118449,2.163054398411845,0.8369456015881549,3,1,1.9130543984118449,0,3,0,3,0,0,8,8,3,,,,,,,,,,,,,,,,,,,,,200002,005,2023-03-16_16h14.00.882,DMS_BEST_eyetracking_DAN_base_12-36_looped_10minWORKING,2022.2.4,None,
30,UNPRED,12,1.1630543984118449,2,images/picture_3.png,images/picture_1.png,0,"[11.733433509789464, 11.733433509789462]",11.733433509789464,11.733433509789462,images/picture_2.png,1,"[-11.733433509789462, 11.733433509789464]",-11.733433509789462,11.733433509789464,images/picture_3.png,2,"[-11.733433509789466, -11.733433509789462]",-11.733433509789464,-11.733433509789462,0,1,1,1.1630543984118449,2.163054398411845,0.8369456015881549,3,1,1.9130543984118449,0,3,0,3,0,0,8,8,3,,,,,,,0.002698040974792093,246.94729354098672,246.94729354098672,247.94712891598465,248.8662232499919,249.11415841599228,249.11415841599228,249.11415841599228,249.9663120409823,249.9663120409823,249.9663120409823,249.94728799996665,3.99678679095814,250.9821977079846,200002,005,2023-03-16_16h14.00.882,DMS_BEST_eyetracking_DAN_base_12-36_looped_10minWORKING,2022.2.4,None,
,,,,,,,,,,,,,,,,,,,,,,,,,,,,,,,3,0,3,0,,,,,,,,,250.9821977079846,262.9988993749721,,,,,,,,,,,,,,,200002,005,2023-03-16_16h14.00.882,DMS_BEST_eyetracking_DAN_base_12-36_looped_10minWORKING,2022.2.4,None,
38,PRED,12,0.8731871527019553,2,images/picture_3.png,images/picture_1.png,0,"[11.733433509789464, 11.733433509789462]",11.733433509789464,11.733433509789462,images/picture_2.png,1,"[11.733433509789462, -11.733433509789466]",11.733433509789462,-11.733433509789464,images/picture_3.png,2,"[-11.733433509789466, -11.733433509789462]",-11.733433509789464,-11.733433509789462,0,1,1,0.8731871527019553,1.8731871527019552,1.1268128472980448,3,1,1.6231871527019552,0,4,0,4,0,0,0,0,2,,,,,,,,,,,,,,,,,,,,,200002,005,2023-03-16_16h14.00.882,DMS_BEST_eyetracking_DAN_base_12-36_looped_10minWORKING,2022.2.4,None,
38,PRED,12,0.8731871527019553,2,images/picture_3.png,images/picture_1.png,0,"[11.733433509789464, 11.733433509789462]",11.733433509789464,11.733433509789462,images/picture_2.png,1,"[11.733433509789462, -11.733433509789466]",11.733433509789462,-11.733433509789464,images/picture_3.png,2,"[-11.733433509789466, -11.733433509789462]",-11.733433509789464,-11.733433509789462,0,1,1,0.8731871527019553,1.8731871527019552,1.1268128472980448,3,1,1.6231871527019552,0,4,0,4,0,0,0,0,2,,,,,,,0.001622375042643398,262.9988993749721,262.9988993749721,264.014089290984,264.6335731250001,264.84713524999097,264.84713524999097,264.84713524999097,265.98023037496023,265.98023037496023,265.98023037496023,265.98023037496023,4.022738416038919,266.9802747909562,200002,005,2023-03-16_16h14.00.882,DMS_BEST_eyetracking_DAN_base_12-36_looped_10minWORKING,2022.2.4,None,
42,PRED,12,0.9650708694950528,2,images/picture_3.png,images/picture_1.png,0,"[-11.733433509789466, -11.733433509789462]",-11.733433509789464,-11.733433509789462,images/picture_2.png,1,"[-11.733433509789462, 11.733433509789464]",-11.733433509789462,11.733433509789464,images/picture_3.png,2,"[11.733433509789464, 11.733433509789462]",11.733433509789464,11.733433509789462,0,1,1,0.9650708694950528,1.9650708694950527,1.0349291305049473,3,1,1.7150708694950527,0,4,0,4,0,0,1,1,6,,,,,,,,,,,,,,,,,,,,,200002,005,2023-03-16_16h14.00.882,DMS_BEST_eyetracking_DAN_base_12-36_looped_10minWORKING,2022.2.4,None,
42,PRED,12,0.9650708694950528,2,images/picture_3.png,images/picture_1.png,0,"[-11.733433509789466, -11.733433509789462]",-11.733433509789464,-11.733433509789462,images/picture_2.png,1,"[-11.733433509789462, 11.733433509789464]",-11.733433509789462,11.733433509789464,images/picture_3.png,2,"[11.733433509789464, 11.733433509789462]",11.733433509789464,11.733433509789462,0,1,1,0.9650708694950528,1.9650708694950527,1.0349291305049473,3,1,1.7150708694950527,0,4,0,4,0,0,1,1,6,,,,,,,0.0013790419907309115,267.01347099995473,267.01347099995473,268.01347512495704,268.7327207499766,268.98013591597555,268.98013591597555,268.98013591597555,270.01377920794766,270.01377920794766,270.01377920794766,270.01377920794766,3.996782499947585,271.0133752079564,200002,005,2023-03-16_16h14.00.882,DMS_BEST_eyetracking_DAN_base_12-36_looped_10minWORKING,2022.2.4,None,
43,PRED,12,0.9622312929601128,2,images/picture_3.png,images/picture_1.png,0,"[-11.733433509789462, 11.733433509789464]",-11.733433509789462,11.733433509789464,images/picture_2.png,1,"[11.733433509789462, -11.733433509789466]",11.733433509789462,-11.733433509789464,images/picture_3.png,2,"[-11.733433509789466, -11.733433509789462]",-11.733433509789464,-11.733433509789462,0,1,1,0.9622312929601128,1.962231292960113,1.037768707039887,3,1,1.712231292960113,0,4,0,4,0,0,2,2,7,,,,,,,,,,,,,,,,,,,,,200002,005,2023-03-16_16h14.00.882,DMS_BEST_eyetracking_DAN_base_12-36_looped_10minWORKING,2022.2.4,None,
43,PRED,12,0.9622312929601128,2,images/picture_3.png,images/picture_1.png,0,"[-11.733433509789462, 11.733433509789464]",-11.733433509789462,11.733433509789464,images/picture_2.png,1,"[11.733433509789462, -11.733433509789466]",11.733433509789462,-11.733433509789464,images/picture_3.png,2,"[-11.733433509789466, -11.733433509789462]",-11.733433509789464,-11.733433509789462,0,1,1,0.9622312929601128,1.962231292960113,1.037768707039887,3,1,1.712231292960113,0,4,0,4,0,0,2,2,7,,,,,,,0.0013242500135675073,271.0133752079564,271.0133752079564,272.01351208298,272.73330862500006,272.96600354096154,272.96600354096154,272.96600354096154,274.01344520796556,274.01344520796556,274.01344520796556,274.01344520796556,3.9986589580075815,275.0136271249503,200002,005,2023-03-16_16h14.00.882,DMS_BEST_eyetracking_DAN_base_12-36_looped_10minWORKING,2022.2.4,None,
37,PRED,12,0.9338108235494345,2,images/picture_3.png,images/picture_1.png,0,"[-11.733433509789466, -11.733433509789462]",-11.733433509789464,-11.733433509789462,images/picture_2.png,1,"[11.733433509789464, 11.733433509789462]",11.733433509789464,11.733433509789462,images/picture_3.png,2,"[11.733433509789462, -11.733433509789466]",11.733433509789462,-11.733433509789464,0,1,1,0.9338108235494345,1.9338108235494345,1.0661891764505658,3,1,1.6838108235494342,0,4,0,4,0,0,3,3,1,,,,,,,,,,,,,,,,,,,,,200002,005,2023-03-16_16h14.00.882,DMS_BEST_eyetracking_DAN_base_12-36_looped_10minWORKING,2022.2.4,None,
37,PRED,12,0.9338108235494345,2,images/picture_3.png,images/picture_1.png,0,"[-11.733433509789466, -11.733433509789462]",-11.733433509789464,-11.733433509789462,images/picture_2.png,1,"[11.733433509789464, 11.733433509789462]",11.733433509789464,11.733433509789462,images/picture_3.png,2,"[11.733433509789462, -11.733433509789466]",11.733433509789462,-11.733433509789464,0,1,1,0.9338108235494345,1.9338108235494345,1.0661891764505658,3,1,1.6838108235494342,0,4,0,4,0,0,3,3,1,,,,,,,0.001460124971345067,275.0136271249503,275.0136271249503,276.0136619579862,276.6997009999468,276.9466825829586,276.9466825829586,276.9466825829586,278.0134460830013,278.0134460830013,278.0134460830013,278.0134460830013,3.998521208006423,279.01386866596295,200002,005,2023-03-16_16h14.00.882,DMS_BEST_eyetracking_DAN_base_12-36_looped_10minWORKING,2022.2.4,None,
41,PRED,12,0.5646652934027631,2,images/picture_3.png,images/picture_1.png,0,"[11.733433509789464, 11.733433509789462]",11.733433509789464,11.733433509789462,images/picture_2.png,1,"[-11.733433509789466, -11.733433509789462]",-11.733433509789464,-11.733433509789462,images/picture_3.png,2,"[11.733433509789462, -11.733433509789466]",11.733433509789462,-11.733433509789464,0,1,1,0.5646652934027631,1.5646652934027632,1.4353347065972368,3,1,1.3146652934027632,0,4,0,4,0,0,4,4,5,,,,,,,,,,,,,,,,,,,,,200002,005,2023-03-16_16h14.00.882,DMS_BEST_eyetracking_DAN_base_12-36_looped_10minWORKING,2022.2.4,None,
41,PRED,12,0.5646652934027631,2,images/picture_3.png,images/picture_1.png,0,"[11.733433509789464, 11.733433509789462]",11.733433509789464,11.733433509789462,images/picture_2.png,1,"[-11.733433509789466, -11.733433509789462]",-11.733433509789464,-11.733433509789462,images/picture_3.png,2,"[11.733433509789462, -11.733433509789466]",11.733433509789462,-11.733433509789464,0,1,1,0.5646652934027631,1.5646652934027632,1.4353347065972368,3,1,1.3146652934027632,0,4,0,4,0,0,4,4,5,,,,,,,0.001371874997857958,279.01386866596295,279.01386866596295,280.0133794579888,280.33238349994645,280.5800276660011,280.5800276660011,280.5800276660011,282.0133434579475,282.0133434579475,282.0133434579475,282.0133434579475,3.9981708750128746,283.0131388749578,200002,005,2023-03-16_16h14.00.882,DMS_BEST_eyetracking_DAN_base_12-36_looped_10minWORKING,2022.2.4,None,
44,PRED,12,0.8361319694187688,2,images/picture_3.png,images/picture_1.png,0,"[-11.733433509789466, -11.733433509789462]",-11.733433509789464,-11.733433509789462,images/picture_2.png,1,"[11.733433509789464, 11.733433509789462]",11.733433509789464,11.733433509789462,images/picture_3.png,2,"[11.733433509789462, -11.733433509789466]",11.733433509789462,-11.733433509789464,0,1,1,0.8361319694187688,1.8361319694187688,1.1638680305812312,3,1,1.5861319694187688,0,4,0,4,0,0,5,5,8,,,,,,,,,,,,,,,,,,,,,200002,005,2023-03-16_16h14.00.882,DMS_BEST_eyetracking_DAN_base_12-36_looped_10minWORKING,2022.2.4,None,
44,PRED,12,0.8361319694187688,2,images/picture_3.png,images/picture_1.png,0,"[-11.733433509789466, -11.733433509789462]",-11.733433509789464,-11.733433509789462,images/picture_2.png,1,"[11.733433509789464, 11.733433509789462]",11.733433509789464,11.733433509789462,images/picture_3.png,2,"[11.733433509789462, -11.733433509789466]",11.733433509789462,-11.733433509789464,0,1,1,0.8361319694187688,1.8361319694187688,1.1638680305812312,3,1,1.5861319694187688,0,4,0,4,0,0,5,5,8,,,,,,,0.0012817909591831267,283.0131388749578,283.0131388749578,284.0133289579535,284.61345474998234,284.8465827909531,284.8465827909531,284.8465827909531,286.01320137496805,286.01320137496805,286.01320137496805,286.01320137496805,3.9986147499876097,287.0131944579771,200002,005,2023-03-16_16h14.00.882,DMS_BEST_eyetracking_DAN_base_12-36_looped_10minWORKING,2022.2.4,None,
40,PRED,12,0.9816899075926616,2,images/picture_3.png,images/picture_1.png,0,"[-11.733433509789462, 11.733433509789464]",-11.733433509789462,11.733433509789464,images/picture_2.png,1,"[11.733433509789462, -11.733433509789466]",11.733433509789462,-11.733433509789464,images/picture_3.png,2,"[11.733433509789464, 11.733433509789462]",11.733433509789464,11.733433509789462,0,1,1,0.9816899075926616,1.9816899075926615,1.0183100924073385,3,1,1.7316899075926615,0,4,0,4,0,0,6,6,4,,,,,,,,,,,,,,,,,,,,,200002,005,2023-03-16_16h14.00.882,DMS_BEST_eyetracking_DAN_base_12-36_looped_10minWORKING,2022.2.4,None,
40,PRED,12,0.9816899075926616,2,images/picture_3.png,images/picture_1.png,0,"[-11.733433509789462, 11.733433509789464]",-11.733433509789462,11.733433509789464,images/picture_2.png,1,"[11.733433509789462, -11.733433509789466]",11.733433509789462,-11.733433509789464,images/picture_3.png,2,"[11.733433509789464, 11.733433509789462]",11.733433509789464,11.733433509789462,0,1,1,0.9816899075926616,1.9816899075926615,1.0183100924073385,3,1,1.7316899075926615,0,4,0,4,0,0,6,6,4,,,,,,,0.0014256249996833503,287.0131944579771,287.0131944579771,288.0143397079664,288.746604999993,288.9797788329888,288.9797788329888,288.9797788329888,290.0132247500005,290.0132247500005,290.0132247500005,290.0132247500005,3.9983651249785908,291.01312645798316,200002,005,2023-03-16_16h14.00.882,DMS_BEST_eyetracking_DAN_base_12-36_looped_10minWORKING,2022.2.4,None,
39,PRED,12,1.1107713891633688,2,images/picture_3.png,images/picture_1.png,0,"[-11.733433509789462, 11.733433509789464]",-11.733433509789462,11.733433509789464,images/picture_2.png,1,"[11.733433509789464, 11.733433509789462]",11.733433509789464,11.733433509789462,images/picture_3.png,2,"[11.733433509789462, -11.733433509789466]",11.733433509789462,-11.733433509789464,0,1,1,1.1107713891633688,2.1107713891633693,0.8892286108366312,3,1,1.8607713891633688,0,4,0,4,0,0,7,7,3,,,,,,,,,,,,,,,,,,,,,200002,005,2023-03-16_16h14.00.882,DMS_BEST_eyetracking_DAN_base_12-36_looped_10minWORKING,2022.2.4,None,
39,PRED,12,1.1107713891633688,2,images/picture_3.png,images/picture_1.png,0,"[-11.733433509789462, 11.733433509789464]",-11.733433509789462,11.733433509789464,images/picture_2.png,1,"[11.733433509789464, 11.733433509789462]",11.733433509789464,11.733433509789462,images/picture_3.png,2,"[11.733433509789462, -11.733433509789466]",11.733433509789462,-11.733433509789464,0,1,1,1.1107713891633688,2.1107713891633693,0.8892286108366312,3,1,1.8607713891633688,0,4,0,4,0,0,7,7,3,,,,,,,0.0013470000121742487,291.01312645798316,291.01312645798316,292.0131049579941,292.8797839159961,293.1129850409925,293.1129850409925,293.1129850409925,294.0130605829763,294.0130605829763,294.0130605829763,294.0130605829763,3.9988612919696607,295.01323399995454,200002,005,2023-03-16_16h14.00.882,DMS_BEST_eyetracking_DAN_base_12-36_looped_10minWORKING,2022.2.4,None,
36,PRED,12,0.6518099796384298,2,images/picture_3.png,images/picture_1.png,0,"[-11.733433509789462, 11.733433509789464]",-11.733433509789462,11.733433509789464,images/picture_2.png,1,"[11.733433509789462, -11.733433509789466]",11.733433509789462,-11.733433509789464,images/picture_3.png,2,"[11.733433509789464, 11.733433509789462]",11.733433509789464,11.733433509789462,0,1,1,0.6518099796384298,1.6518099796384298,1.3481900203615702,3,1,1.4018099796384298,0,4,0,4,0,0,8,8,0,,,,,,,,,,,,,,,,,,,,,200002,005,2023-03-16_16h14.00.882,DMS_BEST_eyetracking_DAN_base_12-36_looped_10minWORKING,2022.2.4,None,
36,PRED,12,0.6518099796384298,2,images/picture_3.png,images/picture_1.png,0,"[-11.733433509789462, 11.733433509789464]",-11.733433509789462,11.733433509789464,images/picture_2.png,1,"[11.733433509789462, -11.733433509789466]",11.733433509789462,-11.733433509789464,images/picture_3.png,2,"[11.733433509789464, 11.733433509789462]",11.733433509789464,11.733433509789462,0,1,1,0.6518099796384298,1.6518099796384298,1.3481900203615702,3,1,1.4018099796384298,0,4,0,4,0,0,8,8,0,,,,,,,0.0013263750006444752,295.01323399995454,295.01323399995454,296.0132619999931,296.41336349997437,296.66537204099586,296.66537204099586,296.66537204099586,298.0129782499862,298.0129782499862,298.0129782499862,298.0129782499862,3.9982077089953236,299.0581591659575,200002,005,2023-03-16_16h14.00.882,DMS_BEST_eyetracking_DAN_base_12-36_looped_10minWORKING,2022.2.4,None,
,,,,,,,,,,,,,,,,,,,,,,,,,,,,,,,4,0,4,0,,,,,,,,,299.0581591659575,311.0722879579989,,,,,,,,,,,,,,,200002,005,2023-03-16_16h14.00.882,DMS_BEST_eyetracking_DAN_base_12-36_looped_10minWORKING,2022.2.4,None,
48,UNPRED,12,0.9089246558605886,0,images/picture_1.png,images/picture_1.png,0,"[11.733433509789462, -11.733433509789466]",11.733433509789462,-11.733433509789464,images/picture_2.png,1,"[-11.733433509789462, 11.733433509789464]",-11.733433509789462,11.733433509789464,images/picture_3.png,2,"[11.733433509789464, 11.733433509789462]",11.733433509789464,11.733433509789462,0,1,1,0.9089246558605886,1.9089246558605888,1.0910753441394114,3,1,1.6589246558605886,0,5,0,5,0,0,0,0,3,,,,,,,,,,,,,,,,,,,,,200002,005,2023-03-16_16h14.00.882,DMS_BEST_eyetracking_DAN_base_12-36_looped_10minWORKING,2022.2.4,None,
48,UNPRED,12,0.9089246558605886,0,images/picture_1.png,images/picture_1.png,0,"[11.733433509789462, -11.733433509789466]",11.733433509789462,-11.733433509789464,images/picture_2.png,1,"[-11.733433509789462, 11.733433509789464]",-11.733433509789462,11.733433509789464,images/picture_3.png,2,"[11.733433509789464, 11.733433509789462]",11.733433509789464,11.733433509789462,0,1,1,0.9089246558605886,1.9089246558605888,1.0910753441394114,3,1,1.6589246558605886,0,5,0,5,0,0,0,0,3,,,,,,,0.002793333027511835,311.0722879579989,311.0722879579989,312.07947412499925,312.74614683300024,312.9795971659478,312.9795971659478,312.9795971659478,314.0793942500022,314.0793942500022,314.0793942500022,314.0648592079524,4.006629542040173,315.079850790964,200002,005,2023-03-16_16h14.00.882,DMS_BEST_eyetracking_DAN_base_12-36_looped_10minWORKING,2022.2.4,None,
45,UNPRED,12,0.6436635520927939,1,images/picture_2.png,images/picture_1.png,0,"[-11.733433509789462, 11.733433509789464]",-11.733433509789462,11.733433509789464,images/picture_2.png,1,"[11.733433509789464, 11.733433509789462]",11.733433509789464,11.733433509789462,images/picture_3.png,2,"[-11.733433509789466, -11.733433509789462]",-11.733433509789464,-11.733433509789462,0,1,1,0.6436635520927939,1.6436635520927938,1.3563364479072062,3,1,1.3936635520927938,0,5,0,5,0,0,1,1,0,,,,,,,,,,,,,,,,,,,,,200002,005,2023-03-16_16h14.00.882,DMS_BEST_eyetracking_DAN_base_12-36_looped_10minWORKING,2022.2.4,None,
45,UNPRED,12,0.6436635520927939,1,images/picture_2.png,images/picture_1.png,0,"[-11.733433509789462, 11.733433509789464]",-11.733433509789462,11.733433509789464,images/picture_2.png,1,"[11.733433509789464, 11.733433509789462]",11.733433509789464,11.733433509789462,images/picture_3.png,2,"[-11.733433509789466, -11.733433509789462]",-11.733433509789464,-11.733433509789462,0,1,1,0.6436635520927939,1.6436635520927938,1.3563364479072062,3,1,1.3936635520927938,0,5,0,5,0,0,1,1,0,,,,,,,0.003777500009164214,315.079850790964,315.079850790964,316.07974962500157,316.47963866597274,316.71287091600243,316.71287091600243,316.71287091600243,318.07933987496654,318.07933987496654,318.07933987496654,318.07933987496654,3.995912083017174,319.0792279999587,200002,005,2023-03-16_16h14.00.882,DMS_BEST_eyetracking_DAN_base_12-36_looped_10minWORKING,2022.2.4,None,
53,UNPRED,12,0.6211251834373124,0,images/picture_1.png,images/picture_1.png,0,"[-11.733433509789466, -11.733433509789462]",-11.733433509789464,-11.733433509789462,images/picture_2.png,1,"[-11.733433509789462, 11.733433509789464]",-11.733433509789462,11.733433509789464,images/picture_3.png,2,"[11.733433509789464, 11.733433509789462]",11.733433509789464,11.733433509789462,0,1,1,0.6211251834373124,1.6211251834373124,1.3788748165626876,3,1,1.3711251834373124,0,5,0,5,0,0,2,2,8,,,,,,,,,,,,,,,,,,,,,200002,005,2023-03-16_16h14.00.882,DMS_BEST_eyetracking_DAN_base_12-36_looped_10minWORKING,2022.2.4,None,
53,UNPRED,12,0.6211251834373124,0,images/picture_1.png,images/picture_1.png,0,"[-11.733433509789466, -11.733433509789462]",-11.733433509789464,-11.733433509789462,images/picture_2.png,1,"[-11.733433509789462, 11.733433509789464]",-11.733433509789462,11.733433509789464,images/picture_3.png,2,"[11.733433509789464, 11.733433509789462]",11.733433509789464,11.733433509789462,0,1,1,0.6211251834373124,1.6211251834373124,1.3788748165626876,3,1,1.3711251834373124,0,5,0,5,0,0,2,2,8,,,,,,,0.0029320830362848938,319.0792279999587,319.0792279999587,320.07927054096945,320.4653130410006,320.6983457079623,320.6983457079623,320.6983457079623,322.07959745795233,322.07959745795233,322.07959745795233,322.07959745795233,3.998384625010658,323.0790783329867,200002,005,2023-03-16_16h14.00.882,DMS_BEST_eyetracking_DAN_base_12-36_looped_10minWORKING,2022.2.4,None,
46,UNPRED,12,0.6006717643213175,1,images/picture_2.png,images/picture_1.png,0,"[11.733433509789462, -11.733433509789466]",11.733433509789462,-11.733433509789464,images/picture_2.png,1,"[-11.733433509789466, -11.733433509789462]",-11.733433509789464,-11.733433509789462,images/picture_3.png,2,"[-11.733433509789462, 11.733433509789464]",-11.733433509789462,11.733433509789464,0,1,1,0.6006717643213175,1.6006717643213175,1.3993282356786825,3,1,1.3506717643213175,0,5,0,5,0,0,3,3,1,,,,,,,,,,,,,,,,,,,,,200002,005,2023-03-16_16h14.00.882,DMS_BEST_eyetracking_DAN_base_12-36_looped_10minWORKING,2022.2.4,None,
46,UNPRED,12,0.6006717643213175,1,images/picture_2.png,images/picture_1.png,0,"[11.733433509789462, -11.733433509789466]",11.733433509789462,-11.733433509789464,images/picture_2.png,1,"[-11.733433509789466, -11.733433509789462]",-11.733433509789464,-11.733433509789462,images/picture_3.png,2,"[-11.733433509789462, 11.733433509789464]",-11.733433509789462,11.733433509789464,0,1,1,0.6006717643213175,1.6006717643213175,1.3993282356786825,3,1,1.3506717643213175,0,5,0,5,0,0,3,3,1,,,,,,,0.002509457990527153,323.0790783329867,323.0790783329867,324.0792241249583,324.4321816659649,324.67924845794914,324.67924845794914,324.67924845794914,326.0793434579973,326.0793434579973,326.0793434579973,326.0793434579973,3.9971035000053234,327.08063012495404,200002,005,2023-03-16_16h14.00.882,DMS_BEST_eyetracking_DAN_base_12-36_looped_10minWORKING,2022.2.4,None,
49,UNPRED,12,0.8834390837628323,2,images/picture_3.png,images/picture_1.png,0,"[11.733433509789464, 11.733433509789462]",11.733433509789464,11.733433509789462,images/picture_2.png,1,"[-11.733433509789466, -11.733433509789462]",-11.733433509789464,-11.733433509789462,images/picture_3.png,2,"[11.733433509789462, -11.733433509789466]",11.733433509789462,-11.733433509789464,0,1,1,0.8834390837628323,1.8834390837628323,1.1165609162371677,3,1,1.6334390837628323,0,5,0,5,0,0,4,4,4,,,,,,,,,,,,,,,,,,,,,200002,005,2023-03-16_16h14.00.882,DMS_BEST_eyetracking_DAN_base_12-36_looped_10minWORKING,2022.2.4,None,
49,UNPRED,12,0.8834390837628323,2,images/picture_3.png,images/picture_1.png,0,"[11.733433509789464, 11.733433509789462]",11.733433509789464,11.733433509789462,images/picture_2.png,1,"[-11.733433509789466, -11.733433509789462]",-11.733433509789464,-11.733433509789462,images/picture_3.png,2,"[11.733433509789462, -11.733433509789466]",11.733433509789462,-11.733433509789464,0,1,1,0.8834390837628323,1.8834390837628323,1.1165609162371677,3,1,1.6334390837628323,0,5,0,5,0,0,4,4,4,,,,,,,0.004441750003024936,327.08063012495404,327.08063012495404,328.07938512496185,328.7125009999727,328.96491137496196,328.96491137496196,328.96491137496196,330.0792624159949,330.0792624159949,330.0792624159949,330.0792624159949,3.9962812500307336,331.0790488749626,200002,005,2023-03-16_16h14.00.882,DMS_BEST_eyetracking_DAN_base_12-36_looped_10minWORKING,2022.2.4,None,
50,UNPRED,12,1.0387449873654122,2,images/picture_3.png,images/picture_1.png,0,"[11.733433509789462, -11.733433509789466]",11.733433509789462,-11.733433509789464,images/picture_2.png,1,"[-11.733433509789462, 11.733433509789464]",-11.733433509789462,11.733433509789464,images/picture_3.png,2,"[11.733433509789464, 11.733433509789462]",11.733433509789464,11.733433509789462,0,1,1,1.0387449873654122,2.038744987365412,0.9612550126345878,3,1,1.7887449873654118,0,5,0,5,0,0,5,5,5,,,,,,,,,,,,,,,,,,,,,200002,005,2023-03-16_16h14.00.882,DMS_BEST_eyetracking_DAN_base_12-36_looped_10minWORKING,2022.2.4,None,
50,UNPRED,12,1.0387449873654122,2,images/picture_3.png,images/picture_1.png,0,"[11.733433509789462, -11.733433509789466]",11.733433509789462,-11.733433509789464,images/picture_2.png,1,"[-11.733433509789462, 11.733433509789464]",-11.733433509789462,11.733433509789464,images/picture_3.png,2,"[11.733433509789464, 11.733433509789462]",11.733433509789464,11.733433509789462,0,1,1,1.0387449873654122,2.038744987365412,0.9612550126345878,3,1,1.7887449873654118,0,5,0,5,0,0,5,5,5,,,,,,,0.0016599579830653965,331.0790488749626,331.0790488749626,332.0791652499465,332.87959124997724,333.11237637494924,333.11237637494924,333.11237637494924,334.0791593749891,334.0791593749891,334.0791593749891,334.0791593749891,3.9970540000358596,335.0790929579525,200002,005,2023-03-16_16h14.00.882,DMS_BEST_eyetracking_DAN_base_12-36_looped_10minWORKING,2022.2.4,None,
51,UNPRED,12,0.6046204634186502,2,images/picture_3.png,images/picture_1.png,0,"[11.733433509789462, -11.733433509789466]",11.733433509789462,-11.733433509789464,images/picture_2.png,1,"[-11.733433509789462, 11.733433509789464]",-11.733433509789462,11.733433509789464,images/picture_3.png,2,"[11.733433509789464, 11.733433509789462]",11.733433509789464,11.733433509789462,0,1,1,0.6046204634186502,1.6046204634186505,1.3953795365813495,3,1,1.3546204634186505,0,5,0,5,0,0,6,6,6,,,,,,,,,,,,,,,,,,,,,200002,005,2023-03-16_16h14.00.882,DMS_BEST_eyetracking_DAN_base_12-36_looped_10minWORKING,2022.2.4,None,
51,UNPRED,12,0.6046204634186502,2,images/picture_3.png,images/picture_1.png,0,"[11.733433509789462, -11.733433509789466]",11.733433509789462,-11.733433509789464,images/picture_2.png,1,"[-11.733433509789462, 11.733433509789464]",-11.733433509789462,11.733433509789464,images/picture_3.png,2,"[11.733433509789464, 11.733433509789462]",11.733433509789464,11.733433509789462,0,1,1,0.6046204634186502,1.6046204634186505,1.3953795365813495,3,1,1.3546204634186505,0,5,0,5,0,0,6,6,6,,,,,,,0.001602750038728118,335.0790929579525,335.0790929579525,336.0797655409551,336.44585654098773,336.6790678749676,336.6790678749676,336.6790678749676,338.07920325000305,338.07920325000305,338.07920325000305,338.07920325000305,3.9972655420424417,339.07908233295893,200002,005,2023-03-16_16h14.00.882,DMS_BEST_eyetracking_DAN_base_12-36_looped_10minWORKING,2022.2.4,None,
47,UNPRED,12,0.8571353221581484,2,images/picture_3.png,images/picture_1.png,0,"[11.733433509789464, 11.733433509789462]",11.733433509789464,11.733433509789462,images/picture_2.png,1,"[11.733433509789462, -11.733433509789466]",11.733433509789462,-11.733433509789464,images/picture_3.png,2,"[-11.733433509789466, -11.733433509789462]",-11.733433509789464,-11.733433509789462,0,1,1,0.8571353221581484,1.8571353221581484,1.1428646778418516,3,1,1.6071353221581484,0,5,0,5,0,0,7,7,2,,,,,,,,,,,,,,,,,,,,,200002,005,2023-03-16_16h14.00.882,DMS_BEST_eyetracking_DAN_base_12-36_looped_10minWORKING,2022.2.4,None,
47,UNPRED,12,0.8571353221581484,2,images/picture_3.png,images/picture_1.png,0,"[11.733433509789464, 11.733433509789462]",11.733433509789464,11.733433509789462,images/picture_2.png,1,"[11.733433509789462, -11.733433509789466]",11.733433509789462,-11.733433509789464,images/picture_3.png,2,"[-11.733433509789466, -11.733433509789462]",-11.733433509789464,-11.733433509789462,0,1,1,0.8571353221581484,1.8571353221581484,1.1428646778418516,3,1,1.6071353221581484,0,5,0,5,0,0,7,7,2,,,,,,,0.001563958008773625,339.07908233295893,339.07908233295893,340.0789439579821,340.69781495799543,340.9314639159711,340.9314639159711,340.9314639159711,342.0793189999531,342.0793189999531,342.0793189999531,342.0793189999531,3.9972920000436716,343.0788098749472,200002,005,2023-03-16_16h14.00.882,DMS_BEST_eyetracking_DAN_base_12-36_looped_10minWORKING,2022.2.4,None,
52,UNPRED,12,0.9648426584610046,1,images/picture_2.png,images/picture_1.png,0,"[-11.733433509789462, 11.733433509789464]",-11.733433509789462,11.733433509789464,images/picture_2.png,1,"[11.733433509789464, 11.733433509789462]",11.733433509789464,11.733433509789462,images/picture_3.png,2,"[11.733433509789462, -11.733433509789466]",11.733433509789462,-11.733433509789464,0,1,1,0.9648426584610046,1.9648426584610048,1.0351573415389954,3,1,1.7148426584610046,0,5,0,5,0,0,8,8,7,,,,,,,,,,,,,,,,,,,,,200002,005,2023-03-16_16h14.00.882,DMS_BEST_eyetracking_DAN_base_12-36_looped_10minWORKING,2022.2.4,None,
52,UNPRED,12,0.9648426584610046,1,images/picture_2.png,images/picture_1.png,0,"[-11.733433509789462, 11.733433509789464]",-11.733433509789462,11.733433509789464,images/picture_2.png,1,"[11.733433509789464, 11.733433509789462]",11.733433509789464,11.733433509789462,images/picture_3.png,2,"[11.733433509789462, -11.733433509789466]",11.733433509789462,-11.733433509789464,0,1,1,0.9648426584610046,1.9648426584610048,1.0351573415389954,3,1,1.7148426584610046,0,5,0,5,0,0,8,8,7,,,,,,,0.0024395420332439244,343.0788098749472,343.0788098749472,344.0789412079612,344.798258374969,345.0456420829869,345.0456420829869,345.0456420829869,346.0790227910038,346.0790227910038,346.0790227910038,346.0790227910038,3.9986719170119613,347.20944641600363,200002,005,2023-03-16_16h14.00.882,DMS_BEST_eyetracking_DAN_base_12-36_looped_10minWORKING,2022.2.4,None,
,,,,,,,,,,,,,,,,,,,,,,,,,,,,,,,5,0,5,0,,,,,,,,,347.20944641600363,359.2310271249735,,,,,,,,,,,,,,,200002,005,2023-03-16_16h14.00.882,DMS_BEST_eyetracking_DAN_base_12-36_looped_10minWORKING,2022.2.4,None,
59,PRED,12,1.0617120748465003,1,images/picture_2.png,images/picture_1.png,0,"[11.733433509789464, 11.733433509789462]",11.733433509789464,11.733433509789462,images/picture_2.png,1,"[-11.733433509789462, 11.733433509789464]",-11.733433509789462,11.733433509789464,images/picture_3.png,2,"[11.733433509789462, -11.733433509789466]",11.733433509789462,-11.733433509789464,0,1,1,1.0617120748465003,2.0617120748465005,0.9382879251534996,3,1,1.8117120748465003,0,6,0,6,0,0,0,0,5,,,,,,,,,,,,,,,,,,,,,200002,005,2023-03-16_16h14.00.882,DMS_BEST_eyetracking_DAN_base_12-36_looped_10minWORKING,2022.2.4,None,
59,PRED,12,1.0617120748465003,1,images/picture_2.png,images/picture_1.png,0,"[11.733433509789464, 11.733433509789462]",11.733433509789464,11.733433509789462,images/picture_2.png,1,"[-11.733433509789462, 11.733433509789464]",-11.733433509789462,11.733433509789464,images/picture_3.png,2,"[11.733433509789462, -11.733433509789466]",11.733433509789462,-11.733433509789464,0,1,1,1.0617120748465003,2.0617120748465005,0.9382879251534996,3,1,1.8117120748465003,0,6,0,6,0,0,0,0,5,,,,,,,0.0025075420271605253,359.2310271249735,359.2310271249735,360.2454349579639,361.045336915995,361.2786855409504,361.2786855409504,361.2786855409504,362.2307227079873,362.2307227079873,362.2307227079873,362.21188520797295,4.021348417038098,363.21195045794593,200002,005,2023-03-16_16h14.00.882,DMS_BEST_eyetracking_DAN_base_12-36_looped_10minWORKING,2022.2.4,None,
57,PRED,12,0.5815174688296519,1,images/picture_2.png,images/picture_1.png,0,"[11.733433509789464, 11.733433509789462]",11.733433509789464,11.733433509789462,images/picture_2.png,1,"[-11.733433509789462, 11.733433509789464]",-11.733433509789462,11.733433509789464,images/picture_3.png,2,"[11.733433509789462, -11.733433509789466]",11.733433509789462,-11.733433509789464,0,1,1,0.5815174688296519,1.5815174688296518,1.4184825311703482,3,1,1.3315174688296518,0,6,0,6,0,0,1,1,3,,,,,,,,,,,,,,,,,,,,,200002,005,2023-03-16_16h14.00.882,DMS_BEST_eyetracking_DAN_base_12-36_looped_10minWORKING,2022.2.4,None,
57,PRED,12,0.5815174688296519,1,images/picture_2.png,images/picture_1.png,0,"[11.733433509789464, 11.733433509789462]",11.733433509789464,11.733433509789462,images/picture_2.png,1,"[-11.733433509789462, 11.733433509789464]",-11.733433509789462,11.733433509789464,images/picture_3.png,2,"[11.733433509789462, -11.733433509789466]",11.733433509789462,-11.733433509789464,0,1,1,0.5815174688296519,1.5815174688296518,1.4184825311703482,3,1,1.3315174688296518,0,6,0,6,0,0,1,1,3,,,,,,,0.0021990410168655217,363.24549341597594,363.24549341597594,364.2453145829495,364.5785192079493,364.8132071250002,364.8132071250002,364.8132071250002,366.24533670797246,366.24533670797246,366.24533670797246,366.24533670797246,3.9992099999799393,367.24506483296864,200002,005,2023-03-16_16h14.00.882,DMS_BEST_eyetracking_DAN_base_12-36_looped_10minWORKING,2022.2.4,None,
61,PRED,12,0.5321553905105535,1,images/picture_2.png,images/picture_1.png,0,"[11.733433509789464, 11.733433509789462]",11.733433509789464,11.733433509789462,images/picture_2.png,1,"[11.733433509789462, -11.733433509789466]",11.733433509789462,-11.733433509789464,images/picture_3.png,2,"[-11.733433509789466, -11.733433509789462]",-11.733433509789464,-11.733433509789462,0,1,1,0.5321553905105535,1.5321553905105536,1.4678446094894464,3,1,1.2821553905105536,0,6,0,6,0,0,2,2,7,,,,,,,,,,,,,,,,,,,,,200002,005,2023-03-16_16h14.00.882,DMS_BEST_eyetracking_DAN_base_12-36_looped_10minWORKING,2022.2.4,None,
61,PRED,12,0.5321553905105535,1,images/picture_2.png,images/picture_1.png,0,"[11.733433509789464, 11.733433509789462]",11.733433509789464,11.733433509789462,images/picture_2.png,1,"[11.733433509789462, -11.733433509789466]",11.733433509789462,-11.733433509789464,images/picture_3.png,2,"[-11.733433509789466, -11.733433509789462]",-11.733433509789464,-11.733433509789462,0,1,1,0.5321553905105535,1.5321553905105536,1.4678446094894464,3,1,1.2821553905105536,0,6,0,6,0,0,2,2,7,,,,,,,0.0019581670057959855,367.24506483296864,367.24506483296864,368.24526995798806,368.53140999999596,368.77867795794737,368.77867795794737,368.77867795794737,370.24589945795015,370.24589945795015,370.24589945795015,370.24589945795015,3.9981918340199627,371.24514420796186,200002,005,2023-03-16_16h14.00.882,DMS_BEST_eyetracking_DAN_base_12-36_looped_10minWORKING,2022.2.4,None,
58,PRED,12,0.7722848023562603,1,images/picture_2.png,images/picture_1.png,0,"[-11.733433509789466, -11.733433509789462]",-11.733433509789464,-11.733433509789462,images/picture_2.png,1,"[-11.733433509789462, 11.733433509789464]",-11.733433509789462,11.733433509789464,images/picture_3.png,2,"[11.733433509789464, 11.733433509789462]",11.733433509789464,11.733433509789462,0,1,1,0.7722848023562603,1.7722848023562603,1.2277151976437397,3,1,1.5222848023562603,0,6,0,6,0,0,3,3,4,,,,,,,,,,,,,,,,,,,,,200002,005,2023-03-16_16h14.00.882,DMS_BEST_eyetracking_DAN_base_12-36_looped_10minWORKING,2022.2.4,None,
58,PRED,12,0.7722848023562603,1,images/picture_2.png,images/picture_1.png,0,"[-11.733433509789466, -11.733433509789462]",-11.733433509789464,-11.733433509789462,images/picture_2.png,1,"[-11.733433509789462, 11.733433509789464]",-11.733433509789462,11.733433509789464,images/picture_3.png,2,"[11.733433509789464, 11.733433509789462]",11.733433509789464,11.733433509789462,0,1,1,0.7722848023562603,1.7722848023562603,1.2277151976437397,3,1,1.5222848023562603,0,6,0,6,0,0,3,3,4,,,,,,,0.0019631669856607914,371.24514420796186,371.24514420796186,372.2450702909846,372.7785089579993,373.01223141595256,373.01223141595256,373.01223141595256,374.2453430829919,374.2453430829919,374.2453430829919,374.2453430829919,3.998079416982364,375.2448252500035,200002,005,2023-03-16_16h14.00.882,DMS_BEST_eyetracking_DAN_base_12-36_looped_10minWORKING,2022.2.4,None,
54,PRED,12,0.7712496054708843,1,images/picture_2.png,images/picture_1.png,0,"[11.733433509789464, 11.733433509789462]",11.733433509789464,11.733433509789462,images/picture_2.png,1,"[11.733433509789462, -11.733433509789466]",11.733433509789462,-11.733433509789464,images/picture_3.png,2,"[-11.733433509789462, 11.733433509789464]",-11.733433509789462,11.733433509789464,0,1,1,0.7712496054708843,1.7712496054708842,1.2287503945291158,3,1,1.5212496054708842,0,6,0,6,0,0,4,4,0,,,,,,,,,,,,,,,,,,,,,200002,005,2023-03-16_16h14.00.882,DMS_BEST_eyetracking_DAN_base_12-36_looped_10minWORKING,2022.2.4,None,
54,PRED,12,0.7712496054708843,1,images/picture_2.png,images/picture_1.png,0,"[11.733433509789464, 11.733433509789462]",11.733433509789464,11.733433509789462,images/picture_2.png,1,"[11.733433509789462, -11.733433509789466]",11.733433509789462,-11.733433509789464,images/picture_3.png,2,"[-11.733433509789462, 11.733433509789464]",-11.733433509789462,11.733433509789464,0,1,1,0.7712496054708843,1.7712496054708842,1.2287503945291158,3,1,1.5212496054708842,0,6,0,6,0,0,4,4,0,,,,,,,0.0019600000232458115,375.2448252500035,375.2448252500035,376.2449012909783,376.7781856249785,377.0114679999533,377.0114679999533,377.0114679999533,378.24465591600165,378.24465591600165,378.24465591600165,378.24465591600165,3.9988712089834735,379.24480145797133,200002,005,2023-03-16_16h14.00.882,DMS_BEST_eyetracking_DAN_base_12-36_looped_10minWORKING,2022.2.4,None,
55,PRED,12,0.9344579503710344,1,images/picture_2.png,images/picture_1.png,0,"[11.733433509789462, -11.733433509789466]",11.733433509789462,-11.733433509789464,images/picture_2.png,1,"[11.733433509789464, 11.733433509789462]",11.733433509789464,11.733433509789462,images/picture_3.png,2,"[-11.733433509789462, 11.733433509789464]",-11.733433509789462,11.733433509789464,0,1,1,0.9344579503710344,1.9344579503710344,1.0655420496289656,3,1,1.6844579503710344,0,6,0,6,0,0,5,5,1,,,,,,,,,,,,,,,,,,,,,200002,005,2023-03-16_16h14.00.882,DMS_BEST_eyetracking_DAN_base_12-36_looped_10minWORKING,2022.2.4,None,
55,PRED,12,0.9344579503710344,1,images/picture_2.png,images/picture_1.png,0,"[11.733433509789462, -11.733433509789466]",11.733433509789462,-11.733433509789464,images/picture_2.png,1,"[11.733433509789464, 11.733433509789462]",11.733433509789464,11.733433509789462,images/picture_3.png,2,"[-11.733433509789462, 11.733433509789464]",-11.733433509789462,11.733433509789464,0,1,1,0.9344579503710344,1.9344579503710344,1.0655420496289656,3,1,1.6844579503710344,0,6,0,6,0,0,5,5,1,,,,,,,0.0019493339932523668,379.24480145797133,379.24480145797133,380.24485370796174,380.9308271249756,381.1781709159841,381.1781709159841,381.1781709159841,382.2446814579889,382.2446814579889,382.2446814579889,382.2446814579889,3.9983941669925116,383.24467520799953,200002,005,2023-03-16_16h14.00.882,DMS_BEST_eyetracking_DAN_base_12-36_looped_10minWORKING,2022.2.4,None,
62,PRED,12,0.9863158725326712,1,images/picture_2.png,images/picture_1.png,0,"[-11.733433509789462, 11.733433509789464]",-11.733433509789462,11.733433509789464,images/picture_2.png,1,"[11.733433509789464, 11.733433509789462]",11.733433509789464,11.733433509789462,images/picture_3.png,2,"[11.733433509789462, -11.733433509789466]",11.733433509789462,-11.733433509789464,0,1,1,0.9863158725326712,1.9863158725326708,1.0136841274673292,3,1,1.7363158725326708,0,6,0,6,0,0,6,6,8,,,,,,,,,,,,,,,,,,,,,200002,005,2023-03-16_16h14.00.882,DMS_BEST_eyetracking_DAN_base_12-36_looped_10minWORKING,2022.2.4,None,
62,PRED,12,0.9863158725326712,1,images/picture_2.png,images/picture_1.png,0,"[-11.733433509789462, 11.733433509789464]",-11.733433509789462,11.733433509789464,images/picture_2.png,1,"[11.733433509789464, 11.733433509789462]",11.733433509789464,11.733433509789462,images/picture_3.png,2,"[11.733433509789462, -11.733433509789466]",11.733433509789462,-11.733433509789464,0,1,1,0.9863158725326712,1.9863158725326708,1.0136841274673292,3,1,1.7363158725326708,0,6,0,6,0,0,6,6,8,,,,,,,0.001920917013194412,383.24467520799953,383.24467520799953,384.2445324579603,384.97804716596147,385.23026212496916,385.23026212496916,385.23026212496916,386.2450610829983,386.2450610829983,386.2450610829983,386.2450610829983,3.9981218749890104,387.2446419999469,200002,005,2023-03-16_16h14.00.882,DMS_BEST_eyetracking_DAN_base_12-36_looped_10minWORKING,2022.2.4,None,
60,PRED,12,0.9749189396137329,1,images/picture_2.png,images/picture_1.png,0,"[-11.733433509789462, 11.733433509789464]",-11.733433509789462,11.733433509789464,images/picture_2.png,1,"[11.733433509789462, -11.733433509789466]",11.733433509789462,-11.733433509789464,images/picture_3.png,2,"[11.733433509789464, 11.733433509789462]",11.733433509789464,11.733433509789462,0,1,1,0.9749189396137329,1.9749189396137332,1.0250810603862672,3,1,1.7249189396137332,0,6,0,6,0,0,7,7,6,,,,,,,,,,,,,,,,,,,,,200002,005,2023-03-16_16h14.00.882,DMS_BEST_eyetracking_DAN_base_12-36_looped_10minWORKING,2022.2.4,None,
60,PRED,12,0.9749189396137329,1,images/picture_2.png,images/picture_1.png,0,"[-11.733433509789462, 11.733433509789464]",-11.733433509789462,11.733433509789464,images/picture_2.png,1,"[11.733433509789462, -11.733433509789466]",11.733433509789462,-11.733433509789464,images/picture_3.png,2,"[11.733433509789464, 11.733433509789462]",11.733433509789464,11.733433509789462,0,1,1,0.9749189396137329,1.9749189396137332,1.0250810603862672,3,1,1.7249189396137332,0,6,0,6,0,0,7,7,6,,,,,,,0.0019772499799728394,387.2446419999469,387.2446419999469,388.24464983295184,388.9778498329688,389.21118549996754,389.21118549996754,389.21118549996754,390.24476837494876,390.24476837494876,390.24476837494876,390.24476837494876,3.999282290984411,391.2439650829765,200002,005,2023-03-16_16h14.00.882,DMS_BEST_eyetracking_DAN_base_12-36_looped_10minWORKING,2022.2.4,None,
56,PRED,12,1.0906091985311583,1,images/picture_2.png,images/picture_1.png,0,"[-11.733433509789466, -11.733433509789462]",-11.733433509789464,-11.733433509789462,images/picture_2.png,1,"[11.733433509789464, 11.733433509789462]",11.733433509789464,11.733433509789462,images/picture_3.png,2,"[-11.733433509789462, 11.733433509789464]",-11.733433509789462,11.733433509789464,0,1,1,1.0906091985311583,2.0906091985311583,0.9093908014688415,3,1,1.8406091985311583,0,6,0,6,0,0,8,8,2,,,,,,,,,,,,,,,,,,,,,200002,005,2023-03-16_16h14.00.882,DMS_BEST_eyetracking_DAN_base_12-36_looped_10minWORKING,2022.2.4,None,
56,PRED,12,1.0906091985311583,1,images/picture_2.png,images/picture_1.png,0,"[-11.733433509789466, -11.733433509789462]",-11.733433509789464,-11.733433509789462,images/picture_2.png,1,"[11.733433509789464, 11.733433509789462]",11.733433509789464,11.733433509789462,images/picture_3.png,2,"[-11.733433509789462, 11.733433509789464]",-11.733433509789462,11.733433509789464,0,1,1,1.0906091985311583,2.0906091985311583,0.9093908014688415,3,1,1.8406091985311583,0,6,0,6,0,0,8,8,2,,,,,,,0.0027801660471595824,391.2439650829765,391.2439650829765,392.2445434999536,393.0969846659573,393.3300799159915,393.3300799159915,393.3300799159915,394.2447142499732,394.2447142499732,394.2447142499732,394.2447142499732,3.996123791032005,395.30600662500365,200002,005,2023-03-16_16h14.00.882,DMS_BEST_eyetracking_DAN_base_12-36_looped_10minWORKING,2022.2.4,None,
,,,,,,,,,,,,,,,,,,,,,,,,,,,,,,,6,0,6,0,,,,,,,,,395.30600662500365,407.3296887909528,,,,,,,,,,,,,,,200002,005,2023-03-16_16h14.00.882,DMS_BEST_eyetracking_DAN_base_12-36_looped_10minWORKING,2022.2.4,None,
68,UNPRED,12,0.8975029801829917,2,images/picture_3.png,images/picture_1.png,0,"[-11.733433509789462, 11.733433509789464]",-11.733433509789462,11.733433509789464,images/picture_2.png,1,"[-11.733433509789466, -11.733433509789462]",-11.733433509789464,-11.733433509789462,images/picture_3.png,2,"[11.733433509789462, -11.733433509789466]",11.733433509789462,-11.733433509789464,0,1,1,0.8975029801829917,1.897502980182992,1.1024970198170083,3,1,1.6475029801829917,0,7,0,7,0,0,0,0,5,,,,,,,,,,,,,,,,,,,,,200002,005,2023-03-16_16h14.00.882,DMS_BEST_eyetracking_DAN_base_12-36_looped_10minWORKING,2022.2.4,None,
68,UNPRED,12,0.8975029801829917,2,images/picture_3.png,images/picture_1.png,0,"[-11.733433509789462, 11.733433509789464]",-11.733433509789462,11.733433509789464,images/picture_2.png,1,"[-11.733433509789466, -11.733433509789462]",-11.733433509789464,-11.733433509789462,images/picture_3.png,2,"[11.733433509789462, -11.733433509789466]",11.733433509789462,-11.733433509789464,0,1,1,0.8975029801829917,1.897502980182992,1.1024970198170083,3,1,1.6475029801829917,0,7,0,7,0,0,0,0,5,,,,,,,0.0018312499742023647,407.3296887909528,407.3296887909528,408.3442264579935,408.97762624995084,409.2108872079989,409.2108872079989,409.2108872079989,410.31094154098537,410.31094154098537,410.31094154098537,410.31094154098537,4.022808542009443,411.3111922079697,200002,005,2023-03-16_16h14.00.882,DMS_BEST_eyetracking_DAN_base_12-36_looped_10minWORKING,2022.2.4,None,
63,UNPRED,12,1.153098823993108,1,images/picture_2.png,images/picture_1.png,0,"[11.733433509789462, -11.733433509789466]",11.733433509789462,-11.733433509789464,images/picture_2.png,1,"[-11.733433509789462, 11.733433509789464]",-11.733433509789462,11.733433509789464,images/picture_3.png,2,"[11.733433509789464, 11.733433509789462]",11.733433509789464,11.733433509789462,0,1,1,1.153098823993108,2.1530988239931084,0.8469011760068921,3,1,1.9030988239931084,0,7,0,7,0,0,1,1,0,,,,,,,,,,,,,,,,,,,,,200002,005,2023-03-16_16h14.00.882,DMS_BEST_eyetracking_DAN_base_12-36_looped_10minWORKING,2022.2.4,None,
63,UNPRED,12,1.153098823993108,1,images/picture_2.png,images/picture_1.png,0,"[11.733433509789462, -11.733433509789466]",11.733433509789462,-11.733433509789464,images/picture_2.png,1,"[-11.733433509789462, 11.733433509789464]",-11.733433509789462,11.733433509789464,images/picture_3.png,2,"[11.733433509789464, 11.733433509789462]",11.733433509789464,11.733433509789462,0,1,1,1.153098823993108,2.1530988239931084,0.8469011760068921,3,1,1.9030988239931084,0,7,0,7,0,0,1,1,0,,,,,,,0.0031714579672552645,411.34403745795134,411.34403745795134,412.34447445796104,413.2443785829819,413.4966389579931,413.4966389579931,413.4966389579931,414.34417704096995,414.34417704096995,414.34417704096995,414.34417704096995,3.9979471669648774,415.3437724579708,200002,005,2023-03-16_16h14.00.882,DMS_BEST_eyetracking_DAN_base_12-36_looped_10minWORKING,2022.2.4,None,
70,UNPRED,12,0.8371962638437964,2,images/picture_3.png,images/picture_1.png,0,"[11.733433509789464, 11.733433509789462]",11.733433509789464,11.733433509789462,images/picture_2.png,1,"[-11.733433509789466, -11.733433509789462]",-11.733433509789464,-11.733433509789462,images/picture_3.png,2,"[11.733433509789462, -11.733433509789466]",11.733433509789462,-11.733433509789464,0,1,1,0.8371962638437964,1.8371962638437964,1.1628037361562036,3,1,1.5871962638437964,0,7,0,7,0,0,2,2,7,,,,,,,,,,,,,,,,,,,,,200002,005,2023-03-16_16h14.00.882,DMS_BEST_eyetracking_DAN_base_12-36_looped_10minWORKING,2022.2.4,None,
70,UNPRED,12,0.8371962638437964,2,images/picture_3.png,images/picture_1.png,0,"[11.733433509789464, 11.733433509789462]",11.733433509789464,11.733433509789462,images/picture_2.png,1,"[-11.733433509789466, -11.733433509789462]",-11.733433509789464,-11.733433509789462,images/picture_3.png,2,"[11.733433509789462, -11.733433509789466]",11.733433509789462,-11.733433509789464,0,1,1,0.8371962638437964,1.8371962638437964,1.1628037361562036,3,1,1.5871962638437964,0,7,0,7,0,0,2,2,7,,,,,,,0.002406959014479071,415.3437724579708,415.3437724579708,416.3442007909762,416.94415541598573,417.1774991249549,417.1774991249549,417.1774991249549,418.3441109159612,418.3441109159612,418.3441109159612,418.3441109159612,3.997360125009436,419.34364958299557,200002,005,2023-03-16_16h14.00.882,DMS_BEST_eyetracking_DAN_base_12-36_looped_10minWORKING,2022.2.4,None,
69,UNPRED,12,1.0316226876632215,1,images/picture_2.png,images/picture_1.png,0,"[11.733433509789462, -11.733433509789466]",11.733433509789462,-11.733433509789464,images/picture_2.png,1,"[-11.733433509789466, -11.733433509789462]",-11.733433509789464,-11.733433509789462,images/picture_3.png,2,"[-11.733433509789462, 11.733433509789464]",-11.733433509789462,11.733433509789464,0,1,1,1.0316226876632215,2.031622687663222,0.9683773123367784,3,1,1.781622687663222,0,7,0,7,0,0,3,3,6,,,,,,,,,,,,,,,,,,,,,200002,005,2023-03-16_16h14.00.882,DMS_BEST_eyetracking_DAN_base_12-36_looped_10minWORKING,2022.2.4,None,
69,UNPRED,12,1.0316226876632215,1,images/picture_2.png,images/picture_1.png,0,"[11.733433509789462, -11.733433509789466]",11.733433509789462,-11.733433509789464,images/picture_2.png,1,"[-11.733433509789466, -11.733433509789462]",-11.733433509789464,-11.733433509789462,images/picture_3.png,2,"[-11.733433509789462, 11.733433509789464]",-11.733433509789462,11.733433509789464,0,1,1,1.0316226876632215,2.031622687663222,0.9683773123367784,3,1,1.781622687663222,0,7,0,7,0,0,3,3,6,,,,,,,0.0030835409997962415,419.34364958299557,419.34364958299557,420.34401470795274,421.1297709159553,421.3773181659635,421.3773181659635,421.3773181659635,422.34426991594955,422.34426991594955,422.34426991594955,422.34426991594955,3.9962118749972433,423.3442746659857,200002,005,2023-03-16_16h14.00.882,DMS_BEST_eyetracking_DAN_base_12-36_looped_10minWORKING,2022.2.4,None,
