trial_count,blockType,blockNum,delay_time,stimImage_i,stimImage,responseImage1,responseImage1_i,responseImage1_pos,responseImage1_X,responseImage1_Y,responseImage2,responseImage2_i,responseImage2_pos,responseImage2_X,responseImage2_Y,responseImage3,responseImage3_i,responseImage3_pos,responseImage3_X,responseImage3_Y,cue_onset,cue_dur,delay_onset,delay_dur,resp_onset,resp_dur,rest_onset,rest_dur,circle_dur,circle_onset,blocks.thisRepN,blocks.thisTrialN,blocks.thisN,blocks.thisIndex,trials.thisRepN,trials.thisTrialN,trials.thisN,trials.thisIndex,key_resp.started,text.started,key_resp.keys,key_resp.rt,text_2.started,text_2.stopped,etRecord.started,sample.started,Delay.started,sample.stopped,Delay.stopped,Response_1.started,Response_2.started,Response_3.started,polygon.started,Response_1.stopped,Response_2.stopped,Response_3.stopped,etRecord.stopped,polygon.stopped,participant,session,date,expName,psychopyVersion,frameRate,
,,,,,,,,,,,,,,,,,,,,,,,,,,,,,,,,,,,,,,,18.035401833010837,18.035401833010837,t,47.51481324998895,,,,,,,,,,,,,,,,,200002,002,2023-03-16_15h36.44.972,DMS_BEST_eyetracking_DAN_base_12-36_looped_10minWORKING,2022.2.4,None,
7,PRED,12,0.8001815686941451,2,images/picture_3.png,images/picture_1.png,0,"[-11.733433509789466, -11.733433509789462]",-11.733433509789464,-11.733433509789462,images/picture_2.png,1,"[11.733433509789462, -11.733433509789466]",11.733433509789462,-11.733433509789464,images/picture_3.png,2,"[11.733433509789464, 11.733433509789462]",11.733433509789464,11.733433509789462,0,1,1,0.8001815686941451,1.8001815686941451,1.1998184313058549,3,1,1.5501815686941451,0,0,0,0,0,0,0,0,7,,,,,65.57375708298059,77.61326725000981,,,,,,,,,,,,,,,200002,002,2023-03-16_15h36.44.972,DMS_BEST_eyetracking_DAN_base_12-36_looped_10minWORKING,2022.2.4,None,
7,PRED,12,0.8001815686941451,2,images/picture_3.png,images/picture_1.png,0,"[-11.733433509789466, -11.733433509789462]",-11.733433509789464,-11.733433509789462,images/picture_2.png,1,"[11.733433509789462, -11.733433509789466]",11.733433509789462,-11.733433509789464,images/picture_3.png,2,"[11.733433509789464, 11.733433509789462]",11.733433509789464,11.733433509789462,0,1,1,0.8001815686941451,1.8001815686941451,1.1998184313058549,3,1,1.5501815686941451,0,0,0,0,0,0,0,0,7,,,,,,,0.004709042026661336,77.61326725000981,77.61326725000981,78.62094508297741,79.17342720797751,79.4066249160096,79.4066249160096,79.4066249160096,80.60724304098403,80.62082529097097,80.62082529097097,80.62082529097097,4.008517542039044,81.6222169160028,200002,002,2023-03-16_15h36.44.972,DMS_BEST_eyetracking_DAN_base_12-36_looped_10minWORKING,2022.2.4,None,
3,PRED,12,0.8707694274470956,2,images/picture_3.png,images/picture_1.png,0,"[11.733433509789462, -11.733433509789466]",11.733433509789462,-11.733433509789464,images/picture_2.png,1,"[11.733433509789464, 11.733433509789462]",11.733433509789464,11.733433509789462,images/picture_3.png,2,"[-11.733433509789462, 11.733433509789464]",-11.733433509789462,11.733433509789464,0,1,1,0.8707694274470956,1.870769427447096,1.1292305725529044,3,1,1.6207694274470956,0,0,0,0,0,0,1,1,3,,,,,,,,,,,,,,,,,,,,,200002,002,2023-03-16_15h36.44.972,DMS_BEST_eyetracking_DAN_base_12-36_looped_10minWORKING,2022.2.4,None,
3,PRED,12,0.8707694274470956,2,images/picture_3.png,images/picture_1.png,0,"[11.733433509789462, -11.733433509789466]",11.733433509789462,-11.733433509789464,images/picture_2.png,1,"[11.733433509789464, 11.733433509789462]",11.733433509789464,11.733433509789462,images/picture_3.png,2,"[-11.733433509789462, 11.733433509789464]",-11.733433509789462,11.733433509789464,0,1,1,0.8707694274470956,1.870769427447096,1.1292305725529044,3,1,1.6207694274470956,0,0,0,0,0,0,1,1,3,,,,,,,0.003450250020250678,81.6222169160028,81.6222169160028,82.62069708300987,83.25428820797242,83.48733129102038,83.48733129102038,83.48733129102038,84.62085474998457,84.62085474998457,84.62085474998457,84.62085474998457,3.99666000000434,85.62193533300888,200002,002,2023-03-16_15h36.44.972,DMS_BEST_eyetracking_DAN_base_12-36_looped_10minWORKING,2022.2.4,None,
4,PRED,12,0.7234263784163185,2,images/picture_3.png,images/picture_1.png,0,"[11.733433509789462, -11.733433509789466]",11.733433509789462,-11.733433509789464,images/picture_2.png,1,"[-11.733433509789462, 11.733433509789464]",-11.733433509789462,11.733433509789464,images/picture_3.png,2,"[11.733433509789464, 11.733433509789462]",11.733433509789464,11.733433509789462,0,1,1,0.7234263784163185,1.7234263784163186,1.2765736215836814,3,1,1.4734263784163186,0,0,0,0,0,0,2,2,4,,,,,,,,,,,,,,,,,,,,,200002,002,2023-03-16_15h36.44.972,DMS_BEST_eyetracking_DAN_base_12-36_looped_10minWORKING,2022.2.4,None,
4,PRED,12,0.7234263784163185,2,images/picture_3.png,images/picture_1.png,0,"[11.733433509789462, -11.733433509789466]",11.733433509789462,-11.733433509789464,images/picture_2.png,1,"[-11.733433509789462, 11.733433509789464]",-11.733433509789462,11.733433509789464,images/picture_3.png,2,"[11.733433509789464, 11.733433509789462]",11.733433509789464,11.733433509789462,0,1,1,0.7234263784163185,1.7234263784163186,1.2765736215836814,3,1,1.4734263784163186,0,0,0,0,0,0,2,2,4,,,,,,,0.0033825840218923986,85.62193533300888,85.62193533300888,86.62084608298028,87.10710108297644,87.34052416600753,87.34052416600753,87.34052416600753,88.62103120802203,88.62103120802203,88.62103120802203,88.62103120802203,3.9962715000147,89.62109904101817,200002,002,2023-03-16_15h36.44.972,DMS_BEST_eyetracking_DAN_base_12-36_looped_10minWORKING,2022.2.4,None,
1,PRED,12,0.6838377445573087,2,images/picture_3.png,images/picture_1.png,0,"[-11.733433509789466, -11.733433509789462]",-11.733433509789464,-11.733433509789462,images/picture_2.png,1,"[11.733433509789464, 11.733433509789462]",11.733433509789464,11.733433509789462,images/picture_3.png,2,"[11.733433509789462, -11.733433509789466]",11.733433509789462,-11.733433509789464,0,1,1,0.6838377445573087,1.6838377445573087,1.3161622554426913,3,1,1.4338377445573087,0,0,0,0,0,0,3,3,1,,,,,,,,,,,,,,,,,,,,,200002,002,2023-03-16_15h36.44.972,DMS_BEST_eyetracking_DAN_base_12-36_looped_10minWORKING,2022.2.4,None,
1,PRED,12,0.6838377445573087,2,images/picture_3.png,images/picture_1.png,0,"[-11.733433509789466, -11.733433509789462]",-11.733433509789464,-11.733433509789462,images/picture_2.png,1,"[11.733433509789464, 11.733433509789462]",11.733433509789464,11.733433509789462,images/picture_3.png,2,"[11.733433509789462, -11.733433509789466]",11.733433509789462,-11.733433509789464,0,1,1,0.6838377445573087,1.6838377445573087,1.3161622554426913,3,1,1.4338377445573087,0,0,0,0,0,0,3,3,1,,,,,,,0.0033069170312955976,89.62109904101817,89.62109904101817,90.6206550829811,91.05409912497271,91.30696424999041,91.30696424999041,91.30696424999041,92.62067504099105,92.62067504099105,92.62067504099105,92.62067504099105,3.9977205840405077,93.64040416601347,200002,002,2023-03-16_15h36.44.972,DMS_BEST_eyetracking_DAN_base_12-36_looped_10minWORKING,2022.2.4,None,
2,PRED,12,0.8287431357008159,2,images/picture_3.png,images/picture_1.png,0,"[11.733433509789462, -11.733433509789466]",11.733433509789462,-11.733433509789464,images/picture_2.png,1,"[11.733433509789464, 11.733433509789462]",11.733433509789464,11.733433509789462,images/picture_3.png,2,"[-11.733433509789466, -11.733433509789462]",-11.733433509789464,-11.733433509789462,0,1,1,0.8287431357008159,1.828743135700816,1.171256864299184,3,1,1.578743135700816,0,0,0,0,0,0,4,4,2,,,,,,,,,,,,,,,,,,,,,200002,002,2023-03-16_15h36.44.972,DMS_BEST_eyetracking_DAN_base_12-36_looped_10minWORKING,2022.2.4,None,
2,PRED,12,0.8287431357008159,2,images/picture_3.png,images/picture_1.png,0,"[11.733433509789462, -11.733433509789466]",11.733433509789462,-11.733433509789464,images/picture_2.png,1,"[11.733433509789464, 11.733433509789462]",11.733433509789464,11.733433509789462,images/picture_3.png,2,"[-11.733433509789466, -11.733433509789462]",-11.733433509789464,-11.733433509789462,0,1,1,0.8287431357008159,1.828743135700816,1.171256864299184,3,1,1.578743135700816,0,0,0,0,0,0,4,4,2,,,,,,,0.0032191250356845558,93.64040416601347,93.64040416601347,94.65438141598133,95.22104274999583,95.45412591600325,95.45412591600325,95.45412591600325,96.62104545801412,96.64030345797073,96.64030345797073,96.64030345797073,4.029583375027869,97.62104520801222,200002,002,2023-03-16_15h36.44.972,DMS_BEST_eyetracking_DAN_base_12-36_looped_10minWORKING,2022.2.4,None,
0,PRED,12,0.8839568499948462,2,images/picture_3.png,images/picture_1.png,0,"[-11.733433509789466, -11.733433509789462]",-11.733433509789464,-11.733433509789462,images/picture_2.png,1,"[11.733433509789464, 11.733433509789462]",11.733433509789464,11.733433509789462,images/picture_3.png,2,"[11.733433509789462, -11.733433509789466]",11.733433509789462,-11.733433509789464,0,1,1,0.8839568499948462,1.8839568499948465,1.1160431500051538,3,1,1.6339568499948462,0,0,0,0,0,0,5,5,0,,,,,,,,,,,,,,,,,,,,,200002,002,2023-03-16_15h36.44.972,DMS_BEST_eyetracking_DAN_base_12-36_looped_10minWORKING,2022.2.4,None,
0,PRED,12,0.8839568499948462,2,images/picture_3.png,images/picture_1.png,0,"[-11.733433509789466, -11.733433509789462]",-11.733433509789464,-11.733433509789462,images/picture_2.png,1,"[11.733433509789464, 11.733433509789462]",11.733433509789464,11.733433509789462,images/picture_3.png,2,"[11.733433509789462, -11.733433509789466]",11.733433509789462,-11.733433509789464,0,1,1,0.8839568499948462,1.8839568499948465,1.1160431500051538,3,1,1.6339568499948462,0,0,0,0,0,0,5,5,0,,,,,,,0.003292249981313944,97.65515570802381,97.65515570802381,98.65434404101688,99.28753462497843,99.54022133297985,99.54022133297985,99.54022133297985,100.6544045410119,100.6544045410119,100.6544045410119,100.6544045410119,3.9965984169975854,101.65473291598028,200002,002,2023-03-16_15h36.44.972,DMS_BEST_eyetracking_DAN_base_12-36_looped_10minWORKING,2022.2.4,None,
6,PRED,12,0.8578368494670486,2,images/picture_3.png,images/picture_1.png,0,"[11.733433509789464, 11.733433509789462]",11.733433509789464,11.733433509789462,images/picture_2.png,1,"[-11.733433509789462, 11.733433509789464]",-11.733433509789462,11.733433509789464,images/picture_3.png,2,"[-11.733433509789466, -11.733433509789462]",-11.733433509789464,-11.733433509789462,0,1,1,0.8578368494670486,1.8578368494670483,1.1421631505329517,3,1,1.6078368494670483,0,0,0,0,0,0,6,6,6,,,,,,,,,,,,,,,,,,,,,200002,002,2023-03-16_15h36.44.972,DMS_BEST_eyetracking_DAN_base_12-36_looped_10minWORKING,2022.2.4,None,
6,PRED,12,0.8578368494670486,2,images/picture_3.png,images/picture_1.png,0,"[11.733433509789464, 11.733433509789462]",11.733433509789464,11.733433509789462,images/picture_2.png,1,"[-11.733433509789462, 11.733433509789464]",-11.733433509789462,11.733433509789464,images/picture_3.png,2,"[-11.733433509789466, -11.733433509789462]",-11.733433509789464,-11.733433509789462,0,1,1,0.8578368494670486,1.8578368494670483,1.1421631505329517,3,1,1.6078368494670483,0,0,0,0,0,0,6,6,6,,,,,,,0.003265292034484446,101.65473291598028,101.65473291598028,102.6540226250072,103.27348737500142,103.50725195801351,103.50725195801351,103.50725195801351,104.65442475001328,104.65442475001328,104.65442475001328,104.65442475001328,3.9970217090449296,105.67378050001571,200002,002,2023-03-16_15h36.44.972,DMS_BEST_eyetracking_DAN_base_12-36_looped_10minWORKING,2022.2.4,None,
8,PRED,12,0.6597215853690153,2,images/picture_3.png,images/picture_1.png,0,"[-11.733433509789466, -11.733433509789462]",-11.733433509789464,-11.733433509789462,images/picture_2.png,1,"[-11.733433509789462, 11.733433509789464]",-11.733433509789462,11.733433509789464,images/picture_3.png,2,"[11.733433509789462, -11.733433509789466]",11.733433509789462,-11.733433509789464,0,1,1,0.6597215853690153,1.6597215853690153,1.3402784146309847,3,1,1.4097215853690153,0,0,0,0,0,0,7,7,8,,,,,,,,,,,,,,,,,,,,,200002,002,2023-03-16_15h36.44.972,DMS_BEST_eyetracking_DAN_base_12-36_looped_10minWORKING,2022.2.4,None,
8,PRED,12,0.6597215853690153,2,images/picture_3.png,images/picture_1.png,0,"[-11.733433509789466, -11.733433509789462]",-11.733433509789464,-11.733433509789462,images/picture_2.png,1,"[-11.733433509789462, 11.733433509789464]",-11.733433509789462,11.733433509789464,images/picture_3.png,2,"[11.733433509789462, -11.733433509789466]",11.733433509789462,-11.733433509789464,0,1,1,0.6597215853690153,1.6597215853690153,1.3402784146309847,3,1,1.4097215853690153,0,0,0,0,0,0,7,7,8,,,,,,,0.0034189580474048853,105.67378050001571,105.67378050001571,106.68764479097445,107.08793520799372,107.30707808298757,107.30707808298757,107.30707808298757,108.65436991601018,108.65436991601018,108.65436991601018,108.65436991601018,4.029616750020068,109.65437108301558,200002,002,2023-03-16_15h36.44.972,DMS_BEST_eyetracking_DAN_base_12-36_looped_10minWORKING,2022.2.4,None,
5,PRED,12,1.18539832615903,2,images/picture_3.png,images/picture_1.png,0,"[11.733433509789464, 11.733433509789462]",11.733433509789464,11.733433509789462,images/picture_2.png,1,"[11.733433509789462, -11.733433509789466]",11.733433509789462,-11.733433509789464,images/picture_3.png,2,"[-11.733433509789466, -11.733433509789462]",-11.733433509789464,-11.733433509789462,0,1,1,1.18539832615903,2.1853983261590297,0.8146016738409699,3,1,1.9353983261590295,0,0,0,0,0,0,8,8,5,,,,,,,,,,,,,,,,,,,,,200002,002,2023-03-16_15h36.44.972,DMS_BEST_eyetracking_DAN_base_12-36_looped_10minWORKING,2022.2.4,None,
5,PRED,12,1.18539832615903,2,images/picture_3.png,images/picture_1.png,0,"[11.733433509789464, 11.733433509789462]",11.733433509789464,11.733433509789462,images/picture_2.png,1,"[11.733433509789462, -11.733433509789466]",11.733433509789462,-11.733433509789464,images/picture_3.png,2,"[-11.733433509789466, -11.733433509789462]",-11.733433509789464,-11.733433509789462,0,1,1,1.18539832615903,2.1853983261590297,0.8146016738409699,3,1,1.9353983261590295,0,0,0,0,0,0,8,8,5,,,,,,,0.0035637920373119414,109.68868012499297,109.68868012499297,110.68785616598325,111.62135279097129,111.8731951660011,111.8731951660011,111.8731951660011,112.68740225001238,112.68740225001238,112.68740225001238,112.68740225001238,3.9963855420355685,113.71783158299513,200002,002,2023-03-16_15h36.44.972,DMS_BEST_eyetracking_DAN_base_12-36_looped_10minWORKING,2022.2.4,None,
,,,,,,,,,,,,,,,,,,,,,,,,,,,,,,,0,0,0,0,,,,,,,,,113.71783158299513,125.74363699997775,,,,,,,,,,,,,,,200002,002,2023-03-16_15h36.44.972,DMS_BEST_eyetracking_DAN_base_12-36_looped_10minWORKING,2022.2.4,None,
14,UNPRED,12,0.7727842805370254,0,images/picture_1.png,images/picture_1.png,0,"[11.733433509789464, 11.733433509789462]",11.733433509789464,11.733433509789462,images/picture_2.png,1,"[11.733433509789462, -11.733433509789466]",11.733433509789462,-11.733433509789464,images/picture_3.png,2,"[-11.733433509789462, 11.733433509789464]",-11.733433509789462,11.733433509789464,0,1,1,0.7727842805370254,1.7727842805370253,1.2272157194629747,3,1,1.5227842805370253,0,1,0,1,0,0,0,0,5,,,,,,,,,,,,,,,,,,,,,200002,002,2023-03-16_15h36.44.972,DMS_BEST_eyetracking_DAN_base_12-36_looped_10minWORKING,2022.2.4,None,
14,UNPRED,12,0.7727842805370254,0,images/picture_1.png,images/picture_1.png,0,"[11.733433509789464, 11.733433509789462]",11.733433509789464,11.733433509789462,images/picture_2.png,1,"[11.733433509789462, -11.733433509789466]",11.733433509789462,-11.733433509789464,images/picture_3.png,2,"[-11.733433509789462, 11.733433509789464]",-11.733433509789462,11.733433509789464,0,1,1,0.7727842805370254,1.7727842805370253,1.2272157194629747,3,1,1.5227842805370253,0,1,0,1,0,0,0,0,5,,,,,,,0.004386375017929822,125.74363699997775,125.74363699997775,126.75462012499338,127.27372695796657,127.50717016600538,127.50717016600538,127.50717016600538,128.74047120800242,128.74047120800242,128.74047120800242,128.74047120800242,4.008729416003916,129.77403791598044,200002,002,2023-03-16_15h36.44.972,DMS_BEST_eyetracking_DAN_base_12-36_looped_10minWORKING,2022.2.4,None,
13,UNPRED,12,1.0124291443875886,2,images/picture_3.png,images/picture_1.png,0,"[11.733433509789464, 11.733433509789462]",11.733433509789464,11.733433509789462,images/picture_2.png,1,"[11.733433509789462, -11.733433509789466]",11.733433509789462,-11.733433509789464,images/picture_3.png,2,"[-11.733433509789462, 11.733433509789464]",-11.733433509789462,11.733433509789464,0,1,1,1.0124291443875886,2.012429144387589,0.9875708556124114,3,1,1.7624291443875886,0,1,0,1,0,0,1,1,4,,,,,,,,,,,,,,,,,,,,,200002,002,2023-03-16_15h36.44.972,DMS_BEST_eyetracking_DAN_base_12-36_looped_10minWORKING,2022.2.4,None,
13,UNPRED,12,1.0124291443875886,2,images/picture_3.png,images/picture_1.png,0,"[11.733433509789464, 11.733433509789462]",11.733433509789464,11.733433509789462,images/picture_2.png,1,"[11.733433509789462, -11.733433509789466]",11.733433509789462,-11.733433509789464,images/picture_3.png,2,"[-11.733433509789462, 11.733433509789464]",-11.733433509789462,11.733433509789464,0,1,1,1.0124291443875886,2.012429144387589,0.9875708556124114,3,1,1.7624291443875886,0,1,0,1,0,0,1,1,4,,,,,,,0.005504541972186416,129.77403791598044,129.77403791598044,130.78786383301485,131.54107575002126,131.75434033299098,131.75434033299098,131.75434033299098,132.75435299996752,132.75435299996752,132.75435299996752,132.75435299996752,4.029489542008378,133.754144290986,200002,002,2023-03-16_15h36.44.972,DMS_BEST_eyetracking_DAN_base_12-36_looped_10minWORKING,2022.2.4,None,
12,UNPRED,12,1.0432817450026983,2,images/picture_3.png,images/picture_1.png,0,"[11.733433509789462, -11.733433509789466]",11.733433509789462,-11.733433509789464,images/picture_2.png,1,"[-11.733433509789462, 11.733433509789464]",-11.733433509789462,11.733433509789464,images/picture_3.png,2,"[-11.733433509789466, -11.733433509789462]",-11.733433509789464,-11.733433509789462,0,1,1,1.0432817450026983,2.0432817450026985,0.9567182549973016,3,1,1.7932817450026983,0,1,0,1,0,0,2,2,3,,,,,,,,,,,,,,,,,,,,,200002,002,2023-03-16_15h36.44.972,DMS_BEST_eyetracking_DAN_base_12-36_looped_10minWORKING,2022.2.4,None,
12,UNPRED,12,1.0432817450026983,2,images/picture_3.png,images/picture_1.png,0,"[11.733433509789462, -11.733433509789466]",11.733433509789462,-11.733433509789464,images/picture_2.png,1,"[-11.733433509789462, 11.733433509789464]",-11.733433509789462,11.733433509789464,images/picture_3.png,2,"[-11.733433509789466, -11.733433509789462]",-11.733433509789464,-11.733433509789462,0,1,1,1.0432817450026983,2.0432817450026985,0.9567182549973016,3,1,1.7932817450026983,0,1,0,1,0,0,2,2,3,,,,,,,0.0014515829971060157,133.7871176250046,133.7871176250046,134.7878330000094,135.5880372080137,135.8209166249726,135.8209166249726,135.8209166249726,136.78782666596817,136.78782666596817,136.78782666596817,136.78782666596817,3.9972029579803348,137.8072597910068,200002,002,2023-03-16_15h36.44.972,DMS_BEST_eyetracking_DAN_base_12-36_looped_10minWORKING,2022.2.4,None,
16,UNPRED,12,0.9191185211657891,0,images/picture_1.png,images/picture_1.png,0,"[-11.733433509789466, -11.733433509789462]",-11.733433509789464,-11.733433509789462,images/picture_2.png,1,"[-11.733433509789462, 11.733433509789464]",-11.733433509789462,11.733433509789464,images/picture_3.png,2,"[11.733433509789462, -11.733433509789466]",11.733433509789462,-11.733433509789464,0,1,1,0.9191185211657891,1.9191185211657888,1.0808814788342112,3,1,1.6691185211657888,0,1,0,1,0,0,3,3,7,,,,,,,,,,,,,,,,,,,,,200002,002,2023-03-16_15h36.44.972,DMS_BEST_eyetracking_DAN_base_12-36_looped_10minWORKING,2022.2.4,None,
16,UNPRED,12,0.9191185211657891,0,images/picture_1.png,images/picture_1.png,0,"[-11.733433509789466, -11.733433509789462]",-11.733433509789464,-11.733433509789462,images/picture_2.png,1,"[-11.733433509789462, 11.733433509789464]",-11.733433509789462,11.733433509789464,images/picture_3.png,2,"[11.733433509789462, -11.733433509789466]",11.733433509789462,-11.733433509789464,0,1,1,0.9191185211657891,1.9191185211657888,1.0808814788342112,3,1,1.6691185211657888,0,1,0,1,0,0,3,3,7,,,,,,,0.004662249993998557,137.8072597910068,137.8072597910068,138.8212659159908,139.4880259159836,139.7072213329957,139.7072213329957,139.7072213329957,140.7878412079881,140.7878412079881,140.7878412079881,140.7878412079881,4.030072499997914,141.7880525829969,200002,002,2023-03-16_15h36.44.972,DMS_BEST_eyetracking_DAN_base_12-36_looped_10minWORKING,2022.2.4,None,
15,UNPRED,12,1.0913227635445435,1,images/picture_2.png,images/picture_1.png,0,"[11.733433509789464, 11.733433509789462]",11.733433509789464,11.733433509789462,images/picture_2.png,1,"[11.733433509789462, -11.733433509789466]",11.733433509789462,-11.733433509789464,images/picture_3.png,2,"[-11.733433509789462, 11.733433509789464]",-11.733433509789462,11.733433509789464,0,1,1,1.0913227635445435,2.0913227635445435,0.9086772364554564,3,1,1.8413227635445435,0,1,0,1,0,0,4,4,6,,,,,,,,,,,,,,,,,,,,,200002,002,2023-03-16_15h36.44.972,DMS_BEST_eyetracking_DAN_base_12-36_looped_10minWORKING,2022.2.4,None,
15,UNPRED,12,1.0913227635445435,1,images/picture_2.png,images/picture_1.png,0,"[11.733433509789464, 11.733433509789462]",11.733433509789464,11.733433509789462,images/picture_2.png,1,"[11.733433509789462, -11.733433509789466]",11.733433509789462,-11.733433509789464,images/picture_3.png,2,"[-11.733433509789462, 11.733433509789464]",-11.733433509789462,11.733433509789464,0,1,1,1.0913227635445435,2.0913227635445435,0.9086772364554564,3,1,1.8413227635445435,0,1,0,1,0,0,4,4,6,,,,,,,0.0074903329950757325,141.840733250021,141.840733250021,142.85465879098047,143.68754820799222,143.9065494160168,143.9065494160168,143.9065494160168,144.8212917500059,144.8212917500059,144.8212917500059,144.8212917500059,4.029463874991052,145.821076290973,200002,002,2023-03-16_15h36.44.972,DMS_BEST_eyetracking_DAN_base_12-36_looped_10minWORKING,2022.2.4,None,
10,UNPRED,12,0.7257392632361346,0,images/picture_1.png,images/picture_1.png,0,"[-11.733433509789466, -11.733433509789462]",-11.733433509789464,-11.733433509789462,images/picture_2.png,1,"[-11.733433509789462, 11.733433509789464]",-11.733433509789462,11.733433509789464,images/picture_3.png,2,"[11.733433509789462, -11.733433509789466]",11.733433509789462,-11.733433509789464,0,1,1,0.7257392632361346,1.7257392632361346,1.2742607367638654,3,1,1.4757392632361346,0,1,0,1,0,0,5,5,1,,,,,,,,,,,,,,,,,,,,,200002,002,2023-03-16_15h36.44.972,DMS_BEST_eyetracking_DAN_base_12-36_looped_10minWORKING,2022.2.4,None,
10,UNPRED,12,0.7257392632361346,0,images/picture_1.png,images/picture_1.png,0,"[-11.733433509789466, -11.733433509789462]",-11.733433509789464,-11.733433509789462,images/picture_2.png,1,"[-11.733433509789462, 11.733433509789464]",-11.733433509789462,11.733433509789464,images/picture_3.png,2,"[11.733433509789462, -11.733433509789466]",11.733433509789462,-11.733433509789464,0,1,1,0.7257392632361346,1.7257392632361346,1.2742607367638654,3,1,1.4757392632361346,0,1,0,1,0,0,5,5,1,,,,,,,0.004648208967410028,145.8745047909906,145.8745047909906,146.88798154098913,147.35462774999905,147.57380120799644,147.57380120799644,147.57380120799644,148.85484450001968,148.85484450001968,148.85484450001968,148.85484450001968,4.03053920896491,149.85455874999752,200002,002,2023-03-16_15h36.44.972,DMS_BEST_eyetracking_DAN_base_12-36_looped_10minWORKING,2022.2.4,None,
9,UNPRED,12,0.8603815255109672,2,images/picture_3.png,images/picture_1.png,0,"[-11.733433509789466, -11.733433509789462]",-11.733433509789464,-11.733433509789462,images/picture_2.png,1,"[11.733433509789462, -11.733433509789466]",11.733433509789462,-11.733433509789464,images/picture_3.png,2,"[11.733433509789464, 11.733433509789462]",11.733433509789464,11.733433509789462,0,1,1,0.8603815255109672,1.8603815255109672,1.1396184744890328,3,1,1.6103815255109672,0,1,0,1,0,0,6,6,0,,,,,,,,,,,,,,,,,,,,,200002,002,2023-03-16_15h36.44.972,DMS_BEST_eyetracking_DAN_base_12-36_looped_10minWORKING,2022.2.4,None,
9,UNPRED,12,0.8603815255109672,2,images/picture_3.png,images/picture_1.png,0,"[-11.733433509789466, -11.733433509789462]",-11.733433509789464,-11.733433509789462,images/picture_2.png,1,"[11.733433509789462, -11.733433509789466]",11.733433509789462,-11.733433509789464,images/picture_3.png,2,"[11.733433509789464, 11.733433509789462]",11.733433509789464,11.733433509789462,0,1,1,0.8603815255109672,1.8603815255109672,1.1396184744890328,3,1,1.6103815255109672,0,1,0,1,0,0,6,6,0,,,,,,,0.005288709013257176,149.90737758297473,149.90737758297473,150.92126345797442,151.5212742909789,151.74045945797116,151.74045945797116,151.74045945797116,152.8880760410102,152.8880760410102,152.8880760410102,152.8880760410102,4.030209416989237,153.8874963329872,200002,002,2023-03-16_15h36.44.972,DMS_BEST_eyetracking_DAN_base_12-36_looped_10minWORKING,2022.2.4,None,
11,UNPRED,12,1.1343237817268983,0,images/picture_1.png,images/picture_1.png,0,"[11.733433509789464, 11.733433509789462]",11.733433509789464,11.733433509789462,images/picture_2.png,1,"[11.733433509789462, -11.733433509789466]",11.733433509789462,-11.733433509789464,images/picture_3.png,2,"[-11.733433509789462, 11.733433509789464]",-11.733433509789462,11.733433509789464,0,1,1,1.1343237817268983,2.1343237817268985,0.8656762182731015,3,1,1.8843237817268983,0,1,0,1,0,0,7,7,2,,,,,,,,,,,,,,,,,,,,,200002,002,2023-03-16_15h36.44.972,DMS_BEST_eyetracking_DAN_base_12-36_looped_10minWORKING,2022.2.4,None,
11,UNPRED,12,1.1343237817268983,0,images/picture_1.png,images/picture_1.png,0,"[11.733433509789464, 11.733433509789462]",11.733433509789464,11.733433509789462,images/picture_2.png,1,"[11.733433509789462, -11.733433509789466]",11.733433509789462,-11.733433509789464,images/picture_3.png,2,"[-11.733433509789462, 11.733433509789464]",-11.733433509789462,11.733433509789464,0,1,1,1.1343237817268983,2.1343237817268985,0.8656762182731015,3,1,1.8843237817268983,0,1,0,1,0,0,7,7,2,,,,,,,0.00196658301865682,153.92069804097991,153.92069804097991,154.92126854101662,155.80725283297943,156.05439725000178,156.05439725000178,156.05439725000178,156.92126425000606,156.92126425000606,156.92126425000606,156.92126425000606,3.9981614999705926,157.9412701660185,200002,002,2023-03-16_15h36.44.972,DMS_BEST_eyetracking_DAN_base_12-36_looped_10minWORKING,2022.2.4,None,
17,UNPRED,12,0.9942371727568132,1,images/picture_2.png,images/picture_1.png,0,"[11.733433509789462, -11.733433509789466]",11.733433509789462,-11.733433509789464,images/picture_2.png,1,"[11.733433509789464, 11.733433509789462]",11.733433509789464,11.733433509789462,images/picture_3.png,2,"[-11.733433509789466, -11.733433509789462]",-11.733433509789464,-11.733433509789462,0,1,1,0.9942371727568132,1.9942371727568131,1.0057628272431869,3,1,1.7442371727568131,0,1,0,1,0,0,8,8,8,,,,,,,,,,,,,,,,,,,,,200002,002,2023-03-16_15h36.44.972,DMS_BEST_eyetracking_DAN_base_12-36_looped_10minWORKING,2022.2.4,None,
17,UNPRED,12,0.9942371727568132,1,images/picture_2.png,images/picture_1.png,0,"[11.733433509789462, -11.733433509789466]",11.733433509789462,-11.733433509789464,images/picture_2.png,1,"[11.733433509789464, 11.733433509789462]",11.733433509789464,11.733433509789462,images/picture_3.png,2,"[-11.733433509789466, -11.733433509789462]",-11.733433509789464,-11.733433509789462,0,1,1,0.9942371727568132,1.9942371727568131,1.0057628272431869,3,1,1.7442371727568131,0,1,0,1,0,0,8,8,8,,,,,,,0.006516374996863306,157.9412701660185,157.9412701660185,158.95474979100982,159.6880459159729,159.92078037501778,159.92078037501778,159.92078037501778,160.92145579098724,160.9408381250105,160.9408381250105,160.9408381250105,4.02889866597252,161.9213640409871,200002,002,2023-03-16_15h36.44.972,DMS_BEST_eyetracking_DAN_base_12-36_looped_10minWORKING,2022.2.4,None,
,,,,,,,,,,,,,,,,,,,,,,,,,,,,,,,1,0,1,0,,,,,,,,,161.99907525000162,174.0088109159842,,,,,,,,,,,,,,,200002,002,2023-03-16_15h36.44.972,DMS_BEST_eyetracking_DAN_base_12-36_looped_10minWORKING,2022.2.4,None,
20,PRED,12,1.000019056045208,1,images/picture_2.png,images/picture_1.png,0,"[11.733433509789462, -11.733433509789466]",11.733433509789462,-11.733433509789464,images/picture_2.png,1,"[-11.733433509789462, 11.733433509789464]",-11.733433509789462,11.733433509789464,images/picture_3.png,2,"[-11.733433509789466, -11.733433509789462]",-11.733433509789464,-11.733433509789462,0,1,1,1.000019056045208,2.000019056045208,0.999980943954792,3,1,1.750019056045208,0,2,0,2,0,0,0,0,2,,,,,,,,,,,,,,,,,,,,,200002,002,2023-03-16_15h36.44.972,DMS_BEST_eyetracking_DAN_base_12-36_looped_10minWORKING,2022.2.4,None,
20,PRED,12,1.000019056045208,1,images/picture_2.png,images/picture_1.png,0,"[11.733433509789462, -11.733433509789466]",11.733433509789462,-11.733433509789464,images/picture_2.png,1,"[-11.733433509789462, 11.733433509789464]",-11.733433509789462,11.733433509789464,images/picture_3.png,2,"[-11.733433509789466, -11.733433509789462]",-11.733433509789464,-11.733433509789462,0,1,1,1.000019056045208,2.000019056045208,0.999980943954792,3,1,1.750019056045208,0,2,0,2,0,0,0,0,2,,,,,,,0.002243541006464511,174.0088109159842,174.0088109159842,175.02114933298435,175.7740184579743,176.00746895797784,176.00746895797784,176.00746895797784,177.007596749987,177.02136195800267,177.02136195800267,177.02136195800267,4.007619874959346,178.04078387498157,200002,002,2023-03-16_15h36.44.972,DMS_BEST_eyetracking_DAN_base_12-36_looped_10minWORKING,2022.2.4,None,
24,PRED,12,1.1119021409613166,1,images/picture_2.png,images/picture_1.png,0,"[11.733433509789464, 11.733433509789462]",11.733433509789464,11.733433509789462,images/picture_2.png,1,"[-11.733433509789466, -11.733433509789462]",-11.733433509789464,-11.733433509789462,images/picture_3.png,2,"[11.733433509789462, -11.733433509789466]",11.733433509789462,-11.733433509789464,0,1,1,1.1119021409613166,2.111902140961317,0.8880978590386834,3,1,1.8619021409613168,0,2,0,2,0,0,1,1,6,,,,,,,,,,,,,,,,,,,,,200002,002,2023-03-16_15h36.44.972,DMS_BEST_eyetracking_DAN_base_12-36_looped_10minWORKING,2022.2.4,None,
24,PRED,12,1.1119021409613166,1,images/picture_2.png,images/picture_1.png,0,"[11.733433509789464, 11.733433509789462]",11.733433509789464,11.733433509789462,images/picture_2.png,1,"[-11.733433509789466, -11.733433509789462]",-11.733433509789464,-11.733433509789462,images/picture_3.png,2,"[11.733433509789462, -11.733433509789466]",11.733433509789462,-11.733433509789464,0,1,1,1.1119021409613166,2.111902140961317,0.8880978590386834,3,1,1.8619021409613168,0,2,0,2,0,0,1,1,6,,,,,,,0.0049030419904738665,178.04078387498157,178.04078387498157,179.05483258300228,179.90739025000948,180.14095754100708,180.14095754100708,180.14095754100708,181.0210024159751,181.04099424998276,181.04099424998276,181.04099424998276,4.026970832957886,182.02146920800442,200002,002,2023-03-16_15h36.44.972,DMS_BEST_eyetracking_DAN_base_12-36_looped_10minWORKING,2022.2.4,None,
21,PRED,12,0.9149927027364928,1,images/picture_2.png,images/picture_1.png,0,"[11.733433509789462, -11.733433509789466]",11.733433509789462,-11.733433509789464,images/picture_2.png,1,"[-11.733433509789466, -11.733433509789462]",-11.733433509789464,-11.733433509789462,images/picture_3.png,2,"[11.733433509789464, 11.733433509789462]",11.733433509789464,11.733433509789462,0,1,1,0.9149927027364928,1.9149927027364928,1.0850072972635072,3,1,1.6649927027364928,0,2,0,2,0,0,2,2,3,,,,,,,,,,,,,,,,,,,,,200002,002,2023-03-16_15h36.44.972,DMS_BEST_eyetracking_DAN_base_12-36_looped_10minWORKING,2022.2.4,None,
21,PRED,12,0.9149927027364928,1,images/picture_2.png,images/picture_1.png,0,"[11.733433509789462, -11.733433509789466]",11.733433509789462,-11.733433509789464,images/picture_2.png,1,"[-11.733433509789466, -11.733433509789462]",-11.733433509789464,-11.733433509789462,images/picture_3.png,2,"[11.733433509789464, 11.733433509789462]",11.733433509789464,11.733433509789462,0,1,1,0.9149927027364928,1.9149927027364928,1.0850072972635072,3,1,1.6649927027364928,0,2,0,2,0,0,2,2,3,,,,,,,0.004988250031601638,182.07399054098641,182.07399054098641,183.08824483299395,183.74070312501863,183.9735522500123,183.9735522500123,183.9735522500123,185.05478079098975,185.0744291250012,185.0744291250012,185.0744291250012,4.030011416005436,186.05489199998556,200002,002,2023-03-16_15h36.44.972,DMS_BEST_eyetracking_DAN_base_12-36_looped_10minWORKING,2022.2.4,None,
26,PRED,12,0.903564869839938,1,images/picture_2.png,images/picture_1.png,0,"[-11.733433509789462, 11.733433509789464]",-11.733433509789462,11.733433509789464,images/picture_2.png,1,"[11.733433509789464, 11.733433509789462]",11.733433509789464,11.733433509789462,images/picture_3.png,2,"[-11.733433509789466, -11.733433509789462]",-11.733433509789464,-11.733433509789462,0,1,1,0.903564869839938,1.903564869839938,1.096435130160062,3,1,1.653564869839938,0,2,0,2,0,0,3,3,8,,,,,,,,,,,,,,,,,,,,,200002,002,2023-03-16_15h36.44.972,DMS_BEST_eyetracking_DAN_base_12-36_looped_10minWORKING,2022.2.4,None,
26,PRED,12,0.903564869839938,1,images/picture_2.png,images/picture_1.png,0,"[-11.733433509789462, 11.733433509789464]",-11.733433509789462,11.733433509789464,images/picture_2.png,1,"[11.733433509789464, 11.733433509789462]",11.733433509789464,11.733433509789462,images/picture_3.png,2,"[-11.733433509789466, -11.733433509789462]",-11.733433509789464,-11.733433509789462,0,1,1,0.903564869839938,1.903564869839938,1.096435130160062,3,1,1.653564869839938,0,2,0,2,0,0,3,3,8,,,,,,,0.004890249983873218,186.10758791601984,186.10758791601984,187.1215095000225,187.77424850000534,187.98804212501273,187.98804212501273,187.98804212501273,189.0882183329668,189.0882183329668,189.0882183329668,189.0882183329668,4.029738416022155,190.0880528750131,200002,002,2023-03-16_15h36.44.972,DMS_BEST_eyetracking_DAN_base_12-36_looped_10minWORKING,2022.2.4,None,
22,PRED,12,0.6160765836440086,1,images/picture_2.png,images/picture_1.png,0,"[11.733433509789464, 11.733433509789462]",11.733433509789464,11.733433509789462,images/picture_2.png,1,"[-11.733433509789466, -11.733433509789462]",-11.733433509789464,-11.733433509789462,images/picture_3.png,2,"[11.733433509789462, -11.733433509789466]",11.733433509789462,-11.733433509789464,0,1,1,0.6160765836440086,1.6160765836440087,1.3839234163559913,3,1,1.3660765836440087,0,2,0,2,0,0,4,4,4,,,,,,,,,,,,,,,,,,,,,200002,002,2023-03-16_15h36.44.972,DMS_BEST_eyetracking_DAN_base_12-36_looped_10minWORKING,2022.2.4,None,
22,PRED,12,0.6160765836440086,1,images/picture_2.png,images/picture_1.png,0,"[11.733433509789464, 11.733433509789462]",11.733433509789464,11.733433509789462,images/picture_2.png,1,"[-11.733433509789466, -11.733433509789462]",-11.733433509789464,-11.733433509789462,images/picture_3.png,2,"[11.733433509789462, -11.733433509789466]",11.733433509789462,-11.733433509789464,0,1,1,0.6160765836440086,1.6160765836440087,1.3839234163559913,3,1,1.3660765836440087,0,2,0,2,0,0,4,4,4,,,,,,,0.004631416988559067,190.12233262497466,190.12233262497466,191.1215501250117,191.48827870801324,191.74106283299625,191.74106283299625,191.74106283299625,193.12157787499018,193.12157787499018,193.12157787499018,193.12157787499018,3.9967220830149017,194.12114541599294,200002,002,2023-03-16_15h36.44.972,DMS_BEST_eyetracking_DAN_base_12-36_looped_10minWORKING,2022.2.4,None,
19,PRED,12,0.5375756445116138,1,images/picture_2.png,images/picture_1.png,0,"[-11.733433509789462, 11.733433509789464]",-11.733433509789462,11.733433509789464,images/picture_2.png,1,"[-11.733433509789466, -11.733433509789462]",-11.733433509789464,-11.733433509789462,images/picture_3.png,2,"[11.733433509789462, -11.733433509789466]",11.733433509789462,-11.733433509789464,0,1,1,0.5375756445116138,1.5375756445116138,1.4624243554883862,3,1,1.2875756445116138,0,2,0,2,0,0,5,5,1,,,,,,,,,,,,,,,,,,,,,200002,002,2023-03-16_15h36.44.972,DMS_BEST_eyetracking_DAN_base_12-36_looped_10minWORKING,2022.2.4,None,
19,PRED,12,0.5375756445116138,1,images/picture_2.png,images/picture_1.png,0,"[-11.733433509789462, 11.733433509789464]",-11.733433509789462,11.733433509789464,images/picture_2.png,1,"[-11.733433509789466, -11.733433509789462]",-11.733433509789464,-11.733433509789462,images/picture_3.png,2,"[11.733433509789462, -11.733433509789466]",11.733433509789462,-11.733433509789464,0,1,1,0.5375756445116138,1.5375756445116138,1.4624243554883862,3,1,1.2875756445116138,0,2,0,2,0,0,5,5,1,,,,,,,0.0018796250224113464,194.12114541599294,194.12114541599294,195.12130887497915,195.4215567909996,195.65438895800617,195.65438895800617,195.65438895800617,197.12171041598776,197.12171041598776,197.12171041598776,197.12171041598776,3.999546916980762,198.1409843749716,200002,002,2023-03-16_15h36.44.972,DMS_BEST_eyetracking_DAN_base_12-36_looped_10minWORKING,2022.2.4,None,
25,PRED,12,1.169128522965041,1,images/picture_2.png,images/picture_1.png,0,"[11.733433509789464, 11.733433509789462]",11.733433509789464,11.733433509789462,images/picture_2.png,1,"[-11.733433509789466, -11.733433509789462]",-11.733433509789464,-11.733433509789462,images/picture_3.png,2,"[-11.733433509789462, 11.733433509789464]",-11.733433509789462,11.733433509789464,0,1,1,1.169128522965041,2.1691285229650408,0.830871477034959,3,1,1.9191285229650408,0,2,0,2,0,0,6,6,7,,,,,,,,,,,,,,,,,,,,,200002,002,2023-03-16_15h36.44.972,DMS_BEST_eyetracking_DAN_base_12-36_looped_10minWORKING,2022.2.4,None,
25,PRED,12,1.169128522965041,1,images/picture_2.png,images/picture_1.png,0,"[11.733433509789464, 11.733433509789462]",11.733433509789464,11.733433509789462,images/picture_2.png,1,"[-11.733433509789466, -11.733433509789462]",-11.733433509789464,-11.733433509789462,images/picture_3.png,2,"[-11.733433509789462, 11.733433509789464]",-11.733433509789462,11.733433509789464,0,1,1,1.169128522965041,2.1691285229650408,0.830871477034959,3,1,1.9191285229650408,0,2,0,2,0,0,6,6,7,,,,,,,0.005088083038572222,198.1409843749716,198.1409843749716,199.1548255829839,200.074131958012,200.28771166602382,200.28771166602382,200.28771166602382,201.12131199997384,201.12131199997384,201.12131199997384,201.12131199997384,4.028989207989071,202.12131108297035,200002,002,2023-03-16_15h36.44.972,DMS_BEST_eyetracking_DAN_base_12-36_looped_10minWORKING,2022.2.4,None,
23,PRED,12,1.074087036394833,1,images/picture_2.png,images/picture_1.png,0,"[-11.733433509789462, 11.733433509789464]",-11.733433509789462,11.733433509789464,images/picture_2.png,1,"[-11.733433509789466, -11.733433509789462]",-11.733433509789464,-11.733433509789462,images/picture_3.png,2,"[11.733433509789462, -11.733433509789466]",11.733433509789462,-11.733433509789464,0,1,1,1.074087036394833,2.074087036394833,0.9259129636051672,3,1,1.824087036394833,0,2,0,2,0,0,7,7,5,,,,,,,,,,,,,,,,,,,,,200002,002,2023-03-16_15h36.44.972,DMS_BEST_eyetracking_DAN_base_12-36_looped_10minWORKING,2022.2.4,None,
23,PRED,12,1.074087036394833,1,images/picture_2.png,images/picture_1.png,0,"[-11.733433509789462, 11.733433509789464]",-11.733433509789462,11.733433509789464,images/picture_2.png,1,"[-11.733433509789466, -11.733433509789462]",-11.733433509789464,-11.733433509789462,images/picture_3.png,2,"[11.733433509789462, -11.733433509789466]",11.733433509789462,-11.733433509789464,0,1,1,1.074087036394833,2.074087036394833,0.9259129636051672,3,1,1.824087036394833,0,2,0,2,0,0,7,7,5,,,,,,,0.004915916011668742,202.17391695798142,202.17391695798142,203.18804379098583,204.00751354097156,204.22106516599888,204.22106516599888,204.22106516599888,205.15441141597694,205.15441141597694,205.15441141597694,205.15441141597694,4.030641916033346,206.15460779098794,200002,002,2023-03-16_15h36.44.972,DMS_BEST_eyetracking_DAN_base_12-36_looped_10minWORKING,2022.2.4,None,
18,PRED,12,0.9931609030382764,1,images/picture_2.png,images/picture_1.png,0,"[-11.733433509789462, 11.733433509789464]",-11.733433509789462,11.733433509789464,images/picture_2.png,1,"[11.733433509789462, -11.733433509789466]",11.733433509789462,-11.733433509789464,images/picture_3.png,2,"[-11.733433509789466, -11.733433509789462]",-11.733433509789464,-11.733433509789462,0,1,1,0.9931609030382764,1.9931609030382769,1.0068390969617234,3,1,1.7431609030382766,0,2,0,2,0,0,8,8,0,,,,,,,,,,,,,,,,,,,,,200002,002,2023-03-16_15h36.44.972,DMS_BEST_eyetracking_DAN_base_12-36_looped_10minWORKING,2022.2.4,None,
18,PRED,12,0.9931609030382764,1,images/picture_2.png,images/picture_1.png,0,"[-11.733433509789462, 11.733433509789464]",-11.733433509789462,11.733433509789464,images/picture_2.png,1,"[11.733433509789462, -11.733433509789466]",11.733433509789462,-11.733433509789464,images/picture_3.png,2,"[-11.733433509789466, -11.733433509789462]",-11.733433509789464,-11.733433509789462,0,1,1,0.9931609030382764,1.9931609030382769,1.0068390969617234,3,1,1.7431609030382766,0,2,0,2,0,0,8,8,0,,,,,,,0.005046959035098553,206.2074902500026,206.2074902500026,207.22139395796694,207.95475562498905,208.17445683298865,208.17445683298865,208.17445683298865,209.18802516598953,209.18802516598953,209.18802516598953,209.18802516598953,4.029913042031694,210.18813908298034,200002,002,2023-03-16_15h36.44.972,DMS_BEST_eyetracking_DAN_base_12-36_looped_10minWORKING,2022.2.4,None,
,,,,,,,,,,,,,,,,,,,,,,,,,,,,,,,2,0,2,0,,,,,,,,,210.27451258298242,222.3101911660051,,,,,,,,,,,,,,,200002,002,2023-03-16_15h36.44.972,DMS_BEST_eyetracking_DAN_base_12-36_looped_10minWORKING,2022.2.4,None,
31,UNPRED,12,1.0876840987557792,1,images/picture_2.png,images/picture_1.png,0,"[-11.733433509789466, -11.733433509789462]",-11.733433509789464,-11.733433509789462,images/picture_2.png,1,"[11.733433509789464, 11.733433509789462]",11.733433509789464,11.733433509789462,images/picture_3.png,2,"[11.733433509789462, -11.733433509789466]",11.733433509789462,-11.733433509789464,0,1,1,1.0876840987557792,2.087684098755779,0.9123159012442208,3,1,1.837684098755779,0,3,0,3,0,0,0,0,4,,,,,,,,,,,,,,,,,,,,,200002,002,2023-03-16_15h36.44.972,DMS_BEST_eyetracking_DAN_base_12-36_looped_10minWORKING,2022.2.4,None,
31,UNPRED,12,1.0876840987557792,1,images/picture_2.png,images/picture_1.png,0,"[-11.733433509789466, -11.733433509789462]",-11.733433509789464,-11.733433509789462,images/picture_2.png,1,"[11.733433509789464, 11.733433509789462]",11.733433509789464,11.733433509789462,images/picture_3.png,2,"[11.733433509789462, -11.733433509789466]",11.733433509789462,-11.733433509789464,0,1,1,1.0876840987557792,2.087684098755779,0.9123159012442208,3,1,1.837684098755779,0,3,0,3,0,0,0,0,4,,,,,,,0.003714958031196147,222.3101911660051,222.3101911660051,223.32150079100393,224.1548535830225,224.3878856659867,224.3878856659867,224.3878856659867,225.3069035409717,225.3069035409717,225.3069035409717,225.3069035409717,4.0084943330148235,226.34094704099698,200002,002,2023-03-16_15h36.44.972,DMS_BEST_eyetracking_DAN_base_12-36_looped_10minWORKING,2022.2.4,None,
27,UNPRED,12,1.1091678382456138,2,images/picture_3.png,images/picture_1.png,0,"[11.733433509789464, 11.733433509789462]",11.733433509789464,11.733433509789462,images/picture_2.png,1,"[11.733433509789462, -11.733433509789466]",11.733433509789462,-11.733433509789464,images/picture_3.png,2,"[-11.733433509789462, 11.733433509789464]",-11.733433509789462,11.733433509789464,0,1,1,1.1091678382456138,2.1091678382456136,0.8908321617543862,3,1,1.8591678382456136,0,3,0,3,0,0,1,1,0,,,,,,,,,,,,,,,,,,,,,200002,002,2023-03-16_15h36.44.972,DMS_BEST_eyetracking_DAN_base_12-36_looped_10minWORKING,2022.2.4,None,
27,UNPRED,12,1.1091678382456138,2,images/picture_3.png,images/picture_1.png,0,"[11.733433509789464, 11.733433509789462]",11.733433509789464,11.733433509789462,images/picture_2.png,1,"[11.733433509789462, -11.733433509789466]",11.733433509789462,-11.733433509789464,images/picture_3.png,2,"[-11.733433509789462, 11.733433509789464]",-11.733433509789462,11.733433509789464,0,1,1,1.1091678382456138,2.1091678382456136,0.8908321617543862,3,1,1.8591678382456136,0,3,0,3,0,0,1,1,0,,,,,,,0.005039332958403975,226.34094704099698,226.34094704099698,227.35496129101375,228.20757516601589,228.42117812501965,228.42117812501965,228.42117812501965,229.3216019999818,229.3216019999818,229.3216019999818,229.3216019999818,4.029649958014488,230.32152454101015,200002,002,2023-03-16_15h36.44.972,DMS_BEST_eyetracking_DAN_base_12-36_looped_10minWORKING,2022.2.4,None,
30,UNPRED,12,0.5305062313329986,0,images/picture_1.png,images/picture_1.png,0,"[-11.733433509789466, -11.733433509789462]",-11.733433509789464,-11.733433509789462,images/picture_2.png,1,"[11.733433509789464, 11.733433509789462]",11.733433509789464,11.733433509789462,images/picture_3.png,2,"[-11.733433509789462, 11.733433509789464]",-11.733433509789462,11.733433509789464,0,1,1,0.5305062313329986,1.5305062313329985,1.4694937686670015,3,1,1.2805062313329985,0,3,0,3,0,0,2,2,3,,,,,,,,,,,,,,,,,,,,,200002,002,2023-03-16_15h36.44.972,DMS_BEST_eyetracking_DAN_base_12-36_looped_10minWORKING,2022.2.4,None,
30,UNPRED,12,0.5305062313329986,0,images/picture_1.png,images/picture_1.png,0,"[-11.733433509789466, -11.733433509789462]",-11.733433509789464,-11.733433509789462,images/picture_2.png,1,"[11.733433509789464, 11.733433509789462]",11.733433509789464,11.733433509789462,images/picture_3.png,2,"[-11.733433509789462, 11.733433509789464]",-11.733433509789462,11.733433509789464,0,1,1,0.5305062313329986,1.5305062313329985,1.4694937686670015,3,1,1.2805062313329985,0,3,0,3,0,0,2,2,3,,,,,,,0.0058999170432798564,230.37406108301366,230.37406108301366,231.38811045797775,231.65483729098924,231.88801125000464,231.88801125000464,231.88801125000464,233.35490254097385,233.35490254097385,233.35490254097385,233.35490254097385,4.029731709044427,234.35495662497124,200002,002,2023-03-16_15h36.44.972,DMS_BEST_eyetracking_DAN_base_12-36_looped_10minWORKING,2022.2.4,None,
32,UNPRED,12,0.5878599653853227,2,images/picture_3.png,images/picture_1.png,0,"[11.733433509789462, -11.733433509789466]",11.733433509789462,-11.733433509789464,images/picture_2.png,1,"[11.733433509789464, 11.733433509789462]",11.733433509789464,11.733433509789462,images/picture_3.png,2,"[-11.733433509789466, -11.733433509789462]",-11.733433509789464,-11.733433509789462,0,1,1,0.5878599653853227,1.5878599653853227,1.4121400346146773,3,1,1.3378599653853227,0,3,0,3,0,0,3,3,5,,,,,,,,,,,,,,,,,,,,,200002,002,2023-03-16_15h36.44.972,DMS_BEST_eyetracking_DAN_base_12-36_looped_10minWORKING,2022.2.4,None,
32,UNPRED,12,0.5878599653853227,2,images/picture_3.png,images/picture_1.png,0,"[11.733433509789462, -11.733433509789466]",11.733433509789462,-11.733433509789464,images/picture_2.png,1,"[11.733433509789464, 11.733433509789462]",11.733433509789464,11.733433509789462,images/picture_3.png,2,"[-11.733433509789466, -11.733433509789462]",-11.733433509789464,-11.733433509789462,0,1,1,0.5878599653853227,1.5878599653853227,1.4121400346146773,3,1,1.3378599653853227,0,3,0,3,0,0,3,3,5,,,,,,,0.004625083995051682,234.40740029100562,234.40740029100562,235.42103349999525,235.7544069159776,235.97412041598,235.97412041598,235.97412041598,237.38831004098756,237.38831004098756,237.38831004098756,237.38831004098756,4.029921500012279,238.38840399996843,200002,002,2023-03-16_15h36.44.972,DMS_BEST_eyetracking_DAN_base_12-36_looped_10minWORKING,2022.2.4,None,
33,UNPRED,12,0.8742381975679984,2,images/picture_3.png,images/picture_1.png,0,"[11.733433509789464, 11.733433509789462]",11.733433509789464,11.733433509789462,images/picture_2.png,1,"[11.733433509789462, -11.733433509789466]",11.733433509789462,-11.733433509789464,images/picture_3.png,2,"[-11.733433509789466, -11.733433509789462]",-11.733433509789464,-11.733433509789462,0,1,1,0.8742381975679984,1.8742381975679985,1.1257618024320015,3,1,1.6242381975679985,0,3,0,3,0,0,4,4,6,,,,,,,,,,,,,,,,,,,,,200002,002,2023-03-16_15h36.44.972,DMS_BEST_eyetracking_DAN_base_12-36_looped_10minWORKING,2022.2.4,None,
33,UNPRED,12,0.8742381975679984,2,images/picture_3.png,images/picture_1.png,0,"[11.733433509789464, 11.733433509789462]",11.733433509789464,11.733433509789462,images/picture_2.png,1,"[11.733433509789462, -11.733433509789466]",11.733433509789462,-11.733433509789464,images/picture_3.png,2,"[-11.733433509789466, -11.733433509789462]",-11.733433509789464,-11.733433509789462,0,1,1,0.8742381975679984,1.8742381975679985,1.1257618024320015,3,1,1.6242381975679985,0,3,0,3,0,0,4,4,6,,,,,,,0.003393790975678712,238.42220529098995,238.42220529098995,239.42155645799357,240.05486058298266,240.2880707079894,240.2880707079894,240.2880707079894,241.42153487500036,241.42153487500036,241.42153487500036,241.42153487500036,3.997147874964867,242.44096604100196,200002,002,2023-03-16_15h36.44.972,DMS_BEST_eyetracking_DAN_base_12-36_looped_10minWORKING,2022.2.4,None,
29,UNPRED,12,0.5402210519510159,0,images/picture_1.png,images/picture_1.png,0,"[-11.733433509789466, -11.733433509789462]",-11.733433509789464,-11.733433509789462,images/picture_2.png,1,"[11.733433509789464, 11.733433509789462]",11.733433509789464,11.733433509789462,images/picture_3.png,2,"[11.733433509789462, -11.733433509789466]",11.733433509789462,-11.733433509789464,0,1,1,0.5402210519510159,1.5402210519510158,1.4597789480489842,3,1,1.2902210519510158,0,3,0,3,0,0,5,5,2,,,,,,,,,,,,,,,,,,,,,200002,002,2023-03-16_15h36.44.972,DMS_BEST_eyetracking_DAN_base_12-36_looped_10minWORKING,2022.2.4,None,
29,UNPRED,12,0.5402210519510159,0,images/picture_1.png,images/picture_1.png,0,"[-11.733433509789466, -11.733433509789462]",-11.733433509789464,-11.733433509789462,images/picture_2.png,1,"[11.733433509789464, 11.733433509789462]",11.733433509789464,11.733433509789462,images/picture_3.png,2,"[11.733433509789462, -11.733433509789466]",11.733433509789462,-11.733433509789464,0,1,1,0.5402210519510159,1.5402210519510158,1.4597789480489842,3,1,1.2902210519510158,0,3,0,3,0,0,5,5,2,,,,,,,0.004606167029123753,242.44096604100196,242.44096604100196,243.45481129101245,243.74063816596754,243.95482695801184,243.95482695801184,243.95482695801184,245.4211484999978,245.4211484999978,245.4211484999978,245.4211484999978,4.029806542035658,246.4216593329911,200002,002,2023-03-16_15h36.44.972,DMS_BEST_eyetracking_DAN_base_12-36_looped_10minWORKING,2022.2.4,None,
34,UNPRED,12,0.7670225962608708,1,images/picture_2.png,images/picture_1.png,0,"[-11.733433509789466, -11.733433509789462]",-11.733433509789464,-11.733433509789462,images/picture_2.png,1,"[-11.733433509789462, 11.733433509789464]",-11.733433509789462,11.733433509789464,images/picture_3.png,2,"[11.733433509789464, 11.733433509789462]",11.733433509789464,11.733433509789462,0,1,1,0.7670225962608708,1.7670225962608708,1.2329774037391292,3,1,1.5170225962608708,0,3,0,3,0,0,6,6,7,,,,,,,,,,,,,,,,,,,,,200002,002,2023-03-16_15h36.44.972,DMS_BEST_eyetracking_DAN_base_12-36_looped_10minWORKING,2022.2.4,None,
34,UNPRED,12,0.7670225962608708,1,images/picture_2.png,images/picture_1.png,0,"[-11.733433509789466, -11.733433509789462]",-11.733433509789464,-11.733433509789462,images/picture_2.png,1,"[-11.733433509789462, 11.733433509789464]",-11.733433509789462,11.733433509789464,images/picture_3.png,2,"[11.733433509789464, 11.733433509789462]",11.733433509789464,11.733433509789462,0,1,1,0.7670225962608708,1.7670225962608708,1.2329774037391292,3,1,1.5170225962608708,0,3,0,3,0,0,6,6,7,,,,,,,0.007094250002410263,246.47441912500653,246.47441912500653,247.4882812909782,247.9883378749946,248.2213522500242,248.2213522500242,248.2213522500242,249.45498254097765,249.45498254097765,249.45498254097765,249.45498254097765,4.030883041967172,250.454785540991,200002,002,2023-03-16_15h36.44.972,DMS_BEST_eyetracking_DAN_base_12-36_looped_10minWORKING,2022.2.4,None,
28,UNPRED,12,0.5759230314908786,2,images/picture_3.png,images/picture_1.png,0,"[-11.733433509789466, -11.733433509789462]",-11.733433509789464,-11.733433509789462,images/picture_2.png,1,"[-11.733433509789462, 11.733433509789464]",-11.733433509789462,11.733433509789464,images/picture_3.png,2,"[11.733433509789464, 11.733433509789462]",11.733433509789464,11.733433509789462,0,1,1,0.5759230314908786,1.5759230314908788,1.4240769685091212,3,1,1.3259230314908788,0,3,0,3,0,0,7,7,1,,,,,,,,,,,,,,,,,,,,,200002,002,2023-03-16_15h36.44.972,DMS_BEST_eyetracking_DAN_base_12-36_looped_10minWORKING,2022.2.4,None,
28,UNPRED,12,0.5759230314908786,2,images/picture_3.png,images/picture_1.png,0,"[-11.733433509789466, -11.733433509789462]",-11.733433509789464,-11.733433509789462,images/picture_2.png,1,"[-11.733433509789462, 11.733433509789464]",-11.733433509789462,11.733433509789464,images/picture_3.png,2,"[11.733433509789464, 11.733433509789462]",11.733433509789464,11.733433509789462,0,1,1,0.5759230314908786,1.5759230314908788,1.4240769685091212,3,1,1.3259230314908788,0,3,0,3,0,0,7,7,1,,,,,,,0.0036172910477034748,250.48936683300417,250.48936683300417,251.48834266600898,251.82153179100715,252.05465433298377,252.05465433298377,252.05465433298377,253.48829958296847,253.48829958296847,253.48829958296847,253.48829958296847,3.997126416012179,254.50813841598574,200002,002,2023-03-16_15h36.44.972,DMS_BEST_eyetracking_DAN_base_12-36_looped_10minWORKING,2022.2.4,None,
35,UNPRED,12,0.7601247033737717,1,images/picture_2.png,images/picture_1.png,0,"[11.733433509789462, -11.733433509789466]",11.733433509789462,-11.733433509789464,images/picture_2.png,1,"[-11.733433509789462, 11.733433509789464]",-11.733433509789462,11.733433509789464,images/picture_3.png,2,"[11.733433509789464, 11.733433509789462]",11.733433509789464,11.733433509789462,0,1,1,0.7601247033737717,1.7601247033737717,1.2398752966262283,3,1,1.5101247033737717,0,3,0,3,0,0,8,8,8,,,,,,,,,,,,,,,,,,,,,200002,002,2023-03-16_15h36.44.972,DMS_BEST_eyetracking_DAN_base_12-36_looped_10minWORKING,2022.2.4,None,
35,UNPRED,12,0.7601247033737717,1,images/picture_2.png,images/picture_1.png,0,"[11.733433509789462, -11.733433509789466]",11.733433509789462,-11.733433509789464,images/picture_2.png,1,"[-11.733433509789462, 11.733433509789464]",-11.733433509789462,11.733433509789464,images/picture_3.png,2,"[11.733433509789464, 11.733433509789462]",11.733433509789464,11.733433509789462,0,1,1,0.7601247033737717,1.7601247033737717,1.2398752966262283,3,1,1.5101247033737717,0,3,0,3,0,0,8,8,8,,,,,,,0.004841624991968274,254.50813841598574,254.50813841598574,255.52153670799453,256.02127362496685,256.24045795801794,256.24045795801794,256.24045795801794,257.4883743330138,257.4883743330138,257.4883743330138,257.4883743330138,4.030505249975249,258.48838108300697,200002,002,2023-03-16_15h36.44.972,DMS_BEST_eyetracking_DAN_base_12-36_looped_10minWORKING,2022.2.4,None,
,,,,,,,,,,,,,,,,,,,,,,,,,,,,,,,3,0,3,0,,,,,,,,,258.58608741598437,270.6109539580066,,,,,,,,,,,,,,,200002,002,2023-03-16_15h36.44.972,DMS_BEST_eyetracking_DAN_base_12-36_looped_10minWORKING,2022.2.4,None,
41,PRED,12,1.0354130155149324,1,images/picture_2.png,images/picture_1.png,0,"[-11.733433509789466, -11.733433509789462]",-11.733433509789464,-11.733433509789462,images/picture_2.png,1,"[11.733433509789464, 11.733433509789462]",11.733433509789464,11.733433509789462,images/picture_3.png,2,"[11.733433509789462, -11.733433509789466]",11.733433509789462,-11.733433509789464,0,1,1,1.0354130155149324,2.0354130155149326,0.9645869844850676,3,1,1.7854130155149326,0,4,0,4,0,0,0,0,5,,,,,,,,,,,,,,,,,,,,,200002,002,2023-03-16_15h36.44.972,DMS_BEST_eyetracking_DAN_base_12-36_looped_10minWORKING,2022.2.4,None,
41,PRED,12,1.0354130155149324,1,images/picture_2.png,images/picture_1.png,0,"[-11.733433509789466, -11.733433509789462]",-11.733433509789464,-11.733433509789462,images/picture_2.png,1,"[11.733433509789464, 11.733433509789462]",11.733433509789464,11.733433509789462,images/picture_3.png,2,"[11.733433509789462, -11.733433509789466]",11.733433509789462,-11.733433509789464,0,1,1,1.0354130155149324,2.0354130155149326,0.9645869844850676,3,1,1.7854130155149326,0,4,0,4,0,0,0,0,5,,,,,,,0.0043822089792229235,270.6109539580066,270.6109539580066,271.6218238750007,272.40802041598363,272.640838249994,272.640838249994,272.640838249994,273.60854849999305,273.60854849999305,273.60854849999305,273.60854849999305,4.0092681249952875,274.64142270799493,200002,002,2023-03-16_15h36.44.972,DMS_BEST_eyetracking_DAN_base_12-36_looped_10minWORKING,2022.2.4,None,
44,PRED,12,0.7737831928904892,1,images/picture_2.png,images/picture_1.png,0,"[-11.733433509789466, -11.733433509789462]",-11.733433509789464,-11.733433509789462,images/picture_2.png,1,"[-11.733433509789462, 11.733433509789464]",-11.733433509789462,11.733433509789464,images/picture_3.png,2,"[11.733433509789462, -11.733433509789466]",11.733433509789462,-11.733433509789464,0,1,1,0.7737831928904892,1.7737831928904892,1.2262168071095108,3,1,1.5237831928904892,0,4,0,4,0,0,1,1,8,,,,,,,,,,,,,,,,,,,,,200002,002,2023-03-16_15h36.44.972,DMS_BEST_eyetracking_DAN_base_12-36_looped_10minWORKING,2022.2.4,None,
44,PRED,12,0.7737831928904892,1,images/picture_2.png,images/picture_1.png,0,"[-11.733433509789466, -11.733433509789462]",-11.733433509789464,-11.733433509789462,images/picture_2.png,1,"[-11.733433509789462, 11.733433509789464]",-11.733433509789462,11.733433509789464,images/picture_3.png,2,"[11.733433509789462, -11.733433509789466]",11.733433509789462,-11.733433509789464,0,1,1,0.7737831928904892,1.7737831928904892,1.2262168071095108,3,1,1.5237831928904892,0,4,0,4,0,0,1,1,8,,,,,,,0.004787333018612117,274.64142270799493,274.64142270799493,275.655174583022,276.1737870830111,276.3883872909937,276.3883872909937,276.3883872909937,277.6217467079987,277.6217467079987,277.6217467079987,277.6217467079987,4.030286542023532,278.6216763749835,200002,002,2023-03-16_15h36.44.972,DMS_BEST_eyetracking_DAN_base_12-36_looped_10minWORKING,2022.2.4,None,
42,PRED,12,0.6357138776521422,1,images/picture_2.png,images/picture_1.png,0,"[11.733433509789464, 11.733433509789462]",11.733433509789464,11.733433509789462,images/picture_2.png,1,"[-11.733433509789466, -11.733433509789462]",-11.733433509789464,-11.733433509789462,images/picture_3.png,2,"[11.733433509789462, -11.733433509789466]",11.733433509789462,-11.733433509789464,0,1,1,0.6357138776521422,1.6357138776521418,1.364286122347858,3,1,1.385713877652142,0,4,0,4,0,0,2,2,6,,,,,,,,,,,,,,,,,,,,,200002,002,2023-03-16_15h36.44.972,DMS_BEST_eyetracking_DAN_base_12-36_looped_10minWORKING,2022.2.4,None,
42,PRED,12,0.6357138776521422,1,images/picture_2.png,images/picture_1.png,0,"[11.733433509789464, 11.733433509789462]",11.733433509789464,11.733433509789462,images/picture_2.png,1,"[-11.733433509789466, -11.733433509789462]",-11.733433509789464,-11.733433509789462,images/picture_3.png,2,"[11.733433509789462, -11.733433509789466]",11.733433509789462,-11.733433509789464,0,1,1,0.6357138776521422,1.6357138776521418,1.364286122347858,3,1,1.385713877652142,0,4,0,4,0,0,2,2,6,,,,,,,0.004999041964765638,278.6748076250078,278.6748076250078,279.6883914580103,280.07466287497664,280.28810691600665,280.28810691600665,280.28810691600665,281.654905916017,281.654905916017,281.654905916017,281.654905916017,4.030065583996475,282.6550472910167,200002,002,2023-03-16_15h36.44.972,DMS_BEST_eyetracking_DAN_base_12-36_looped_10minWORKING,2022.2.4,None,
38,PRED,12,0.8544973218074247,1,images/picture_2.png,images/picture_1.png,0,"[-11.733433509789466, -11.733433509789462]",-11.733433509789464,-11.733433509789462,images/picture_2.png,1,"[11.733433509789464, 11.733433509789462]",11.733433509789464,11.733433509789462,images/picture_3.png,2,"[11.733433509789462, -11.733433509789466]",11.733433509789462,-11.733433509789464,0,1,1,0.8544973218074247,1.8544973218074243,1.1455026781925757,3,1,1.6044973218074243,0,4,0,4,0,0,3,3,2,,,,,,,,,,,,,,,,,,,,,200002,002,2023-03-16_15h36.44.972,DMS_BEST_eyetracking_DAN_base_12-36_looped_10minWORKING,2022.2.4,None,
38,PRED,12,0.8544973218074247,1,images/picture_2.png,images/picture_1.png,0,"[-11.733433509789466, -11.733433509789462]",-11.733433509789464,-11.733433509789462,images/picture_2.png,1,"[11.733433509789464, 11.733433509789462]",11.733433509789464,11.733433509789462,images/picture_3.png,2,"[11.733433509789462, -11.733433509789466]",11.733433509789462,-11.733433509789464,0,1,1,0.8544973218074247,1.8544973218074243,1.1455026781925757,3,1,1.6044973218074243,0,4,0,4,0,0,3,3,2,,,,,,,0.0049808339681476355,282.70792233297834,282.70792233297834,283.7218860409921,284.3217998750042,284.5411071659764,284.5411071659764,284.5411071659764,285.6885261249845,285.6885261249845,285.6885261249845,285.6885261249845,4.02888516697567,286.68799324997235,200002,002,2023-03-16_15h36.44.972,DMS_BEST_eyetracking_DAN_base_12-36_looped_10minWORKING,2022.2.4,None,
43,PRED,12,1.1792967254207736,1,images/picture_2.png,images/picture_1.png,0,"[11.733433509789464, 11.733433509789462]",11.733433509789464,11.733433509789462,images/picture_2.png,1,"[11.733433509789462, -11.733433509789466]",11.733433509789462,-11.733433509789464,images/picture_3.png,2,"[-11.733433509789466, -11.733433509789462]",-11.733433509789464,-11.733433509789462,0,1,1,1.1792967254207736,2.1792967254207736,0.8207032745792264,3,1,1.9292967254207736,0,4,0,4,0,0,4,4,7,,,,,,,,,,,,,,,,,,,,,200002,002,2023-03-16_15h36.44.972,DMS_BEST_eyetracking_DAN_base_12-36_looped_10minWORKING,2022.2.4,None,
43,PRED,12,1.1792967254207736,1,images/picture_2.png,images/picture_1.png,0,"[11.733433509789464, 11.733433509789462]",11.733433509789464,11.733433509789462,images/picture_2.png,1,"[11.733433509789462, -11.733433509789466]",11.733433509789462,-11.733433509789464,images/picture_3.png,2,"[-11.733433509789466, -11.733433509789462]",-11.733433509789464,-11.733433509789462,0,1,1,1.1792967254207736,2.1792967254207736,0.8207032745792264,3,1,1.9292967254207736,0,4,0,4,0,0,4,4,7,,,,,,,0.001813041977584362,286.7212586249807,286.7212586249807,287.7217911659973,288.65500616602367,288.8883775409777,288.8883775409777,288.8883775409777,289.72180900000967,289.72180900000967,289.72180900000967,289.72180900000967,3.999095999985002,290.7415144579718,200002,002,2023-03-16_15h36.44.972,DMS_BEST_eyetracking_DAN_base_12-36_looped_10minWORKING,2022.2.4,None,
39,PRED,12,0.8456109841292148,1,images/picture_2.png,images/picture_1.png,0,"[11.733433509789464, 11.733433509789462]",11.733433509789464,11.733433509789462,images/picture_2.png,1,"[-11.733433509789462, 11.733433509789464]",-11.733433509789462,11.733433509789464,images/picture_3.png,2,"[11.733433509789462, -11.733433509789466]",11.733433509789462,-11.733433509789464,0,1,1,0.8456109841292148,1.8456109841292148,1.1543890158707852,3,1,1.5956109841292148,0,4,0,4,0,0,5,5,3,,,,,,,,,,,,,,,,,,,,,200002,002,2023-03-16_15h36.44.972,DMS_BEST_eyetracking_DAN_base_12-36_looped_10minWORKING,2022.2.4,None,
39,PRED,12,0.8456109841292148,1,images/picture_2.png,images/picture_1.png,0,"[11.733433509789464, 11.733433509789462]",11.733433509789464,11.733433509789462,images/picture_2.png,1,"[-11.733433509789462, 11.733433509789464]",-11.733433509789462,11.733433509789464,images/picture_3.png,2,"[11.733433509789462, -11.733433509789466]",11.733433509789462,-11.733433509789464,0,1,1,0.8456109841292148,1.8456109841292148,1.1543890158707852,3,1,1.5956109841292148,0,4,0,4,0,0,5,5,3,,,,,,,0.004751999978907406,290.7415144579718,290.7415144579718,291.7552898749709,292.34146637498634,292.55506512499414,292.55506512499414,292.55506512499414,293.72183212498203,293.72183212498203,293.72183212498203,293.72183212498203,4.030889082991052,294.7218456249684,200002,002,2023-03-16_15h36.44.972,DMS_BEST_eyetracking_DAN_base_12-36_looped_10minWORKING,2022.2.4,None,
37,PRED,12,0.9415415771102928,1,images/picture_2.png,images/picture_1.png,0,"[-11.733433509789462, 11.733433509789464]",-11.733433509789462,11.733433509789464,images/picture_2.png,1,"[11.733433509789462, -11.733433509789466]",11.733433509789462,-11.733433509789464,images/picture_3.png,2,"[-11.733433509789466, -11.733433509789462]",-11.733433509789464,-11.733433509789462,0,1,1,0.9415415771102928,1.9415415771102928,1.0584584228897072,3,1,1.6915415771102928,0,4,0,4,0,0,6,6,1,,,,,,,,,,,,,,,,,,,,,200002,002,2023-03-16_15h36.44.972,DMS_BEST_eyetracking_DAN_base_12-36_looped_10minWORKING,2022.2.4,None,
37,PRED,12,0.9415415771102928,1,images/picture_2.png,images/picture_1.png,0,"[-11.733433509789462, 11.733433509789464]",-11.733433509789462,11.733433509789464,images/picture_2.png,1,"[11.733433509789462, -11.733433509789466]",11.733433509789462,-11.733433509789464,images/picture_3.png,2,"[-11.733433509789466, -11.733433509789462]",-11.733433509789464,-11.733433509789462,0,1,1,0.9415415771102928,1.9415415771102928,1.0584584228897072,3,1,1.6915415771102928,0,4,0,4,0,0,6,6,1,,,,,,,0.004976125026587397,294.7747835830087,294.7747835830087,295.7885348330019,296.47379499999806,296.6881150410045,296.6881150410045,296.6881150410045,297.75506549997954,297.75506549997954,297.75506549997954,297.75506549997954,4.029359334032051,298.7551304579829,200002,002,2023-03-16_15h36.44.972,DMS_BEST_eyetracking_DAN_base_12-36_looped_10minWORKING,2022.2.4,None,
40,PRED,12,1.0575512576046315,1,images/picture_2.png,images/picture_1.png,0,"[-11.733433509789462, 11.733433509789464]",-11.733433509789462,11.733433509789464,images/picture_2.png,1,"[-11.733433509789466, -11.733433509789462]",-11.733433509789464,-11.733433509789462,images/picture_3.png,2,"[11.733433509789462, -11.733433509789466]",11.733433509789462,-11.733433509789464,0,1,1,1.0575512576046315,2.0575512576046315,0.9424487423953684,3,1,1.8075512576046315,0,4,0,4,0,0,7,7,4,,,,,,,,,,,,,,,,,,,,,200002,002,2023-03-16_15h36.44.972,DMS_BEST_eyetracking_DAN_base_12-36_looped_10minWORKING,2022.2.4,None,
40,PRED,12,1.0575512576046315,1,images/picture_2.png,images/picture_1.png,0,"[-11.733433509789462, 11.733433509789464]",-11.733433509789462,11.733433509789464,images/picture_2.png,1,"[-11.733433509789466, -11.733433509789462]",-11.733433509789464,-11.733433509789462,images/picture_3.png,2,"[11.733433509789462, -11.733433509789466]",11.733433509789462,-11.733433509789464,0,1,1,1.0575512576046315,2.0575512576046315,0.9424487423953684,3,1,1.8075512576046315,0,4,0,4,0,0,7,7,4,,,,,,,0.004819041991140693,298.80809637496714,298.80809637496714,299.82186450000154,300.62183858297067,300.8411695829709,300.8411695829709,300.8411695829709,301.78849870798877,301.78849870798877,301.78849870798877,301.78849870798877,4.030356417002622,302.78893016598886,200002,002,2023-03-16_15h36.44.972,DMS_BEST_eyetracking_DAN_base_12-36_looped_10minWORKING,2022.2.4,None,
36,PRED,12,1.1389318411466838,1,images/picture_2.png,images/picture_1.png,0,"[-11.733433509789462, 11.733433509789464]",-11.733433509789462,11.733433509789464,images/picture_2.png,1,"[11.733433509789464, 11.733433509789462]",11.733433509789464,11.733433509789462,images/picture_3.png,2,"[-11.733433509789466, -11.733433509789462]",-11.733433509789464,-11.733433509789462,0,1,1,1.1389318411466838,2.138931841146684,0.8610681588533162,3,1,1.888931841146684,0,4,0,4,0,0,8,8,0,,,,,,,,,,,,,,,,,,,,,200002,002,2023-03-16_15h36.44.972,DMS_BEST_eyetracking_DAN_base_12-36_looped_10minWORKING,2022.2.4,None,
36,PRED,12,1.1389318411466838,1,images/picture_2.png,images/picture_1.png,0,"[-11.733433509789462, 11.733433509789464]",-11.733433509789462,11.733433509789464,images/picture_2.png,1,"[11.733433509789464, 11.733433509789462]",11.733433509789464,11.733433509789462,images/picture_3.png,2,"[-11.733433509789466, -11.733433509789462]",-11.733433509789464,-11.733433509789462,0,1,1,1.1389318411466838,2.138931841146684,0.8610681588533162,3,1,1.888931841146684,0,4,0,4,0,0,8,8,0,,,,,,,0.004844916984438896,302.84128845797386,302.84128845797386,303.85528870800044,304.7411885409965,304.9550513330032,304.9550513330032,304.9550513330032,305.8217892500106,305.8217892500106,305.8217892500106,305.8217892500106,4.029899667017162,306.8215717910207,200002,002,2023-03-16_15h36.44.972,DMS_BEST_eyetracking_DAN_base_12-36_looped_10minWORKING,2022.2.4,None,
,,,,,,,,,,,,,,,,,,,,,,,,,,,,,,,4,0,4,0,,,,,,,,,306.8959898329922,318.92582562501775,,,,,,,,,,,,,,,200002,002,2023-03-16_15h36.44.972,DMS_BEST_eyetracking_DAN_base_12-36_looped_10minWORKING,2022.2.4,None,
52,UNPRED,12,0.5477882048053357,0,images/picture_1.png,images/picture_1.png,0,"[-11.733433509789462, 11.733433509789464]",-11.733433509789462,11.733433509789464,images/picture_2.png,1,"[11.733433509789464, 11.733433509789462]",11.733433509789464,11.733433509789462,images/picture_3.png,2,"[-11.733433509789466, -11.733433509789462]",-11.733433509789464,-11.733433509789462,0,1,1,0.5477882048053357,1.5477882048053355,1.4522117951946645,3,1,1.2977882048053355,0,5,0,5,0,0,0,0,7,,,,,,,,,,,,,,,,,,,,,200002,002,2023-03-16_15h36.44.972,DMS_BEST_eyetracking_DAN_base_12-36_looped_10minWORKING,2022.2.4,None,
52,UNPRED,12,0.5477882048053357,0,images/picture_1.png,images/picture_1.png,0,"[-11.733433509789462, 11.733433509789464]",-11.733433509789462,11.733433509789464,images/picture_2.png,1,"[11.733433509789464, 11.733433509789462]",11.733433509789464,11.733433509789462,images/picture_3.png,2,"[-11.733433509789466, -11.733433509789462]",-11.733433509789464,-11.733433509789462,0,1,1,0.5477882048053357,1.5477882048053355,1.4522117951946645,3,1,1.2977882048053355,0,5,0,5,0,0,0,0,7,,,,,,,0.0043967089732177556,318.92582562501775,318.92582562501775,319.9412545830128,320.22192187496694,320.47517175000394,320.47517175000394,320.47517175000394,321.9218345829868,321.9414860829711,321.9414860829711,321.9414860829711,3.9946067919954658,322.92292187496787,200002,002,2023-03-16_15h36.44.972,DMS_BEST_eyetracking_DAN_base_12-36_looped_10minWORKING,2022.2.4,None,
53,UNPRED,12,0.5707374100091911,0,images/picture_1.png,images/picture_1.png,0,"[-11.733433509789466, -11.733433509789462]",-11.733433509789464,-11.733433509789462,images/picture_2.png,1,"[-11.733433509789462, 11.733433509789464]",-11.733433509789462,11.733433509789464,images/picture_3.png,2,"[11.733433509789464, 11.733433509789462]",11.733433509789464,11.733433509789462,0,1,1,0.5707374100091911,1.570737410009191,1.429262589990809,3,1,1.3207374100091909,0,5,0,5,0,0,1,1,8,,,,,,,,,,,,,,,,,,,,,200002,002,2023-03-16_15h36.44.972,DMS_BEST_eyetracking_DAN_base_12-36_looped_10minWORKING,2022.2.4,None,
53,UNPRED,12,0.5707374100091911,0,images/picture_1.png,images/picture_1.png,0,"[-11.733433509789466, -11.733433509789462]",-11.733433509789464,-11.733433509789462,images/picture_2.png,1,"[-11.733433509789462, 11.733433509789464]",-11.733433509789462,11.733433509789464,images/picture_3.png,2,"[11.733433509789464, 11.733433509789462]",11.733433509789464,11.733433509789462,0,1,1,0.5707374100091911,1.570737410009191,1.429262589990809,3,1,1.3207374100091909,0,5,0,5,0,0,1,1,8,,,,,,,0.0034556249738670886,322.92292187496787,322.92292187496787,323.9220085829729,324.2552927500219,324.4885187909822,324.4885187909822,324.4885187909822,325.9220073330216,325.9220073330216,325.9220073330216,325.9220073330216,3.995844708988443,326.92128291598056,200002,002,2023-03-16_15h36.44.972,DMS_BEST_eyetracking_DAN_base_12-36_looped_10minWORKING,2022.2.4,None,
46,UNPRED,12,0.939942410091978,1,images/picture_2.png,images/picture_1.png,0,"[11.733433509789462, -11.733433509789466]",11.733433509789462,-11.733433509789464,images/picture_2.png,1,"[11.733433509789464, 11.733433509789462]",11.733433509789464,11.733433509789462,images/picture_3.png,2,"[-11.733433509789462, 11.733433509789464]",-11.733433509789462,11.733433509789464,0,1,1,0.939942410091978,1.939942410091978,1.060057589908022,3,1,1.689942410091978,0,5,0,5,0,0,2,2,1,,,,,,,,,,,,,,,,,,,,,200002,002,2023-03-16_15h36.44.972,DMS_BEST_eyetracking_DAN_base_12-36_looped_10minWORKING,2022.2.4,None,
46,UNPRED,12,0.939942410091978,1,images/picture_2.png,images/picture_1.png,0,"[11.733433509789462, -11.733433509789466]",11.733433509789462,-11.733433509789464,images/picture_2.png,1,"[11.733433509789464, 11.733433509789462]",11.733433509789464,11.733433509789462,images/picture_3.png,2,"[-11.733433509789462, 11.733433509789464]",-11.733433509789462,11.733433509789464,0,1,1,0.939942410091978,1.939942410091978,1.060057589908022,3,1,1.689942410091978,0,5,0,5,0,0,2,2,1,,,,,,,0.0027694590389728546,326.92128291598056,326.92128291598056,327.9220365000074,328.6220430000103,328.8551111249835,328.8551111249835,328.8551111249835,329.9220051249722,329.9220051249722,329.9220051249722,329.9220051249722,3.998253417026717,330.9414041250129,200002,002,2023-03-16_15h36.44.972,DMS_BEST_eyetracking_DAN_base_12-36_looped_10minWORKING,2022.2.4,None,
51,UNPRED,12,0.8272201467002038,0,images/picture_1.png,images/picture_1.png,0,"[-11.733433509789466, -11.733433509789462]",-11.733433509789464,-11.733433509789462,images/picture_2.png,1,"[-11.733433509789462, 11.733433509789464]",-11.733433509789462,11.733433509789464,images/picture_3.png,2,"[11.733433509789464, 11.733433509789462]",11.733433509789464,11.733433509789462,0,1,1,0.8272201467002038,1.827220146700204,1.1727798532997962,3,1,1.5772201467002038,0,5,0,5,0,0,3,3,6,,,,,,,,,,,,,,,,,,,,,200002,002,2023-03-16_15h36.44.972,DMS_BEST_eyetracking_DAN_base_12-36_looped_10minWORKING,2022.2.4,None,
51,UNPRED,12,0.8272201467002038,0,images/picture_1.png,images/picture_1.png,0,"[-11.733433509789466, -11.733433509789462]",-11.733433509789464,-11.733433509789462,images/picture_2.png,1,"[-11.733433509789462, 11.733433509789464]",-11.733433509789462,11.733433509789464,images/picture_3.png,2,"[11.733433509789464, 11.733433509789462]",11.733433509789464,11.733433509789462,0,1,1,0.8272201467002038,1.827220146700204,1.1727798532997962,3,1,1.5772201467002038,0,5,0,5,0,0,3,3,6,,,,,,,0.004594291967805475,330.9414041250129,330.9414041250129,331.9553433749825,332.52191012498224,332.7414629160194,332.7414629160194,332.7414629160194,333.92203695798526,333.92203695798526,333.92203695798526,333.92203695798526,4.03027645900147,334.92205245798687,200002,002,2023-03-16_15h36.44.972,DMS_BEST_eyetracking_DAN_base_12-36_looped_10minWORKING,2022.2.4,None,
45,UNPRED,12,0.7856110853614593,0,images/picture_1.png,images/picture_1.png,0,"[-11.733433509789466, -11.733433509789462]",-11.733433509789464,-11.733433509789462,images/picture_2.png,1,"[11.733433509789464, 11.733433509789462]",11.733433509789464,11.733433509789462,images/picture_3.png,2,"[-11.733433509789462, 11.733433509789464]",-11.733433509789462,11.733433509789464,0,1,1,0.7856110853614593,1.7856110853614593,1.2143889146385407,3,1,1.5356110853614593,0,5,0,5,0,0,4,4,0,,,,,,,,,,,,,,,,,,,,,200002,002,2023-03-16_15h36.44.972,DMS_BEST_eyetracking_DAN_base_12-36_looped_10minWORKING,2022.2.4,None,
45,UNPRED,12,0.7856110853614593,0,images/picture_1.png,images/picture_1.png,0,"[-11.733433509789466, -11.733433509789462]",-11.733433509789464,-11.733433509789462,images/picture_2.png,1,"[11.733433509789464, 11.733433509789462]",11.733433509789464,11.733433509789462,images/picture_3.png,2,"[-11.733433509789462, 11.733433509789464]",-11.733433509789462,11.733433509789464,0,1,1,0.7856110853614593,1.7856110853614593,1.2143889146385407,3,1,1.5356110853614593,0,5,0,5,0,0,4,4,0,,,,,,,0.003463083994574845,334.9561857910012,334.9561857910012,335.9553603749955,336.4887799160206,336.74191462498857,336.74191462498857,336.74191462498857,337.95502045797184,337.95502045797184,337.95502045797184,337.95502045797184,3.9962516249506734,338.9750919159851,200002,002,2023-03-16_15h36.44.972,DMS_BEST_eyetracking_DAN_base_12-36_looped_10minWORKING,2022.2.4,None,
48,UNPRED,12,0.8255137786191264,1,images/picture_2.png,images/picture_1.png,0,"[11.733433509789462, -11.733433509789466]",11.733433509789462,-11.733433509789464,images/picture_2.png,1,"[-11.733433509789466, -11.733433509789462]",-11.733433509789464,-11.733433509789462,images/picture_3.png,2,"[11.733433509789464, 11.733433509789462]",11.733433509789464,11.733433509789462,0,1,1,0.8255137786191264,1.8255137786191264,1.1744862213808736,3,1,1.5755137786191264,0,5,0,5,0,0,5,5,3,,,,,,,,,,,,,,,,,,,,,200002,002,2023-03-16_15h36.44.972,DMS_BEST_eyetracking_DAN_base_12-36_looped_10minWORKING,2022.2.4,None,
48,UNPRED,12,0.8255137786191264,1,images/picture_2.png,images/picture_1.png,0,"[11.733433509789462, -11.733433509789466]",11.733433509789462,-11.733433509789464,images/picture_2.png,1,"[-11.733433509789466, -11.733433509789462]",-11.733433509789464,-11.733433509789462,images/picture_3.png,2,"[11.733433509789464, 11.733433509789462]",11.733433509789464,11.733433509789462,0,1,1,0.8255137786191264,1.8255137786191264,1.1744862213808736,3,1,1.5755137786191264,0,5,0,5,0,0,5,5,3,,,,,,,0.005940667004324496,338.9750919159851,338.9750919159851,339.9887797079864,340.55535387498094,340.77506429096684,340.77506429096684,340.77506429096684,341.9551508749719,341.9551508749719,341.9551508749719,341.9551508749719,4.031083624984603,342.9553057500161,200002,002,2023-03-16_15h36.44.972,DMS_BEST_eyetracking_DAN_base_12-36_looped_10minWORKING,2022.2.4,None,
50,UNPRED,12,0.7222485305930925,0,images/picture_1.png,images/picture_1.png,0,"[-11.733433509789466, -11.733433509789462]",-11.733433509789464,-11.733433509789462,images/picture_2.png,1,"[11.733433509789462, -11.733433509789466]",11.733433509789462,-11.733433509789464,images/picture_3.png,2,"[11.733433509789464, 11.733433509789462]",11.733433509789464,11.733433509789462,0,1,1,0.7222485305930925,1.7222485305930926,1.2777514694069074,3,1,1.4722485305930926,0,5,0,5,0,0,6,6,5,,,,,,,,,,,,,,,,,,,,,200002,002,2023-03-16_15h36.44.972,DMS_BEST_eyetracking_DAN_base_12-36_looped_10minWORKING,2022.2.4,None,
50,UNPRED,12,0.7222485305930925,0,images/picture_1.png,images/picture_1.png,0,"[-11.733433509789466, -11.733433509789462]",-11.733433509789464,-11.733433509789462,images/picture_2.png,1,"[11.733433509789462, -11.733433509789466]",11.733433509789462,-11.733433509789464,images/picture_3.png,2,"[11.733433509789464, 11.733433509789462]",11.733433509789464,11.733433509789462,0,1,1,0.7222485305930925,1.7222485305930926,1.2777514694069074,3,1,1.4722485305930926,0,5,0,5,0,0,6,6,5,,,,,,,0.0049121250049211085,343.0084899159847,343.0084899159847,344.0220720409998,344.48877470800653,344.70788750000065,344.70788750000065,344.70788750000065,345.98873879096936,345.98873879096936,345.98873879096936,345.98873879096936,4.02891183301108,346.9887402500026,200002,002,2023-03-16_15h36.44.972,DMS_BEST_eyetracking_DAN_base_12-36_looped_10minWORKING,2022.2.4,None,
49,UNPRED,12,1.0817353307807884,0,images/picture_1.png,images/picture_1.png,0,"[-11.733433509789466, -11.733433509789462]",-11.733433509789464,-11.733433509789462,images/picture_2.png,1,"[-11.733433509789462, 11.733433509789464]",-11.733433509789462,11.733433509789464,images/picture_3.png,2,"[11.733433509789462, -11.733433509789466]",11.733433509789462,-11.733433509789464,0,1,1,1.0817353307807884,2.0817353307807887,0.9182646692192116,3,1,1.8317353307807889,0,5,0,5,0,0,7,7,4,,,,,,,,,,,,,,,,,,,,,200002,002,2023-03-16_15h36.44.972,DMS_BEST_eyetracking_DAN_base_12-36_looped_10minWORKING,2022.2.4,None,
49,UNPRED,12,1.0817353307807884,0,images/picture_1.png,images/picture_1.png,0,"[-11.733433509789466, -11.733433509789462]",-11.733433509789464,-11.733433509789462,images/picture_2.png,1,"[-11.733433509789462, 11.733433509789464]",-11.733433509789462,11.733433509789464,images/picture_3.png,2,"[11.733433509789462, -11.733433509789466]",11.733433509789462,-11.733433509789464,0,1,1,1.0817353307807884,2.0817353307807887,0.9182646692192116,3,1,1.8317353307807889,0,5,0,5,0,0,7,7,4,,,,,,,0.003652416984550655,347.0420523749781,347.0420523749781,348.0549637079821,348.88884616602445,349.10805495799286,349.10805495799286,349.10805495799286,350.0222017079941,350.0414568330161,350.0414568330161,350.0414568330161,4.02985383401392,351.0220805410063,200002,002,2023-03-16_15h36.44.972,DMS_BEST_eyetracking_DAN_base_12-36_looped_10minWORKING,2022.2.4,None,
47,UNPRED,12,1.000635460064692,0,images/picture_1.png,images/picture_1.png,0,"[-11.733433509789466, -11.733433509789462]",-11.733433509789464,-11.733433509789462,images/picture_2.png,1,"[-11.733433509789462, 11.733433509789464]",-11.733433509789462,11.733433509789464,images/picture_3.png,2,"[11.733433509789462, -11.733433509789466]",11.733433509789462,-11.733433509789464,0,1,1,1.000635460064692,2.000635460064692,0.999364539935308,3,1,1.7506354600646918,0,5,0,5,0,0,8,8,2,,,,,,,,,,,,,,,,,,,,,200002,002,2023-03-16_15h36.44.972,DMS_BEST_eyetracking_DAN_base_12-36_looped_10minWORKING,2022.2.4,None,
47,UNPRED,12,1.000635460064692,0,images/picture_1.png,images/picture_1.png,0,"[-11.733433509789466, -11.733433509789462]",-11.733433509789464,-11.733433509789462,images/picture_2.png,1,"[-11.733433509789462, 11.733433509789464]",-11.733433509789462,11.733433509789464,images/picture_3.png,2,"[11.733433509789462, -11.733433509789466]",11.733433509789462,-11.733433509789464,0,1,1,1.000635460064692,2.000635460064692,0.999364539935308,3,1,1.7506354600646918,0,5,0,5,0,0,8,8,2,,,,,,,0.0034779999987222254,351.07486891601,351.07486891601,352.0886183750117,352.8221343749901,353.055257082975,353.055257082975,353.055257082975,354.0555268750177,354.0555268750177,354.0555268750177,354.0555268750177,4.02920124999946,355.0553212079685,200002,002,2023-03-16_15h36.44.972,DMS_BEST_eyetracking_DAN_base_12-36_looped_10minWORKING,2022.2.4,None,
,,,,,,,,,,,,,,,,,,,,,,,,,,,,,,,5,0,5,0,,,,,,,,,355.2331096249982,367.2572637500125,,,,,,,,,,,,,,,200002,002,2023-03-16_15h36.44.972,DMS_BEST_eyetracking_DAN_base_12-36_looped_10minWORKING,2022.2.4,None,
58,PRED,12,1.1326081585207572,0,images/picture_1.png,images/picture_1.png,0,"[11.733433509789464, 11.733433509789462]",11.733433509789464,11.733433509789462,images/picture_2.png,1,"[-11.733433509789462, 11.733433509789464]",-11.733433509789462,11.733433509789464,images/picture_3.png,2,"[11.733433509789462, -11.733433509789466]",11.733433509789462,-11.733433509789464,0,1,1,1.1326081585207572,2.132608158520757,0.8673918414792428,3,1,1.8826081585207568,0,6,0,6,0,0,0,0,4,,,,,,,,,,,,,,,,,,,,,200002,002,2023-03-16_15h36.44.972,DMS_BEST_eyetracking_DAN_base_12-36_looped_10minWORKING,2022.2.4,None,
58,PRED,12,1.1326081585207572,0,images/picture_1.png,images/picture_1.png,0,"[11.733433509789464, 11.733433509789462]",11.733433509789464,11.733433509789462,images/picture_2.png,1,"[-11.733433509789462, 11.733433509789464]",-11.733433509789462,11.733433509789464,images/picture_3.png,2,"[11.733433509789462, -11.733433509789466]",11.733433509789462,-11.733433509789464,0,1,1,1.1326081585207572,2.132608158520757,0.8673918414792428,3,1,1.8826081585207568,0,6,0,6,0,0,0,0,4,,,,,,,0.0029440000071190298,367.2572637500125,367.2572637500125,368.2551624579937,369.14151395799126,369.3885813750094,369.3885813750094,369.3885813750094,370.25554058299167,370.25554058299167,370.25554058299167,370.25554058299167,3.995218499971088,371.2753459580126,200002,002,2023-03-16_15h36.44.972,DMS_BEST_eyetracking_DAN_base_12-36_looped_10minWORKING,2022.2.4,None,
62,PRED,12,1.080699011923504,0,images/picture_1.png,images/picture_1.png,0,"[11.733433509789464, 11.733433509789462]",11.733433509789464,11.733433509789462,images/picture_2.png,1,"[-11.733433509789466, -11.733433509789462]",-11.733433509789464,-11.733433509789462,images/picture_3.png,2,"[11.733433509789462, -11.733433509789466]",11.733433509789462,-11.733433509789464,0,1,1,1.080699011923504,2.080699011923504,0.919300988076496,3,1,1.8306990119235043,0,6,0,6,0,0,1,1,8,,,,,,,,,,,,,,,,,,,,,200002,002,2023-03-16_15h36.44.972,DMS_BEST_eyetracking_DAN_base_12-36_looped_10minWORKING,2022.2.4,None,
62,PRED,12,1.080699011923504,0,images/picture_1.png,images/picture_1.png,0,"[11.733433509789464, 11.733433509789462]",11.733433509789464,11.733433509789462,images/picture_2.png,1,"[-11.733433509789466, -11.733433509789462]",-11.733433509789464,-11.733433509789462,images/picture_3.png,2,"[11.733433509789462, -11.733433509789466]",11.733433509789462,-11.733433509789464,0,1,1,1.080699011923504,2.080699011923504,0.919300988076496,3,1,1.8306990119235043,0,6,0,6,0,0,1,1,8,,,,,,,0.0034960000193677843,371.2753459580126,371.2753459580126,372.2888504160219,373.10838991601486,373.34152762498707,373.34152762498707,373.34152762498707,374.2552993330173,374.2746668329928,374.2746668329928,374.2746668329928,4.029584166011773,375.25526262499625,200002,002,2023-03-16_15h36.44.972,DMS_BEST_eyetracking_DAN_base_12-36_looped_10minWORKING,2022.2.4,None,
59,PRED,12,0.7435789865397335,0,images/picture_1.png,images/picture_1.png,0,"[-11.733433509789466, -11.733433509789462]",-11.733433509789464,-11.733433509789462,images/picture_2.png,1,"[11.733433509789464, 11.733433509789462]",11.733433509789464,11.733433509789462,images/picture_3.png,2,"[11.733433509789462, -11.733433509789466]",11.733433509789462,-11.733433509789464,0,1,1,0.7435789865397335,1.7435789865397335,1.2564210134602665,3,1,1.4935789865397335,0,6,0,6,0,0,2,2,5,,,,,,,,,,,,,,,,,,,,,200002,002,2023-03-16_15h36.44.972,DMS_BEST_eyetracking_DAN_base_12-36_looped_10minWORKING,2022.2.4,None,
59,PRED,12,0.7435789865397335,0,images/picture_1.png,images/picture_1.png,0,"[-11.733433509789466, -11.733433509789462]",-11.733433509789464,-11.733433509789462,images/picture_2.png,1,"[11.733433509789464, 11.733433509789462]",11.733433509789464,11.733433509789462,images/picture_3.png,2,"[11.733433509789462, -11.733433509789466]",11.733433509789462,-11.733433509789464,0,1,1,0.7435789865397335,1.7435789865397335,1.2564210134602665,3,1,1.4935789865397335,0,6,0,6,0,0,2,2,5,,,,,,,0.0035347079974599183,375.2893871659762,375.2893871659762,376.28863366600126,376.789005041006,377.0213199579739,377.0213199579739,377.0213199579739,378.2882397079957,378.2882397079957,378.2882397079957,378.2882397079957,3.996987833001185,379.2896872499841,200002,002,2023-03-16_15h36.44.972,DMS_BEST_eyetracking_DAN_base_12-36_looped_10minWORKING,2022.2.4,None,
60,PRED,12,0.8821428084187211,0,images/picture_1.png,images/picture_1.png,0,"[-11.733433509789462, 11.733433509789464]",-11.733433509789462,11.733433509789464,images/picture_2.png,1,"[11.733433509789462, -11.733433509789466]",11.733433509789462,-11.733433509789464,images/picture_3.png,2,"[11.733433509789464, 11.733433509789462]",11.733433509789464,11.733433509789462,0,1,1,0.8821428084187211,1.882142808418721,1.117857191581279,3,1,1.632142808418721,0,6,0,6,0,0,3,3,6,,,,,,,,,,,,,,,,,,,,,200002,002,2023-03-16_15h36.44.972,DMS_BEST_eyetracking_DAN_base_12-36_looped_10minWORKING,2022.2.4,None,
60,PRED,12,0.8821428084187211,0,images/picture_1.png,images/picture_1.png,0,"[-11.733433509789462, 11.733433509789464]",-11.733433509789462,11.733433509789464,images/picture_2.png,1,"[11.733433509789462, -11.733433509789466]",11.733433509789462,-11.733433509789464,images/picture_3.png,2,"[11.733433509789464, 11.733433509789462]",11.733433509789464,11.733433509789462,0,1,1,0.8821428084187211,1.882142808418721,1.117857191581279,3,1,1.632142808418721,0,6,0,6,0,0,3,3,6,,,,,,,0.003665041003841907,379.2896872499841,379.2896872499841,380.28860558301676,380.92200887500076,381.1748992910143,381.1748992910143,381.1748992910143,382.28854770801263,382.3079937499715,382.3079937499715,382.3079937499715,3.996885749977082,383.289813624986,200002,002,2023-03-16_15h36.44.972,DMS_BEST_eyetracking_DAN_base_12-36_looped_10minWORKING,2022.2.4,None,
55,PRED,12,0.9947857192369016,0,images/picture_1.png,images/picture_1.png,0,"[-11.733433509789462, 11.733433509789464]",-11.733433509789462,11.733433509789464,images/picture_2.png,1,"[11.733433509789462, -11.733433509789466]",11.733433509789462,-11.733433509789464,images/picture_3.png,2,"[-11.733433509789466, -11.733433509789462]",-11.733433509789464,-11.733433509789462,0,1,1,0.9947857192369016,1.9947857192369016,1.0052142807630984,3,1,1.7447857192369016,0,6,0,6,0,0,4,4,1,,,,,,,,,,,,,,,,,,,,,200002,002,2023-03-16_15h36.44.972,DMS_BEST_eyetracking_DAN_base_12-36_looped_10minWORKING,2022.2.4,None,
55,PRED,12,0.9947857192369016,0,images/picture_1.png,images/picture_1.png,0,"[-11.733433509789462, 11.733433509789464]",-11.733433509789462,11.733433509789464,images/picture_2.png,1,"[11.733433509789462, -11.733433509789466]",11.733433509789462,-11.733433509789464,images/picture_3.png,2,"[-11.733433509789466, -11.733433509789462]",-11.733433509789464,-11.733433509789462,0,1,1,0.9947857192369016,1.9947857192369016,1.0052142807630984,3,1,1.7447857192369016,0,6,0,6,0,0,4,4,1,,,,,,,0.0036623330088332295,383.289813624986,383.289813624986,384.2886917499709,385.04111074999673,385.2747838330106,385.2747838330106,385.2747838330106,386.2888291249983,386.2888291249983,386.2888291249983,386.2888291249983,3.996634000039194,387.30798295798013,200002,002,2023-03-16_15h36.44.972,DMS_BEST_eyetracking_DAN_base_12-36_looped_10minWORKING,2022.2.4,None,
57,PRED,12,1.0637909730905268,0,images/picture_1.png,images/picture_1.png,0,"[-11.733433509789462, 11.733433509789464]",-11.733433509789462,11.733433509789464,images/picture_2.png,1,"[11.733433509789464, 11.733433509789462]",11.733433509789464,11.733433509789462,images/picture_3.png,2,"[11.733433509789462, -11.733433509789466]",11.733433509789462,-11.733433509789464,0,1,1,1.0637909730905268,2.063790973090527,0.9362090269094732,3,1,1.8137909730905268,0,6,0,6,0,0,5,5,3,,,,,,,,,,,,,,,,,,,,,200002,002,2023-03-16_15h36.44.972,DMS_BEST_eyetracking_DAN_base_12-36_looped_10minWORKING,2022.2.4,None,
57,PRED,12,1.0637909730905268,0,images/picture_1.png,images/picture_1.png,0,"[-11.733433509789462, 11.733433509789464]",-11.733433509789462,11.733433509789464,images/picture_2.png,1,"[11.733433509789464, 11.733433509789462]",11.733433509789464,11.733433509789462,images/picture_3.png,2,"[11.733433509789462, -11.733433509789466]",11.733433509789462,-11.733433509789464,0,1,1,1.0637909730905268,2.063790973090527,0.9362090269094732,3,1,1.8137909730905268,0,6,0,6,0,0,5,5,3,,,,,,,0.0036153330001980066,387.30798295798013,387.30798295798013,388.32158037502086,389.1217448330135,389.355155874975,389.355155874975,389.355155874975,390.28855912497966,390.28855912497966,390.28855912497966,390.28855912497966,4.02962133300025,391.28873791598016,200002,002,2023-03-16_15h36.44.972,DMS_BEST_eyetracking_DAN_base_12-36_looped_10minWORKING,2022.2.4,None,
56,PRED,12,1.146505488702505,0,images/picture_1.png,images/picture_1.png,0,"[-11.733433509789466, -11.733433509789462]",-11.733433509789464,-11.733433509789462,images/picture_2.png,1,"[-11.733433509789462, 11.733433509789464]",-11.733433509789462,11.733433509789464,images/picture_3.png,2,"[11.733433509789462, -11.733433509789466]",11.733433509789462,-11.733433509789464,0,1,1,1.146505488702505,2.146505488702505,0.8534945112974951,3,1,1.896505488702505,0,6,0,6,0,0,6,6,2,,,,,,,,,,,,,,,,,,,,,200002,002,2023-03-16_15h36.44.972,DMS_BEST_eyetracking_DAN_base_12-36_looped_10minWORKING,2022.2.4,None,
56,PRED,12,1.146505488702505,0,images/picture_1.png,images/picture_1.png,0,"[-11.733433509789466, -11.733433509789462]",-11.733433509789464,-11.733433509789462,images/picture_2.png,1,"[-11.733433509789462, 11.733433509789464]",-11.733433509789462,11.733433509789464,images/picture_3.png,2,"[11.733433509789462, -11.733433509789466]",11.733433509789462,-11.733433509789464,0,1,1,1.146505488702505,2.146505488702505,0.8534945112974951,3,1,1.896505488702505,0,6,0,6,0,0,6,6,2,,,,,,,0.0035781250335276127,391.323089374986,391.323089374986,392.32205329102,393.22199275001185,393.45523454097565,393.45523454097565,393.45523454097565,394.3219965409953,394.3219965409953,394.3219965409953,394.3219965409953,3.9968936250079423,395.3414324580226,200002,002,2023-03-16_15h36.44.972,DMS_BEST_eyetracking_DAN_base_12-36_looped_10minWORKING,2022.2.4,None,
54,PRED,12,1.049021424944828,0,images/picture_1.png,images/picture_1.png,0,"[-11.733433509789466, -11.733433509789462]",-11.733433509789464,-11.733433509789462,images/picture_2.png,1,"[-11.733433509789462, 11.733433509789464]",-11.733433509789462,11.733433509789464,images/picture_3.png,2,"[11.733433509789464, 11.733433509789462]",11.733433509789464,11.733433509789462,0,1,1,1.049021424944828,2.049021424944828,0.950978575055172,3,1,1.7990214249448282,0,6,0,6,0,0,7,7,0,,,,,,,,,,,,,,,,,,,,,200002,002,2023-03-16_15h36.44.972,DMS_BEST_eyetracking_DAN_base_12-36_looped_10minWORKING,2022.2.4,None,
54,PRED,12,1.049021424944828,0,images/picture_1.png,images/picture_1.png,0,"[-11.733433509789466, -11.733433509789462]",-11.733433509789464,-11.733433509789462,images/picture_2.png,1,"[-11.733433509789462, 11.733433509789464]",-11.733433509789462,11.733433509789464,images/picture_3.png,2,"[11.733433509789464, 11.733433509789462]",11.733433509789464,11.733433509789462,0,1,1,1.049021424944828,2.049021424944828,0.950978575055172,3,1,1.7990214249448282,0,6,0,6,0,0,7,7,0,,,,,,,0.0035557079827412963,395.3414324580226,395.3414324580226,396.35529300000053,397.1553433329682,397.37482920801267,397.37482920801267,397.37482920801267,398.32160212501185,398.3421511659981,398.3421511659981,398.3421511659981,4.0292761659948155,399.32183679100126,200002,002,2023-03-16_15h36.44.972,DMS_BEST_eyetracking_DAN_base_12-36_looped_10minWORKING,2022.2.4,None,
61,PRED,12,0.7421744126469215,0,images/picture_1.png,images/picture_1.png,0,"[-11.733433509789466, -11.733433509789462]",-11.733433509789464,-11.733433509789462,images/picture_2.png,1,"[-11.733433509789462, 11.733433509789464]",-11.733433509789462,11.733433509789464,images/picture_3.png,2,"[11.733433509789464, 11.733433509789462]",11.733433509789464,11.733433509789462,0,1,1,0.7421744126469215,1.7421744126469214,1.2578255873530786,3,1,1.4921744126469214,0,6,0,6,0,0,8,8,7,,,,,,,,,,,,,,,,,,,,,200002,002,2023-03-16_15h36.44.972,DMS_BEST_eyetracking_DAN_base_12-36_looped_10minWORKING,2022.2.4,None,
61,PRED,12,0.7421744126469215,0,images/picture_1.png,images/picture_1.png,0,"[-11.733433509789466, -11.733433509789462]",-11.733433509789464,-11.733433509789462,images/picture_2.png,1,"[-11.733433509789462, 11.733433509789464]",-11.733433509789462,11.733433509789464,images/picture_3.png,2,"[11.733433509789464, 11.733433509789462]",11.733433509789464,11.733433509789462,0,1,1,0.7421744126469215,1.7421744126469214,1.2578255873530786,3,1,1.4921744126469214,0,6,0,6,0,0,8,8,7,,,,,,,0.0035982090048491955,399.37399862497114,399.37399862497114,400.38852974999463,400.874828791013,401.0883400409948,401.0883400409948,401.0883400409948,402.3553482500138,402.3553482500138,402.3553482500138,402.3553482500138,4.029030042001978,403.3553631660179,200002,002,2023-03-16_15h36.44.972,DMS_BEST_eyetracking_DAN_base_12-36_looped_10minWORKING,2022.2.4,None,
,,,,,,,,,,,,,,,,,,,,,,,,,,,,,,,6,0,6,0,,,,,,,,,403.47904800000833,415.51253391598584,,,,,,,,,,,,,,,200002,002,2023-03-16_15h36.44.972,DMS_BEST_eyetracking_DAN_base_12-36_looped_10minWORKING,2022.2.4,None,
63,UNPRED,12,0.8393639705156701,1,images/picture_2.png,images/picture_1.png,0,"[11.733433509789462, -11.733433509789466]",11.733433509789462,-11.733433509789464,images/picture_2.png,1,"[-11.733433509789462, 11.733433509789464]",-11.733433509789462,11.733433509789464,images/picture_3.png,2,"[11.733433509789464, 11.733433509789462]",11.733433509789464,11.733433509789462,0,1,1,0.8393639705156701,1.83936397051567,1.16063602948433,3,1,1.58936397051567,0,7,0,7,0,0,0,0,0,,,,,,,,,,,,,,,,,,,,,200002,002,2023-03-16_15h36.44.972,DMS_BEST_eyetracking_DAN_base_12-36_looped_10minWORKING,2022.2.4,None,
63,UNPRED,12,0.8393639705156701,1,images/picture_2.png,images/picture_1.png,0,"[11.733433509789462, -11.733433509789466]",11.733433509789462,-11.733433509789464,images/picture_2.png,1,"[-11.733433509789462, 11.733433509789464]",-11.733433509789462,11.733433509789464,images/picture_3.png,2,"[11.733433509789464, 11.733433509789462]",11.733433509789464,11.733433509789462,0,1,1,0.8393639705156701,1.83936397051567,1.16063602948433,3,1,1.58936397051567,0,7,0,7,0,0,0,0,0,,,,,,,0.005224292050115764,415.51253391598584,415.51253391598584,416.52197333297227,417.10800412500976,417.3416614580201,417.3416614580201,417.3416614580201,418.50854395801434,418.50854395801434,418.50854395801434,418.50854395801434,4.007849000045098,419.5230932079721,200002,002,2023-03-16_15h36.44.972,DMS_BEST_eyetracking_DAN_base_12-36_looped_10minWORKING,2022.2.4,None,
71,UNPRED,12,1.1927906219560047,0,images/picture_1.png,images/picture_1.png,0,"[-11.733433509789466, -11.733433509789462]",-11.733433509789464,-11.733433509789462,images/picture_2.png,1,"[11.733433509789464, 11.733433509789462]",11.733433509789464,11.733433509789462,images/picture_3.png,2,"[-11.733433509789462, 11.733433509789464]",-11.733433509789462,11.733433509789464,0,1,1,1.1927906219560047,2.1927906219560045,0.8072093780439953,3,1,1.9427906219560045,0,7,0,7,0,0,1,1,8,,,,,,,,,,,,,,,,,,,,,200002,002,2023-03-16_15h36.44.972,DMS_BEST_eyetracking_DAN_base_12-36_looped_10minWORKING,2022.2.4,None,
71,UNPRED,12,1.1927906219560047,0,images/picture_1.png,images/picture_1.png,0,"[-11.733433509789466, -11.733433509789462]",-11.733433509789464,-11.733433509789462,images/picture_2.png,1,"[11.733433509789464, 11.733433509789462]",11.733433509789464,11.733433509789462,images/picture_3.png,2,"[-11.733433509789462, 11.733433509789464]",-11.733433509789462,11.733433509789464,0,1,1,1.1927906219560047,2.1927906219560045,0.8072093780439953,3,1,1.9427906219560045,0,7,0,7,0,0,1,1,8,,,,,,,0.0033939999993890524,419.5230932079721,419.5230932079721,420.52205987501657,421.47493870800827,421.70818137499737,421.70818137499737,421.70818137499737,422.52216583298286,422.52216583298286,422.52216583298286,422.52216583298286,3.995632292004302,423.54151737497887,200002,002,2023-03-16_15h36.44.972,DMS_BEST_eyetracking_DAN_base_12-36_looped_10minWORKING,2022.2.4,None,
70,UNPRED,12,0.8320285146524078,2,images/picture_3.png,images/picture_1.png,0,"[11.733433509789462, -11.733433509789466]",11.733433509789462,-11.733433509789464,images/picture_2.png,1,"[-11.733433509789462, 11.733433509789464]",-11.733433509789462,11.733433509789464,images/picture_3.png,2,"[-11.733433509789466, -11.733433509789462]",-11.733433509789464,-11.733433509789462,0,1,1,0.8320285146524078,1.832028514652408,1.1679714853475922,3,1,1.5820285146524078,0,7,0,7,0,0,2,2,7,,,,,,,,,,,,,,,,,,,,,200002,002,2023-03-16_15h36.44.972,DMS_BEST_eyetracking_DAN_base_12-36_looped_10minWORKING,2022.2.4,None,
70,UNPRED,12,0.8320285146524078,2,images/picture_3.png,images/picture_1.png,0,"[11.733433509789462, -11.733433509789466]",11.733433509789462,-11.733433509789464,images/picture_2.png,1,"[-11.733433509789462, 11.733433509789464]",-11.733433509789462,11.733433509789464,images/picture_3.png,2,"[-11.733433509789466, -11.733433509789462]",-11.733433509789464,-11.733433509789462,0,1,1,0.8320285146524078,1.832028514652408,1.1679714853475922,3,1,1.5820285146524078,0,7,0,7,0,0,2,2,7,,,,,,,0.005663083982653916,423.54151737497887,423.54151737497887,424.5552401249879,425.1220487499959,425.35513999999966,425.35513999999966,425.35513999999966,426.52205212501576,426.52205212501576,426.52205212501576,426.52205212501576,4.030062542005908,427.5220452499925,200002,002,2023-03-16_15h36.44.972,DMS_BEST_eyetracking_DAN_base_12-36_looped_10minWORKING,2022.2.4,None,
68,UNPRED,12,0.5639581656095795,1,images/picture_2.png,images/picture_1.png,0,"[11.733433509789464, 11.733433509789462]",11.733433509789464,11.733433509789462,images/picture_2.png,1,"[11.733433509789462, -11.733433509789466]",11.733433509789462,-11.733433509789464,images/picture_3.png,2,"[-11.733433509789462, 11.733433509789464]",-11.733433509789462,11.733433509789464,0,1,1,0.5639581656095795,1.5639581656095791,1.4360418343904209,3,1,1.3139581656095791,0,7,0,7,0,0,3,3,5,,,,,,,,,,,,,,,,,,,,,200002,002,2023-03-16_15h36.44.972,DMS_BEST_eyetracking_DAN_base_12-36_looped_10minWORKING,2022.2.4,None,
68,UNPRED,12,0.5639581656095795,1,images/picture_2.png,images/picture_1.png,0,"[11.733433509789464, 11.733433509789462]",11.733433509789464,11.733433509789462,images/picture_2.png,1,"[11.733433509789462, -11.733433509789466]",11.733433509789462,-11.733433509789464,images/picture_3.png,2,"[-11.733433509789462, 11.733433509789464]",-11.733433509789462,11.733433509789464,0,1,1,0.5639581656095795,1.5639581656095791,1.4360418343904209,3,1,1.3139581656095791,0,7,0,7,0,0,3,3,5,,,,,,,0.00497712503420189,427.5748664580169,427.5748664580169,428.58853837498464,428.88837208301993,429.1214978750213,429.1214978750213,429.1214978750213,430.55526904098224,430.55526904098224,430.55526904098224,430.55526904098224,4.029407249996439,431.5553223330062,200002,002,2023-03-16_15h36.44.972,DMS_BEST_eyetracking_DAN_base_12-36_looped_10minWORKING,2022.2.4,None,
