trial_count,blockType,blockNum,delay_time,stimImage_i,stimImage,responseImage1,responseImage1_i,responseImage1_pos,responseImage1_X,responseImage1_Y,responseImage2,responseImage2_i,responseImage2_pos,responseImage2_X,responseImage2_Y,responseImage3,responseImage3_i,responseImage3_pos,responseImage3_X,responseImage3_Y,cue_onset,cue_dur,delay_onset,delay_dur,resp_onset,resp_dur,rest_onset,rest_dur,circle_dur,circle_onset,total_dur,cross_onset,cross_dur,delay_resp_period,blocks.thisRepN,blocks.thisTrialN,blocks.thisN,blocks.thisIndex,trials.thisRepN,trials.thisTrialN,trials.thisN,trials.thisIndex,key_resp.started,text.started,key_resp.keys,key_resp.rt,text_2.started,text_2.stopped,sample.started,Delay.started,sample.stopped,Delay.stopped,Response_1.started,Response_2.started,Response_3.started,Response_1.stopped,Response_2.stopped,Response_3.stopped,polygon.started,polygon.stopped,participant,session,date,expName,psychopyVersion,frameRate,
,,,,,,,,,,,,,,,,,,,,,,,,,,,,,,,,,,,,,,,,,,,61.78616266697645,61.78616266697645,t,68.03738579200581,,,,,,,,,,,,,,,200005,001,2023-04-04_10h42.43.735,DMS_et_12-36,2022.2.4,None,
0,PRED,12,1.0031378749430149,1,images/picture_2.png,images/picture_1.png,0,"[11.733433509789464, 11.733433509789462]",11.733433509789464,11.733433509789462,images/picture_2.png,1,"[-11.733433509789462, 11.733433509789464]",-11.733433509789462,11.733433509789464,images/picture_3.png,2,"[11.733433509789462, -11.733433509789466]",11.733433509789462,-11.733433509789464,0,1,1,1.0031378749430149,2.003137874943015,0.9968621250569848,3.0,1,1.7531378749430149,0,4.0,3.0,1,2,0,0,0,0,0,0,0,0,,,,,130.34310291707516,142.38307737512514,142.38307737512514,142.38307737512514,143.38290737499483,144.14975012512878,144.38300437503494,144.38300437503494,144.38300437503494,145.38383629196323,145.38383629196323,145.38383629196323,145.38383629196323,146.3826815839857,200005,001,2023-04-04_10h42.43.735,DMS_et_12-36,2022.2.4,None,
8,PRED,12,1.0031378749430149,1,images/picture_2.png,images/picture_1.png,0,"[11.733433509789464, 11.733433509789462]",11.733433509789464,11.733433509789462,images/picture_2.png,1,"[-11.733433509789466, -11.733433509789462]",-11.733433509789464,-11.733433509789462,images/picture_3.png,2,"[11.733433509789462, -11.733433509789466]",11.733433509789462,-11.733433509789464,0,1,1,1.0031378749430149,2.003137874943015,0.9968621250569848,3.0,1,1.7531378749430149,0,4.0,3.0,1,2,0,0,0,0,0,1,1,8,,,,,,,146.3826815839857,146.3826815839857,147.38311316701584,148.14965208410285,148.38312666700222,148.38312666700222,148.38312666700222,149.38314070901833,149.38314070901833,149.38314070901833,149.38314070901833,150.38303016708232,200005,001,2023-04-04_10h42.43.735,DMS_et_12-36,2022.2.4,None,
4,PRED,12,1.0031378749430149,1,images/picture_2.png,images/picture_1.png,0,"[11.733433509789462, -11.733433509789466]",11.733433509789462,-11.733433509789464,images/picture_2.png,1,"[-11.733433509789466, -11.733433509789462]",-11.733433509789464,-11.733433509789462,images/picture_3.png,2,"[-11.733433509789462, 11.733433509789464]",-11.733433509789462,11.733433509789464,0,1,1,1.0031378749430149,2.003137874943015,0.9968621250569848,3.0,1,1.7531378749430149,0,4.0,3.0,1,2,0,0,0,0,0,2,2,4,,,,,,,150.38303016708232,150.38303016708232,151.38299712492153,152.14948383392766,152.38293275004253,152.38293275004253,152.38293275004253,153.38325516693294,153.38325516693294,153.38325516693294,153.38325516693294,154.3827503749635,200005,001,2023-04-04_10h42.43.735,DMS_et_12-36,2022.2.4,None,
2,PRED,12,1.0031378749430149,1,images/picture_2.png,images/picture_1.png,0,"[-11.733433509789466, -11.733433509789462]",-11.733433509789464,-11.733433509789462,images/picture_2.png,1,"[11.733433509789462, -11.733433509789466]",11.733433509789462,-11.733433509789464,images/picture_3.png,2,"[11.733433509789464, 11.733433509789462]",11.733433509789464,11.733433509789462,0,1,1,1.0031378749430149,2.003137874943015,0.9968621250569848,3.0,1,1.7531378749430149,0,4.0,3.0,1,2,0,0,0,0,0,3,3,2,,,,,,,154.3827503749635,154.3827503749635,155.3831573340576,156.14968237513676,156.38312820903957,156.38312820903957,156.38312820903957,157.38311516703106,157.38311516703106,157.38311516703106,157.38311516703106,158.3829681670759,200005,001,2023-04-04_10h42.43.735,DMS_et_12-36,2022.2.4,None,
5,PRED,12,1.0031378749430149,1,images/picture_2.png,images/picture_1.png,0,"[11.733433509789464, 11.733433509789462]",11.733433509789464,11.733433509789462,images/picture_2.png,1,"[-11.733433509789466, -11.733433509789462]",-11.733433509789464,-11.733433509789462,images/picture_3.png,2,"[-11.733433509789462, 11.733433509789464]",-11.733433509789462,11.733433509789464,0,1,1,1.0031378749430149,2.003137874943015,0.9968621250569848,3.0,1,1.7531378749430149,0,4.0,3.0,1,2,0,0,0,0,0,4,4,5,,,,,,,158.3829681670759,158.3829681670759,159.38314312510192,160.1498609171249,160.38314466713928,160.38314466713928,160.38314466713928,161.3828722089529,161.3828722089529,161.3828722089529,161.3828722089529,162.38279854203574,200005,001,2023-04-04_10h42.43.735,DMS_et_12-36,2022.2.4,None,
7,PRED,12,1.0031378749430149,1,images/picture_2.png,images/picture_1.png,0,"[-11.733433509789462, 11.733433509789464]",-11.733433509789462,11.733433509789464,images/picture_2.png,1,"[11.733433509789462, -11.733433509789466]",11.733433509789462,-11.733433509789464,images/picture_3.png,2,"[-11.733433509789466, -11.733433509789462]",-11.733433509789464,-11.733433509789462,0,1,1,1.0031378749430149,2.003137874943015,0.9968621250569848,3.0,1,1.7531378749430149,0,4.0,3.0,1,2,0,0,0,0,0,5,5,7,,,,,,,162.38279854203574,162.38279854203574,163.3832316249609,164.1497494590003,164.38312229211442,164.38312229211442,164.38312229211442,165.3831581249833,165.3831581249833,165.3831581249833,165.3831581249833,166.38263266696595,200005,001,2023-04-04_10h42.43.735,DMS_et_12-36,2022.2.4,None,
1,PRED,12,1.0031378749430149,1,images/picture_2.png,images/picture_1.png,0,"[-11.733433509789466, -11.733433509789462]",-11.733433509789464,-11.733433509789462,images/picture_2.png,1,"[11.733433509789462, -11.733433509789466]",11.733433509789462,-11.733433509789464,images/picture_3.png,2,"[-11.733433509789462, 11.733433509789464]",-11.733433509789462,11.733433509789464,0,1,1,1.0031378749430149,2.003137874943015,0.9968621250569848,3.0,1,1.7531378749430149,0,4.0,3.0,1,2,0,0,0,0,0,6,6,1,,,,,,,166.38263266696595,166.38263266696595,167.38319374993443,168.1498914170079,168.3832429589238,168.3832429589238,168.3832429589238,169.38320837495849,169.38320837495849,169.38320837495849,169.38320837495849,170.38272895896807,200005,001,2023-04-04_10h42.43.735,DMS_et_12-36,2022.2.4,None,
3,PRED,12,1.0031378749430149,1,images/picture_2.png,images/picture_1.png,0,"[11.733433509789462, -11.733433509789466]",11.733433509789462,-11.733433509789464,images/picture_2.png,1,"[11.733433509789464, 11.733433509789462]",11.733433509789464,11.733433509789462,images/picture_3.png,2,"[-11.733433509789466, -11.733433509789462]",-11.733433509789464,-11.733433509789462,0,1,1,1.0031378749430149,2.003137874943015,0.9968621250569848,3.0,1,1.7531378749430149,0,4.0,3.0,1,2,0,0,0,0,0,7,7,3,,,,,,,170.38272895896807,170.38272895896807,171.3831503749825,172.15139687503688,172.383020499954,172.383020499954,172.383020499954,173.38297437503934,173.38297437503934,173.38297437503934,173.38297437503934,174.3826842920389,200005,001,2023-04-04_10h42.43.735,DMS_et_12-36,2022.2.4,None,
6,PRED,12,1.0031378749430149,1,images/picture_2.png,images/picture_1.png,0,"[11.733433509789462, -11.733433509789466]",11.733433509789462,-11.733433509789464,images/picture_2.png,1,"[11.733433509789464, 11.733433509789462]",11.733433509789464,11.733433509789462,images/picture_3.png,2,"[-11.733433509789462, 11.733433509789464]",-11.733433509789462,11.733433509789464,0,1,1,1.0031378749430149,2.003137874943015,0.9968621250569848,3.0,1,1.7531378749430149,0,4.0,3.0,1,2,0,0,0,0,0,8,8,6,,,,,,,174.3826842920389,174.3826842920389,175.38315329211764,176.14992687501945,176.3832580000162,176.3832580000162,176.3832580000162,177.38323004194535,177.38323004194535,177.38323004194535,177.38323004194535,178.40679187513888,200005,001,2023-04-04_10h42.43.735,DMS_et_12-36,2022.2.4,None,
,,,,,,,,,,,,,,,,,,,,,,,,,,,,,,,,,,,0,0,0,0,,,,,,,,,178.40679187513888,190.444558667019,,,,,,,,,,,,,200005,001,2023-04-04_10h42.43.735,DMS_et_12-36,2022.2.4,None,
11,UNPRED,12,1.0031378749430149,2,images/picture_3.png,images/picture_1.png,0,"[11.733433509789464, 11.733433509789462]",11.733433509789464,11.733433509789462,images/picture_2.png,1,"[-11.733433509789466, -11.733433509789462]",-11.733433509789464,-11.733433509789462,images/picture_3.png,2,"[11.733433509789462, -11.733433509789466]",11.733433509789462,-11.733433509789464,0,1,1,1.0031378749430149,2.003137874943015,0.9968621250569848,3.0,1,1.7531378749430149,0,4.0,3.0,1,2,1,0,1,0,0,0,0,2,,,,,,,190.444558667019,190.444558667019,191.44995254208334,192.20282208407298,192.43659179192036,192.43659179192036,192.43659179192036,193.43524249992333,193.43524249992333,193.43524249992333,193.43524249992333,194.44994362513535,200005,001,2023-04-04_10h42.43.735,DMS_et_12-36,2022.2.4,None,
14,UNPRED,12,1.0031378749430149,0,images/picture_1.png,images/picture_1.png,0,"[11.733433509789464, 11.733433509789462]",11.733433509789464,11.733433509789462,images/picture_2.png,1,"[-11.733433509789462, 11.733433509789464]",-11.733433509789462,11.733433509789464,images/picture_3.png,2,"[-11.733433509789466, -11.733433509789462]",-11.733433509789464,-11.733433509789462,0,1,1,1.0031378749430149,2.003137874943015,0.9968621250569848,3.0,1,1.7531378749430149,0,4.0,3.0,1,2,1,0,1,0,0,1,1,5,,,,,,,194.44994362513535,194.44994362513535,195.44994004210457,196.21631904202513,196.44993224996142,196.44993224996142,196.44993224996142,197.44988633412868,197.44988633412868,197.44988633412868,197.44988633412868,198.44977020914666,200005,001,2023-04-04_10h42.43.735,DMS_et_12-36,2022.2.4,None,
13,UNPRED,12,1.0031378749430149,0,images/picture_1.png,images/picture_1.png,0,"[11.733433509789462, -11.733433509789466]",11.733433509789462,-11.733433509789464,images/picture_2.png,1,"[11.733433509789464, 11.733433509789462]",11.733433509789464,11.733433509789462,images/picture_3.png,2,"[-11.733433509789462, 11.733433509789464]",-11.733433509789462,11.733433509789464,0,1,1,1.0031378749430149,2.003137874943015,0.9968621250569848,3.0,1,1.7531378749430149,0,4.0,3.0,1,2,1,0,1,0,0,2,2,4,,,,,,,198.44977020914666,198.44977020914666,199.44990179198794,200.2167707090266,200.44994270894676,200.44994270894676,200.44994270894676,201.4499116251245,201.4499116251245,201.4499116251245,201.4499116251245,202.449390667025,200005,001,2023-04-04_10h42.43.735,DMS_et_12-36,2022.2.4,None,
17,UNPRED,12,1.0031378749430149,0,images/picture_1.png,images/picture_1.png,0,"[11.733433509789464, 11.733433509789462]",11.733433509789464,11.733433509789462,images/picture_2.png,1,"[11.733433509789462, -11.733433509789466]",11.733433509789462,-11.733433509789464,images/picture_3.png,2,"[-11.733433509789466, -11.733433509789462]",-11.733433509789464,-11.733433509789462,0,1,1,1.0031378749430149,2.003137874943015,0.9968621250569848,3.0,1,1.7531378749430149,0,4.0,3.0,1,2,1,0,1,0,0,3,3,8,,,,,,,202.449390667025,202.449390667025,203.4496661250014,204.21644858410582,204.4499004590325,204.4499004590325,204.4499004590325,205.44993741693906,205.44993741693906,205.44993741693906,205.44993741693906,206.46867795893922,200005,001,2023-04-04_10h42.43.735,DMS_et_12-36,2022.2.4,None,
9,UNPRED,12,1.0031378749430149,2,images/picture_3.png,images/picture_1.png,0,"[11.733433509789462, -11.733433509789466]",11.733433509789462,-11.733433509789464,images/picture_2.png,1,"[-11.733433509789466, -11.733433509789462]",-11.733433509789464,-11.733433509789462,images/picture_3.png,2,"[11.733433509789464, 11.733433509789462]",11.733433509789464,11.733433509789462,0,1,1,1.0031378749430149,2.003137874943015,0.9968621250569848,3.0,1,1.7531378749430149,0,4.0,3.0,1,2,1,0,1,0,0,4,4,0,,,,,,,206.46867795893922,206.46867795893922,207.483559000073,208.23606670903973,208.44994166702963,208.44994166702963,208.44994166702963,209.44992108410224,209.44992108410224,209.44992108410224,209.44992108410224,210.4687770421151,200005,001,2023-04-04_10h42.43.735,DMS_et_12-36,2022.2.4,None,
16,UNPRED,12,1.0031378749430149,2,images/picture_3.png,images/picture_1.png,0,"[-11.733433509789466, -11.733433509789462]",-11.733433509789464,-11.733433509789462,images/picture_2.png,1,"[11.733433509789464, 11.733433509789462]",11.733433509789464,11.733433509789462,images/picture_3.png,2,"[11.733433509789462, -11.733433509789466]",11.733433509789462,-11.733433509789464,0,1,1,1.0031378749430149,2.003137874943015,0.9968621250569848,3.0,1,1.7531378749430149,0,4.0,3.0,1,2,1,0,1,0,0,5,5,7,,,,,,,210.4687770421151,210.4687770421151,211.48313245899044,212.23637991701253,212.44995866692625,212.44995866692625,212.44995866692625,213.44971533399075,213.44971533399075,213.44971533399075,213.44971533399075,214.45053466712125,200005,001,2023-04-04_10h42.43.735,DMS_et_12-36,2022.2.4,None,
10,UNPRED,12,1.0031378749430149,2,images/picture_3.png,images/picture_1.png,0,"[-11.733433509789466, -11.733433509789462]",-11.733433509789464,-11.733433509789462,images/picture_2.png,1,"[11.733433509789464, 11.733433509789462]",11.733433509789464,11.733433509789462,images/picture_3.png,2,"[11.733433509789462, -11.733433509789466]",11.733433509789462,-11.733433509789464,0,1,1,1.0031378749430149,2.003137874943015,0.9968621250569848,3.0,1,1.7531378749430149,0,4.0,3.0,1,2,1,0,1,0,0,6,6,1,,,,,,,214.45053466712125,214.45053466712125,215.45010258397087,216.2166937920265,216.44980491697788,216.44980491697788,216.44980491697788,217.44997791713104,217.44997791713104,217.44997791713104,217.44997791713104,218.4509310000576,200005,001,2023-04-04_10h42.43.735,DMS_et_12-36,2022.2.4,None,
12,UNPRED,12,1.0031378749430149,1,images/picture_2.png,images/picture_1.png,0,"[-11.733433509789466, -11.733433509789462]",-11.733433509789464,-11.733433509789462,images/picture_2.png,1,"[11.733433509789462, -11.733433509789466]",11.733433509789462,-11.733433509789464,images/picture_3.png,2,"[-11.733433509789462, 11.733433509789464]",-11.733433509789462,11.733433509789464,0,1,1,1.0031378749430149,2.003137874943015,0.9968621250569848,3.0,1,1.7531378749430149,0,4.0,3.0,1,2,1,0,1,0,0,7,7,3,,,,,,,218.4509310000576,218.4509310000576,219.44994004210457,220.21682066703215,220.44999108393677,220.44999108393677,220.44999108393677,221.45010058395565,221.45010058395565,221.45010058395565,221.45010058395565,222.4686754590366,200005,001,2023-04-04_10h42.43.735,DMS_et_12-36,2022.2.4,None,
15,UNPRED,12,1.0031378749430149,2,images/picture_3.png,images/picture_1.png,0,"[11.733433509789462, -11.733433509789466]",11.733433509789462,-11.733433509789464,images/picture_2.png,1,"[-11.733433509789466, -11.733433509789462]",-11.733433509789464,-11.733433509789462,images/picture_3.png,2,"[-11.733433509789462, 11.733433509789464]",-11.733433509789462,11.733433509789464,0,1,1,1.0031378749430149,2.003137874943015,0.9968621250569848,3.0,1,1.7531378749430149,0,4.0,3.0,1,2,1,0,1,0,0,8,8,6,,,,,,,222.4686754590366,222.4686754590366,223.48344733403064,224.23523912508972,224.44975266698748,224.44975266698748,224.44975266698748,225.45016395905986,225.45016395905986,225.45016395905986,225.45016395905986,226.48461908404715,200005,001,2023-04-04_10h42.43.735,DMS_et_12-36,2022.2.4,None,
,,,,,,,,,,,,,,,,,,,,,,,,,,,,,,,,,,,1,0,1,0,,,,,,,,,226.48461908404715,238.50302041694522,,,,,,,,,,,,,200005,001,2023-04-04_10h42.43.735,DMS_et_12-36,2022.2.4,None,
25,PRED,12,1.0031378749430149,0,images/picture_1.png,images/picture_1.png,0,"[-11.733433509789462, 11.733433509789464]",-11.733433509789462,11.733433509789464,images/picture_2.png,1,"[11.733433509789462, -11.733433509789466]",11.733433509789462,-11.733433509789464,images/picture_3.png,2,"[-11.733433509789466, -11.733433509789462]",-11.733433509789464,-11.733433509789462,0,1,1,1.0031378749430149,2.003137874943015,0.9968621250569848,3.0,1,1.7531378749430149,0,4.0,3.0,1,2,2,0,2,0,0,0,0,7,,,,,,,238.50302041694522,238.50302041694522,239.51699558412656,240.26954174996354,240.5030825000722,240.5030825000722,240.5030825000722,241.5031030420214,241.5031030420214,241.5031030420214,241.5031030420214,242.51625999994576,200005,001,2023-04-04_10h42.43.735,DMS_et_12-36,2022.2.4,None,
22,PRED,12,1.0031378749430149,0,images/picture_1.png,images/picture_1.png,0,"[-11.733433509789466, -11.733433509789462]",-11.733433509789464,-11.733433509789462,images/picture_2.png,1,"[-11.733433509789462, 11.733433509789464]",-11.733433509789462,11.733433509789464,images/picture_3.png,2,"[11.733433509789464, 11.733433509789462]",11.733433509789464,11.733433509789462,0,1,1,1.0031378749430149,2.003137874943015,0.9968621250569848,3.0,1,1.7531378749430149,0,4.0,3.0,1,2,2,0,2,0,0,1,1,4,,,,,,,242.51625999994576,242.51625999994576,243.51688795909286,244.28329545911402,244.516612916952,244.516612916952,244.516612916952,245.516639709007,245.516639709007,245.516639709007,245.516639709007,246.51618895912543,200005,001,2023-04-04_10h42.43.735,DMS_et_12-36,2022.2.4,None,
19,PRED,12,1.0031378749430149,0,images/picture_1.png,images/picture_1.png,0,"[-11.733433509789466, -11.733433509789462]",-11.733433509789464,-11.733433509789462,images/picture_2.png,1,"[-11.733433509789462, 11.733433509789464]",-11.733433509789462,11.733433509789464,images/picture_3.png,2,"[11.733433509789464, 11.733433509789462]",11.733433509789464,11.733433509789462,0,1,1,1.0031378749430149,2.003137874943015,0.9968621250569848,3.0,1,1.7531378749430149,0,4.0,3.0,1,2,2,0,2,0,0,2,2,1,,,,,,,246.51618895912543,246.51618895912543,247.51665925001726,248.2834425419569,248.51672412501648,248.51672412501648,248.51672412501648,249.5168515839614,249.5168515839614,249.5168515839614,249.5168515839614,250.51641295896843,200005,001,2023-04-04_10h42.43.735,DMS_et_12-36,2022.2.4,None,
18,PRED,12,1.0031378749430149,0,images/picture_1.png,images/picture_1.png,0,"[-11.733433509789462, 11.733433509789464]",-11.733433509789462,11.733433509789464,images/picture_2.png,1,"[11.733433509789464, 11.733433509789462]",11.733433509789464,11.733433509789462,images/picture_3.png,2,"[-11.733433509789466, -11.733433509789462]",-11.733433509789464,-11.733433509789462,0,1,1,1.0031378749430149,2.003137874943015,0.9968621250569848,3.0,1,1.7531378749430149,0,4.0,3.0,1,2,2,0,2,0,0,3,3,0,,,,,,,250.51641295896843,250.51641295896843,251.51690829196014,252.28354474995285,252.51684633409604,252.51684633409604,252.51684633409604,253.51670162496157,253.51670162496157,253.51670162496157,253.51670162496157,254.51643504202366,200005,001,2023-04-04_10h42.43.735,DMS_et_12-36,2022.2.4,None,
24,PRED,12,1.0031378749430149,0,images/picture_1.png,images/picture_1.png,0,"[11.733433509789462, -11.733433509789466]",11.733433509789462,-11.733433509789464,images/picture_2.png,1,"[-11.733433509789466, -11.733433509789462]",-11.733433509789464,-11.733433509789462,images/picture_3.png,2,"[11.733433509789464, 11.733433509789462]",11.733433509789464,11.733433509789462,0,1,1,1.0031378749430149,2.003137874943015,0.9968621250569848,3.0,1,1.7531378749430149,0,4.0,3.0,1,2,2,0,2,0,0,4,4,6,,,,,,,254.51643504202366,254.51643504202366,255.51656483393162,256.2836072500795,256.51670758402906,256.51670758402906,256.51670758402906,257.5168784169946,257.5168784169946,257.5168784169946,257.5168784169946,258.51635783398524,200005,001,2023-04-04_10h42.43.735,DMS_et_12-36,2022.2.4,None,
20,PRED,12,1.0031378749430149,0,images/picture_1.png,images/picture_1.png,0,"[11.733433509789464, 11.733433509789462]",11.733433509789464,11.733433509789462,images/picture_2.png,1,"[11.733433509789462, -11.733433509789466]",11.733433509789462,-11.733433509789464,images/picture_3.png,2,"[-11.733433509789462, 11.733433509789464]",-11.733433509789462,11.733433509789464,0,1,1,1.0031378749430149,2.003137874943015,0.9968621250569848,3.0,1,1.7531378749430149,0,4.0,3.0,1,2,2,0,2,0,0,5,5,2,,,,,,,258.51635783398524,258.51635783398524,259.51687491708435,260.28345504193567,260.51685091713443,260.51685091713443,260.51685091713443,261.51688491692767,261.51688491692767,261.51688491692767,261.51688491692767,262.5163020840846,200005,001,2023-04-04_10h42.43.735,DMS_et_12-36,2022.2.4,None,
26,PRED,12,1.0031378749430149,0,images/picture_1.png,images/picture_1.png,0,"[-11.733433509789466, -11.733433509789462]",-11.733433509789464,-11.733433509789462,images/picture_2.png,1,"[-11.733433509789462, 11.733433509789464]",-11.733433509789462,11.733433509789464,images/picture_3.png,2,"[11.733433509789464, 11.733433509789462]",11.733433509789464,11.733433509789462,0,1,1,1.0031378749430149,2.003137874943015,0.9968621250569848,3.0,1,1.7531378749430149,0,4.0,3.0,1,2,2,0,2,0,0,6,6,8,,,,,,,262.5163020840846,262.5163020840846,263.51690950011835,264.28375966707245,264.51685795909725,264.51685795909725,264.51685795909725,265.51679062494077,265.51679062494077,265.51679062494077,265.51679062494077,266.5163352501113,200005,001,2023-04-04_10h42.43.735,DMS_et_12-36,2022.2.4,None,
23,PRED,12,1.0031378749430149,0,images/picture_1.png,images/picture_1.png,0,"[11.733433509789462, -11.733433509789466]",11.733433509789462,-11.733433509789464,images/picture_2.png,1,"[-11.733433509789462, 11.733433509789464]",-11.733433509789462,11.733433509789464,images/picture_3.png,2,"[-11.733433509789466, -11.733433509789462]",-11.733433509789464,-11.733433509789462,0,1,1,1.0031378749430149,2.003137874943015,0.9968621250569848,3.0,1,1.7531378749430149,0,4.0,3.0,1,2,2,0,2,0,0,7,7,5,,,,,,,266.5163352501113,266.5163352501113,267.5170982091222,268.2836331669241,268.5167038750369,268.5167038750369,268.5167038750369,269.5169258341193,269.5169258341193,269.5169258341193,269.5169258341193,270.5162992090918,200005,001,2023-04-04_10h42.43.735,DMS_et_12-36,2022.2.4,None,
21,PRED,12,1.0031378749430149,0,images/picture_1.png,images/picture_1.png,0,"[-11.733433509789462, 11.733433509789464]",-11.733433509789462,11.733433509789464,images/picture_2.png,1,"[11.733433509789464, 11.733433509789462]",11.733433509789464,11.733433509789462,images/picture_3.png,2,"[11.733433509789462, -11.733433509789466]",11.733433509789462,-11.733433509789464,0,1,1,1.0031378749430149,2.003137874943015,0.9968621250569848,3.0,1,1.7531378749430149,0,4.0,3.0,1,2,2,0,2,0,0,8,8,3,,,,,,,270.5162992090918,270.5162992090918,271.5169327920303,272.28370745899156,272.51692887512036,272.51692887512036,272.51692887512036,273.51695591700263,273.51695591700263,273.51695591700263,273.51695591700263,274.55908091692254,200005,001,2023-04-04_10h42.43.735,DMS_et_12-36,2022.2.4,None,
,,,,,,,,,,,,,,,,,,,,,,,,,,,,,,,,,,,2,0,2,0,,,,,,,,,274.55908091692254,286.592421208974,,,,,,,,,,,,,200005,001,2023-04-04_10h42.43.735,DMS_et_12-36,2022.2.4,None,
30,UNPRED,12,1.0031378749430149,2,images/picture_3.png,images/picture_1.png,0,"[11.733433509789462, -11.733433509789466]",11.733433509789462,-11.733433509789464,images/picture_2.png,1,"[-11.733433509789466, -11.733433509789462]",-11.733433509789464,-11.733433509789462,images/picture_3.png,2,"[-11.733433509789462, 11.733433509789464]",-11.733433509789462,11.733433509789464,0,1,1,1.0031378749430149,2.003137874943015,0.9968621250569848,3.0,1,1.7531378749430149,0,4.0,3.0,1,2,3,0,3,0,0,0,0,3,,,,,,,286.592421208974,286.592421208974,287.60285241692327,288.3501856250223,288.58371362509206,288.58371362509206,288.58371362509206,289.5837152500171,289.5837152500171,289.5837152500171,289.5837152500171,290.5834985419642,200005,001,2023-04-04_10h42.43.735,DMS_et_12-36,2022.2.4,None,
31,UNPRED,12,1.0031378749430149,0,images/picture_1.png,images/picture_1.png,0,"[11.733433509789464, 11.733433509789462]",11.733433509789464,11.733433509789462,images/picture_2.png,1,"[11.733433509789462, -11.733433509789466]",11.733433509789462,-11.733433509789464,images/picture_3.png,2,"[-11.733433509789466, -11.733433509789462]",-11.733433509789464,-11.733433509789462,0,1,1,1.0031378749430149,2.003137874943015,0.9968621250569848,3.0,1,1.7531378749430149,0,4.0,3.0,1,2,3,0,3,0,0,1,1,4,,,,,,,290.5834985419642,290.5834985419642,291.5836269170977,292.35038387496024,292.5836161249317,292.5836161249317,292.5836161249317,293.583703875076,293.583703875076,293.583703875076,293.583703875076,294.60245695896447,200005,001,2023-04-04_10h42.43.735,DMS_et_12-36,2022.2.4,None,
32,UNPRED,12,1.0031378749430149,2,images/picture_3.png,images/picture_1.png,0,"[11.733433509789464, 11.733433509789462]",11.733433509789464,11.733433509789462,images/picture_2.png,1,"[-11.733433509789462, 11.733433509789464]",-11.733433509789462,11.733433509789464,images/picture_3.png,2,"[11.733433509789462, -11.733433509789466]",11.733433509789462,-11.733433509789464,0,1,1,1.0031378749430149,2.003137874943015,0.9968621250569848,3.0,1,1.7531378749430149,0,4.0,3.0,1,2,3,0,3,0,0,2,2,5,,,,,,,294.60245695896447,294.60245695896447,295.6170208749827,296.36902712495066,296.5834850000683,296.5834850000683,296.5834850000683,297.583645042032,297.583645042032,297.583645042032,297.583645042032,298.6026524589397,200005,001,2023-04-04_10h42.43.735,DMS_et_12-36,2022.2.4,None,
29,UNPRED,12,1.0031378749430149,2,images/picture_3.png,images/picture_1.png,0,"[-11.733433509789462, 11.733433509789464]",-11.733433509789462,11.733433509789464,images/picture_2.png,1,"[11.733433509789462, -11.733433509789466]",11.733433509789462,-11.733433509789464,images/picture_3.png,2,"[-11.733433509789466, -11.733433509789462]",-11.733433509789464,-11.733433509789462,0,1,1,1.0031378749430149,2.003137874943015,0.9968621250569848,3.0,1,1.7531378749430149,0,4.0,3.0,1,2,3,0,3,0,0,3,3,2,,,,,,,298.6026524589397,298.6026524589397,299.61696170899086,300.36955287493765,300.58364608394913,300.58364608394913,300.58364608394913,301.5836728340946,301.5836728340946,301.5836728340946,301.5836728340946,302.6026149170939,200005,001,2023-04-04_10h42.43.735,DMS_et_12-36,2022.2.4,None,
27,UNPRED,12,1.0031378749430149,2,images/picture_3.png,images/picture_1.png,0,"[11.733433509789464, 11.733433509789462]",11.733433509789464,11.733433509789462,images/picture_2.png,1,"[11.733433509789462, -11.733433509789466]",11.733433509789462,-11.733433509789464,images/picture_3.png,2,"[-11.733433509789462, 11.733433509789464]",-11.733433509789462,11.733433509789464,0,1,1,1.0031378749430149,2.003137874943015,0.9968621250569848,3.0,1,1.7531378749430149,0,4.0,3.0,1,2,3,0,3,0,0,4,4,0,,,,,,,302.6026149170939,302.6026149170939,303.6169078750536,304.3696692921221,304.58363520912826,304.58363520912826,304.58363520912826,305.5837062089704,305.5837062089704,305.5837062089704,305.5837062089704,306.58333554212004,200005,001,2023-04-04_10h42.43.735,DMS_et_12-36,2022.2.4,None,
33,UNPRED,12,1.0031378749430149,0,images/picture_1.png,images/picture_1.png,0,"[-11.733433509789466, -11.733433509789462]",-11.733433509789464,-11.733433509789462,images/picture_2.png,1,"[11.733433509789464, 11.733433509789462]",11.733433509789464,11.733433509789462,images/picture_3.png,2,"[11.733433509789462, -11.733433509789466]",11.733433509789462,-11.733433509789464,0,1,1,1.0031378749430149,2.003137874943015,0.9968621250569848,3.0,1,1.7531378749430149,0,4.0,3.0,1,2,3,0,3,0,0,5,5,6,,,,,,,306.58333554212004,306.58333554212004,307.58366212504916,308.3503936249763,308.5836721670348,308.5836721670348,308.5836721670348,309.5837121249642,309.5837121249642,309.5837121249642,309.5837121249642,310.58442820911296,200005,001,2023-04-04_10h42.43.735,DMS_et_12-36,2022.2.4,None,
35,UNPRED,12,1.0031378749430149,1,images/picture_2.png,images/picture_1.png,0,"[11.733433509789464, 11.733433509789462]",11.733433509789464,11.733433509789462,images/picture_2.png,1,"[-11.733433509789462, 11.733433509789464]",-11.733433509789462,11.733433509789464,images/picture_3.png,2,"[11.733433509789462, -11.733433509789466]",11.733433509789462,-11.733433509789464,0,1,1,1.0031378749430149,2.003137874943015,0.9968621250569848,3.0,1,1.7531378749430149,0,4.0,3.0,1,2,3,0,3,0,0,6,6,8,,,,,,,310.58442820911296,310.58442820911296,311.5836338340305,312.35040175006725,312.5836565841455,312.5836565841455,312.5836565841455,313.58367054210976,313.58367054210976,313.58367054210976,313.58367054210976,314.58341829199344,200005,001,2023-04-04_10h42.43.735,DMS_et_12-36,2022.2.4,None,
28,UNPRED,12,1.0031378749430149,1,images/picture_2.png,images/picture_1.png,0,"[11.733433509789464, 11.733433509789462]",11.733433509789464,11.733433509789462,images/picture_2.png,1,"[11.733433509789462, -11.733433509789466]",11.733433509789462,-11.733433509789464,images/picture_3.png,2,"[-11.733433509789466, -11.733433509789462]",-11.733433509789464,-11.733433509789462,0,1,1,1.0031378749430149,2.003137874943015,0.9968621250569848,3.0,1,1.7531378749430149,0,4.0,3.0,1,2,3,0,3,0,0,7,7,1,,,,,,,314.58341829199344,314.58341829199344,315.58368454198353,316.35012533399276,316.58348924992606,316.58348924992606,316.58348924992606,317.5839072091039,317.5839072091039,317.5839072091039,317.5839072091039,318.5830257500056,200005,001,2023-04-04_10h42.43.735,DMS_et_12-36,2022.2.4,None,
34,UNPRED,12,1.0031378749430149,0,images/picture_1.png,images/picture_1.png,0,"[-11.733433509789466, -11.733433509789462]",-11.733433509789464,-11.733433509789462,images/picture_2.png,1,"[11.733433509789464, 11.733433509789462]",11.733433509789464,11.733433509789462,images/picture_3.png,2,"[-11.733433509789462, 11.733433509789464]",-11.733433509789462,11.733433509789464,0,1,1,1.0031378749430149,2.003137874943015,0.9968621250569848,3.0,1,1.7531378749430149,0,4.0,3.0,1,2,3,0,3,0,0,8,8,7,,,,,,,318.5830257500056,318.5830257500056,319.5838558340911,320.3504903749563,320.5837308340706,320.5837308340706,320.5837308340706,321.58407608396374,321.58407608396374,321.58407608396374,321.58407608396374,322.63573725009337,200005,001,2023-04-04_10h42.43.735,DMS_et_12-36,2022.2.4,None,
,,,,,,,,,,,,,,,,,,,,,,,,,,,,,,,,,,,3,0,3,0,,,,,,,,,322.63573725009337,334.7740553340409,,,,,,,,,,,,,200005,001,2023-04-04_10h42.43.735,DMS_et_12-36,2022.2.4,None,
40,PRED,12,1.0031378749430149,1,images/picture_2.png,images/picture_1.png,0,"[-11.733433509789462, 11.733433509789464]",-11.733433509789462,11.733433509789464,images/picture_2.png,1,"[-11.733433509789466, -11.733433509789462]",-11.733433509789464,-11.733433509789462,images/picture_3.png,2,"[11.733433509789462, -11.733433509789466]",11.733433509789462,-11.733433509789464,0,1,1,1.0031378749430149,2.003137874943015,0.9968621250569848,3.0,1,1.7531378749430149,0,4.0,3.0,1,2,4,0,4,0,0,0,0,4,,,,,,,334.7740553340409,334.7740553340409,335.783765417058,336.536595209036,336.76901625003666,336.76901625003666,336.76901625003666,337.7694306669291,337.7694306669291,337.7694306669291,337.7694306669291,338.78340137493797,200005,001,2023-04-04_10h42.43.735,DMS_et_12-36,2022.2.4,None,
41,PRED,12,1.0031378749430149,1,images/picture_2.png,images/picture_1.png,0,"[-11.733433509789462, 11.733433509789464]",-11.733433509789462,11.733433509789464,images/picture_2.png,1,"[-11.733433509789466, -11.733433509789462]",-11.733433509789464,-11.733433509789462,images/picture_3.png,2,"[11.733433509789462, -11.733433509789466]",11.733433509789462,-11.733433509789464,0,1,1,1.0031378749430149,2.003137874943015,0.9968621250569848,3.0,1,1.7531378749430149,0,4.0,3.0,1,2,4,0,4,0,0,1,1,5,,,,,,,338.78340137493797,338.78340137493797,339.78391608409584,340.5505255840253,340.78390799998306,340.78390799998306,340.78390799998306,341.7839839591179,341.7839839591179,341.7839839591179,341.7839839591179,342.78327849996276,200005,001,2023-04-04_10h42.43.735,DMS_et_12-36,2022.2.4,None,
39,PRED,12,1.0031378749430149,1,images/picture_2.png,images/picture_1.png,0,"[-11.733433509789466, -11.733433509789462]",-11.733433509789464,-11.733433509789462,images/picture_2.png,1,"[11.733433509789464, 11.733433509789462]",11.733433509789464,11.733433509789462,images/picture_3.png,2,"[-11.733433509789462, 11.733433509789464]",-11.733433509789462,11.733433509789464,0,1,1,1.0031378749430149,2.003137874943015,0.9968621250569848,3.0,1,1.7531378749430149,0,4.0,3.0,1,2,4,0,4,0,0,2,2,3,,,,,,,342.78327849996276,342.78327849996276,343.78370479214936,344.5506467090454,344.78375966707245,344.78375966707245,344.78375966707245,345.7839230420068,345.7839230420068,345.7839230420068,345.7839230420068,346.7832830839325,200005,001,2023-04-04_10h42.43.735,DMS_et_12-36,2022.2.4,None,
42,PRED,12,1.0031378749430149,1,images/picture_2.png,images/picture_1.png,0,"[11.733433509789464, 11.733433509789462]",11.733433509789464,11.733433509789462,images/picture_2.png,1,"[-11.733433509789466, -11.733433509789462]",-11.733433509789464,-11.733433509789462,images/picture_3.png,2,"[11.733433509789462, -11.733433509789466]",11.733433509789462,-11.733433509789464,0,1,1,1.0031378749430149,2.003137874943015,0.9968621250569848,3.0,1,1.7531378749430149,0,4.0,3.0,1,2,4,0,4,0,0,3,3,6,,,,,,,346.7832830839325,346.7832830839325,347.78355695912614,348.55053950008005,348.78391033411026,348.78391033411026,348.78391033411026,349.783987083938,349.783987083938,349.783987083938,349.783987083938,350.7833450001199,200005,001,2023-04-04_10h42.43.735,DMS_et_12-36,2022.2.4,None,
36,PRED,12,1.0031378749430149,1,images/picture_2.png,images/picture_1.png,0,"[11.733433509789464, 11.733433509789462]",11.733433509789464,11.733433509789462,images/picture_2.png,1,"[-11.733433509789466, -11.733433509789462]",-11.733433509789464,-11.733433509789462,images/picture_3.png,2,"[-11.733433509789462, 11.733433509789464]",-11.733433509789462,11.733433509789464,0,1,1,1.0031378749430149,2.003137874943015,0.9968621250569848,3.0,1,1.7531378749430149,0,4.0,3.0,1,2,4,0,4,0,0,4,4,0,,,,,,,350.7833450001199,350.7833450001199,351.7839536250103,352.55063066701405,352.78415725007653,352.78415725007653,352.78415725007653,353.78390566702,353.78390566702,353.78390566702,353.78390566702,354.78367183404043,200005,001,2023-04-04_10h42.43.735,DMS_et_12-36,2022.2.4,None,
43,PRED,12,1.0031378749430149,1,images/picture_2.png,images/picture_1.png,0,"[11.733433509789462, -11.733433509789466]",11.733433509789462,-11.733433509789464,images/picture_2.png,1,"[11.733433509789464, 11.733433509789462]",11.733433509789464,11.733433509789462,images/picture_3.png,2,"[-11.733433509789466, -11.733433509789462]",-11.733433509789464,-11.733433509789462,0,1,1,1.0031378749430149,2.003137874943015,0.9968621250569848,3.0,1,1.7531378749430149,0,4.0,3.0,1,2,4,0,4,0,0,5,5,7,,,,,,,354.78367183404043,354.78367183404043,355.78388391714543,356.5504534591455,356.7839144170284,356.7839144170284,356.7839144170284,357.78358950000256,357.78358950000256,357.78358950000256,357.78358950000256,358.7835576250218,200005,001,2023-04-04_10h42.43.735,DMS_et_12-36,2022.2.4,None,
38,PRED,12,1.0031378749430149,1,images/picture_2.png,images/picture_1.png,0,"[-11.733433509789466, -11.733433509789462]",-11.733433509789464,-11.733433509789462,images/picture_2.png,1,"[11.733433509789464, 11.733433509789462]",11.733433509789464,11.733433509789462,images/picture_3.png,2,"[11.733433509789462, -11.733433509789466]",11.733433509789462,-11.733433509789464,0,1,1,1.0031378749430149,2.003137874943015,0.9968621250569848,3.0,1,1.7531378749430149,0,4.0,3.0,1,2,4,0,4,0,0,6,6,2,,,,,,,358.7835576250218,358.7835576250218,359.7845165000763,360.5502752920147,360.78365841694176,360.78365841694176,360.78365841694176,361.78367070900276,361.78367070900276,361.78367070900276,361.78367070900276,362.783193834126,200005,001,2023-04-04_10h42.43.735,DMS_et_12-36,2022.2.4,None,
37,PRED,12,1.0031378749430149,1,images/picture_2.png,images/picture_1.png,0,"[11.733433509789462, -11.733433509789466]",11.733433509789462,-11.733433509789464,images/picture_2.png,1,"[-11.733433509789466, -11.733433509789462]",-11.733433509789464,-11.733433509789462,images/picture_3.png,2,"[-11.733433509789462, 11.733433509789464]",-11.733433509789462,11.733433509789464,0,1,1,1.0031378749430149,2.003137874943015,0.9968621250569848,3.0,1,1.7531378749430149,0,4.0,3.0,1,2,4,0,4,0,0,7,7,1,,,,,,,362.783193834126,362.783193834126,363.78370604198426,364.5504987090826,364.78363804193214,364.78363804193214,364.78363804193214,365.7836701250635,365.7836701250635,365.7836701250635,365.7836701250635,366.7831592920702,200005,001,2023-04-04_10h42.43.735,DMS_et_12-36,2022.2.4,None,
44,PRED,12,1.0031378749430149,1,images/picture_2.png,images/picture_1.png,0,"[11.733433509789462, -11.733433509789466]",11.733433509789462,-11.733433509789464,images/picture_2.png,1,"[11.733433509789464, 11.733433509789462]",11.733433509789464,11.733433509789462,images/picture_3.png,2,"[-11.733433509789466, -11.733433509789462]",-11.733433509789464,-11.733433509789462,0,1,1,1.0031378749430149,2.003137874943015,0.9968621250569848,3.0,1,1.7531378749430149,0,4.0,3.0,1,2,4,0,4,0,0,8,8,8,,,,,,,366.7831592920702,366.7831592920702,367.7833410000894,368.55020308401436,368.78371595893987,368.78371595893987,368.78371595893987,369.78363854205236,369.78363854205236,369.78363854205236,369.78363854205236,370.84674191707745,200005,001,2023-04-04_10h42.43.735,DMS_et_12-36,2022.2.4,None,
,,,,,,,,,,,,,,,,,,,,,,,,,,,,,,,,,,,4,0,4,0,,,,,,,,,370.84674191707745,382.870873084059,,,,,,,,,,,,,200005,001,2023-04-04_10h42.43.735,DMS_et_12-36,2022.2.4,None,
48,UNPRED,12,1.0031378749430149,0,images/picture_1.png,images/picture_1.png,0,"[-11.733433509789462, 11.733433509789464]",-11.733433509789462,11.733433509789464,images/picture_2.png,1,"[11.733433509789462, -11.733433509789466]",11.733433509789462,-11.733433509789464,images/picture_3.png,2,"[-11.733433509789466, -11.733433509789462]",-11.733433509789464,-11.733433509789462,0,1,1,1.0031378749430149,2.003137874943015,0.9968621250569848,3.0,1,1.7531378749430149,0,4.0,3.0,1,2,5,0,5,0,0,0,0,3,,,,,,,382.870873084059,382.870873084059,383.8838035420049,384.6364372919779,384.8693210419733,384.8693210419733,384.8693210419733,385.86997620901093,385.86997620901093,385.86997620901093,385.86997620901093,386.8833544170484,200005,001,2023-04-04_10h42.43.735,DMS_et_12-36,2022.2.4,None,
53,UNPRED,12,1.0031378749430149,0,images/picture_1.png,images/picture_1.png,0,"[11.733433509789464, 11.733433509789462]",11.733433509789464,11.733433509789462,images/picture_2.png,1,"[-11.733433509789466, -11.733433509789462]",-11.733433509789464,-11.733433509789462,images/picture_3.png,2,"[11.733433509789462, -11.733433509789466]",11.733433509789462,-11.733433509789464,0,1,1,1.0031378749430149,2.003137874943015,0.9968621250569848,3.0,1,1.7531378749430149,0,4.0,3.0,1,2,5,0,5,0,0,1,1,8,,,,,,,386.8833544170484,386.8833544170484,387.8836405419279,388.6500171669759,388.88348812493496,388.88348812493496,388.88348812493496,389.8837067920249,389.8837067920249,389.8837067920249,389.8837067920249,390.90256770909764,200005,001,2023-04-04_10h42.43.735,DMS_et_12-36,2022.2.4,None,
50,UNPRED,12,1.0031378749430149,2,images/picture_3.png,images/picture_1.png,0,"[-11.733433509789462, 11.733433509789464]",-11.733433509789462,11.733433509789464,images/picture_2.png,1,"[-11.733433509789466, -11.733433509789462]",-11.733433509789464,-11.733433509789462,images/picture_3.png,2,"[11.733433509789464, 11.733433509789462]",11.733433509789464,11.733433509789462,0,1,1,1.0031378749430149,2.003137874943015,0.9968621250569848,3.0,1,1.7531378749430149,0,4.0,3.0,1,2,5,0,5,0,0,2,2,5,,,,,,,390.90256770909764,390.90256770909764,391.91692379210144,392.67381175002083,392.88369629206136,392.88369629206136,392.88369629206136,393.8834835840389,393.8834835840389,393.8834835840389,393.8834835840389,394.88415749999695,200005,001,2023-04-04_10h42.43.735,DMS_et_12-36,2022.2.4,None,
51,UNPRED,12,1.0031378749430149,1,images/picture_2.png,images/picture_1.png,0,"[11.733433509789462, -11.733433509789466]",11.733433509789462,-11.733433509789464,images/picture_2.png,1,"[-11.733433509789462, 11.733433509789464]",-11.733433509789462,11.733433509789464,images/picture_3.png,2,"[11.733433509789464, 11.733433509789462]",11.733433509789464,11.733433509789462,0,1,1,1.0031378749430149,2.003137874943015,0.9968621250569848,3.0,1,1.7531378749430149,0,4.0,3.0,1,2,5,0,5,0,0,3,3,6,,,,,,,394.88415749999695,394.88415749999695,395.8836910419632,396.6504032090306,396.8837227500044,396.8837227500044,396.8837227500044,397.8836824169848,397.8836824169848,397.8836824169848,397.8836824169848,398.90271175000817,200005,001,2023-04-04_10h42.43.735,DMS_et_12-36,2022.2.4,None,
46,UNPRED,12,1.0031378749430149,2,images/picture_3.png,images/picture_1.png,0,"[-11.733433509789466, -11.733433509789462]",-11.733433509789464,-11.733433509789462,images/picture_2.png,1,"[11.733433509789464, 11.733433509789462]",11.733433509789464,11.733433509789462,images/picture_3.png,2,"[11.733433509789462, -11.733433509789466]",11.733433509789462,-11.733433509789464,0,1,1,1.0031378749430149,2.003137874943015,0.9968621250569848,3.0,1,1.7531378749430149,0,4.0,3.0,1,2,5,0,5,0,0,4,4,1,,,,,,,398.90271175000817,398.90271175000817,399.91698670899495,400.6690371669829,400.8836652089376,400.8836652089376,400.8836652089376,401.8836933749262,401.8836933749262,401.8836933749262,401.8836933749262,402.9023272090126,200005,001,2023-04-04_10h42.43.735,DMS_et_12-36,2022.2.4,None,
45,UNPRED,12,1.0031378749430149,2,images/picture_3.png,images/picture_1.png,0,"[-11.733433509789462, 11.733433509789464]",-11.733433509789462,11.733433509789464,images/picture_2.png,1,"[11.733433509789464, 11.733433509789462]",11.733433509789464,11.733433509789462,images/picture_3.png,2,"[11.733433509789462, -11.733433509789466]",11.733433509789462,-11.733433509789464,0,1,1,1.0031378749430149,2.003137874943015,0.9968621250569848,3.0,1,1.7531378749430149,0,4.0,3.0,1,2,5,0,5,0,0,5,5,0,,,,,,,402.9023272090126,402.9023272090126,403.91714704199694,404.67025279207155,404.88370554195717,404.88370554195717,404.88370554195717,405.88399145915173,405.88399145915173,405.88399145915173,405.88399145915173,406.90257429215126,200005,001,2023-04-04_10h42.43.735,DMS_et_12-36,2022.2.4,None,
49,UNPRED,12,1.0031378749430149,2,images/picture_3.png,images/picture_1.png,0,"[-11.733433509789462, 11.733433509789464]",-11.733433509789462,11.733433509789464,images/picture_2.png,1,"[11.733433509789462, -11.733433509789466]",11.733433509789462,-11.733433509789464,images/picture_3.png,2,"[11.733433509789464, 11.733433509789462]",11.733433509789464,11.733433509789462,0,1,1,1.0031378749430149,2.003137874943015,0.9968621250569848,3.0,1,1.7531378749430149,0,4.0,3.0,1,2,5,0,5,0,0,6,6,4,,,,,,,406.90257429215126,406.90257429215126,407.91716287494637,408.66968325013295,408.88405104214326,408.88405104214326,408.88405104214326,409.88468637503684,409.88468637503684,409.88468637503684,409.88468637503684,410.88444799999706,200005,001,2023-04-04_10h42.43.735,DMS_et_12-36,2022.2.4,None,
52,UNPRED,12,1.0031378749430149,0,images/picture_1.png,images/picture_1.png,0,"[11.733433509789464, 11.733433509789462]",11.733433509789464,11.733433509789462,images/picture_2.png,1,"[11.733433509789462, -11.733433509789466]",11.733433509789462,-11.733433509789464,images/picture_3.png,2,"[-11.733433509789466, -11.733433509789462]",-11.733433509789464,-11.733433509789462,0,1,1,1.0031378749430149,2.003137874943015,0.9968621250569848,3.0,1,1.7531378749430149,0,4.0,3.0,1,2,5,0,5,0,0,7,7,7,,,,,,,410.88444799999706,410.88444799999706,411.8839194169268,412.65040141693316,412.88369166711345,412.88369166711345,412.88369166711345,413.883728959132,413.883728959132,413.883728959132,413.883728959132,414.8831258751452,200005,001,2023-04-04_10h42.43.735,DMS_et_12-36,2022.2.4,None,
47,UNPRED,12,1.0031378749430149,1,images/picture_2.png,images/picture_1.png,0,"[11.733433509789464, 11.733433509789462]",11.733433509789464,11.733433509789462,images/picture_2.png,1,"[-11.733433509789462, 11.733433509789464]",-11.733433509789462,11.733433509789464,images/picture_3.png,2,"[-11.733433509789466, -11.733433509789462]",-11.733433509789464,-11.733433509789462,0,1,1,1.0031378749430149,2.003137874943015,0.9968621250569848,3.0,1,1.7531378749430149,0,4.0,3.0,1,2,5,0,5,0,0,8,8,2,,,,,,,414.8831258751452,414.8831258751452,415.8838634591084,416.650404416956,416.88372820895165,416.88372820895165,416.88372820895165,417.883962708991,417.883962708991,417.883962708991,417.883962708991,418.95536700007506,200005,001,2023-04-04_10h42.43.735,DMS_et_12-36,2022.2.4,None,
,,,,,,,,,,,,,,,,,,,,,,,,,,,,,,,,,,,5,0,5,0,,,,,,,,,418.95536700007506,430.98548400006257,,,,,,,,,,,,,200005,001,2023-04-04_10h42.43.735,DMS_et_12-36,2022.2.4,None,
60,PRED,12,1.0031378749430149,1,images/picture_2.png,images/picture_1.png,0,"[-11.733433509789466, -11.733433509789462]",-11.733433509789464,-11.733433509789462,images/picture_2.png,1,"[11.733433509789464, 11.733433509789462]",11.733433509789464,11.733433509789462,images/picture_3.png,2,"[11.733433509789462, -11.733433509789466]",11.733433509789462,-11.733433509789464,0,1,1,1.0031378749430149,2.003137874943015,0.9968621250569848,3.0,1,1.7531378749430149,0,4.0,3.0,1,2,6,0,6,0,0,0,0,6,,,,,,,430.98548400006257,430.98548400006257,431.98385762493126,432.7504466669634,432.9837232499849,432.9837232499849,432.9837232499849,433.98368920898065,433.98368920898065,433.98368920898065,433.98368920898065,434.98290829197504,200005,001,2023-04-04_10h42.43.735,DMS_et_12-36,2022.2.4,None,
54,PRED,12,1.0031378749430149,1,images/picture_2.png,images/picture_1.png,0,"[-11.733433509789462, 11.733433509789464]",-11.733433509789462,11.733433509789464,images/picture_2.png,1,"[-11.733433509789466, -11.733433509789462]",-11.733433509789464,-11.733433509789462,images/picture_3.png,2,"[11.733433509789464, 11.733433509789462]",11.733433509789464,11.733433509789462,0,1,1,1.0031378749430149,2.003137874943015,0.9968621250569848,3.0,1,1.7531378749430149,0,4.0,3.0,1,2,6,0,6,0,0,1,1,0,,,,,,,434.98290829197504,434.98290829197504,435.9834842500277,436.75043204193935,436.9838472499978,436.9838472499978,436.9838472499978,437.98365054209717,437.98365054209717,437.98365054209717,437.98365054209717,438.98314408399165,200005,001,2023-04-04_10h42.43.735,DMS_et_12-36,2022.2.4,None,
55,PRED,12,1.0031378749430149,1,images/picture_2.png,images/picture_1.png,0,"[-11.733433509789462, 11.733433509789464]",-11.733433509789462,11.733433509789464,images/picture_2.png,1,"[-11.733433509789466, -11.733433509789462]",-11.733433509789464,-11.733433509789462,images/picture_3.png,2,"[11.733433509789464, 11.733433509789462]",11.733433509789464,11.733433509789462,0,1,1,1.0031378749430149,2.003137874943015,0.9968621250569848,3.0,1,1.7531378749430149,0,4.0,3.0,1,2,6,0,6,0,0,2,2,1,,,,,,,438.98314408399165,438.98314408399165,439.98319366713986,440.75020275008865,440.98367062513717,440.98367062513717,440.98367062513717,441.9837101669982,441.9837101669982,441.9837101669982,441.9837101669982,442.9832310420461,200005,001,2023-04-04_10h42.43.735,DMS_et_12-36,2022.2.4,None,
59,PRED,12,1.0031378749430149,1,images/picture_2.png,images/picture_1.png,0,"[11.733433509789462, -11.733433509789466]",11.733433509789462,-11.733433509789464,images/picture_2.png,1,"[-11.733433509789466, -11.733433509789462]",-11.733433509789464,-11.733433509789462,images/picture_3.png,2,"[-11.733433509789462, 11.733433509789464]",-11.733433509789462,11.733433509789464,0,1,1,1.0031378749430149,2.003137874943015,0.9968621250569848,3.0,1,1.7531378749430149,0,4.0,3.0,1,2,6,0,6,0,0,3,3,5,,,,,,,442.9832310420461,442.9832310420461,443.983838125132,444.75018129195087,444.98448529210873,444.98448529210873,444.98448529210873,445.9837132501416,445.9837132501416,445.9837132501416,445.9837132501416,446.9831935840193,200005,001,2023-04-04_10h42.43.735,DMS_et_12-36,2022.2.4,None,
57,PRED,12,1.0031378749430149,1,images/picture_2.png,images/picture_1.png,0,"[11.733433509789464, 11.733433509789462]",11.733433509789464,11.733433509789462,images/picture_2.png,1,"[11.733433509789462, -11.733433509789466]",11.733433509789462,-11.733433509789464,images/picture_3.png,2,"[-11.733433509789466, -11.733433509789462]",-11.733433509789464,-11.733433509789462,0,1,1,1.0031378749430149,2.003137874943015,0.9968621250569848,3.0,1,1.7531378749430149,0,4.0,3.0,1,2,6,0,6,0,0,4,4,3,,,,,,,446.9831935840193,446.9831935840193,447.9836753751151,448.75044466694817,448.9837497919798,448.9837497919798,448.9837497919798,449.98341879202053,449.98341879202053,449.98341879202053,449.98341879202053,450.9841097500175,200005,001,2023-04-04_10h42.43.735,DMS_et_12-36,2022.2.4,None,
56,PRED,12,1.0031378749430149,1,images/picture_2.png,images/picture_1.png,0,"[11.733433509789462, -11.733433509789466]",11.733433509789462,-11.733433509789464,images/picture_2.png,1,"[-11.733433509789466, -11.733433509789462]",-11.733433509789464,-11.733433509789462,images/picture_3.png,2,"[11.733433509789464, 11.733433509789462]",11.733433509789464,11.733433509789462,0,1,1,1.0031378749430149,2.003137874943015,0.9968621250569848,3.0,1,1.7531378749430149,0,4.0,3.0,1,2,6,0,6,0,0,5,5,2,,,,,,,450.9841097500175,450.9841097500175,451.983670250047,452.75036983401515,452.98388820909895,452.98388820909895,452.98388820909895,453.98370537511073,453.98370537511073,453.98370537511073,453.98370537511073,454.98295650002547,200005,001,2023-04-04_10h42.43.735,DMS_et_12-36,2022.2.4,None,
61,PRED,12,1.0031378749430149,1,images/picture_2.png,images/picture_1.png,0,"[11.733433509789464, 11.733433509789462]",11.733433509789464,11.733433509789462,images/picture_2.png,1,"[-11.733433509789462, 11.733433509789464]",-11.733433509789462,11.733433509789464,images/picture_3.png,2,"[11.733433509789462, -11.733433509789466]",11.733433509789462,-11.733433509789464,0,1,1,1.0031378749430149,2.003137874943015,0.9968621250569848,3.0,1,1.7531378749430149,0,4.0,3.0,1,2,6,0,6,0,0,6,6,7,,,,,,,454.98295650002547,454.98295650002547,455.9837282090448,456.7504250421189,456.983704125043,456.983704125043,456.983704125043,457.9835282091517,457.9835282091517,457.9835282091517,457.9835282091517,458.9831405840814,200005,001,2023-04-04_10h42.43.735,DMS_et_12-36,2022.2.4,None,
62,PRED,12,1.0031378749430149,1,images/picture_2.png,images/picture_1.png,0,"[11.733433509789462, -11.733433509789466]",11.733433509789462,-11.733433509789464,images/picture_2.png,1,"[11.733433509789464, 11.733433509789462]",11.733433509789464,11.733433509789462,images/picture_3.png,2,"[-11.733433509789462, 11.733433509789464]",-11.733433509789462,11.733433509789464,0,1,1,1.0031378749430149,2.003137874943015,0.9968621250569848,3.0,1,1.7531378749430149,0,4.0,3.0,1,2,6,0,6,0,0,7,7,8,,,,,,,458.9831405840814,458.9831405840814,459.9837570420932,460.7501302501187,460.9834632091224,460.9834632091224,460.9834632091224,461.98371633398347,461.98371633398347,461.98371633398347,461.98371633398347,462.9833239170257,200005,001,2023-04-04_10h42.43.735,DMS_et_12-36,2022.2.4,None,
58,PRED,12,1.0031378749430149,1,images/picture_2.png,images/picture_1.png,0,"[11.733433509789462, -11.733433509789466]",11.733433509789462,-11.733433509789464,images/picture_2.png,1,"[11.733433509789464, 11.733433509789462]",11.733433509789464,11.733433509789462,images/picture_3.png,2,"[-11.733433509789462, 11.733433509789464]",-11.733433509789462,11.733433509789464,0,1,1,1.0031378749430149,2.003137874943015,0.9968621250569848,3.0,1,1.7531378749430149,0,4.0,3.0,1,2,6,0,6,0,0,8,8,4,,,,,,,462.9833239170257,462.9833239170257,463.9837029171176,464.7504180839751,464.9835365419276,464.9835365419276,464.9835365419276,465.9838697090745,465.9838697090745,465.9838697090745,465.9838697090745,467.06085020909086,200005,001,2023-04-04_10h42.43.735,DMS_et_12-36,2022.2.4,None,
,,,,,,,,,,,,,,,,,,,,,,,,,,,,,,,,,,,6,0,6,0,,,,,,,,,467.06085020909086,479.09623216697946,,,,,,,,,,,,,200005,001,2023-04-04_10h42.43.735,DMS_et_12-36,2022.2.4,None,
71,UNPRED,12,1.0031378749430149,2,images/picture_3.png,images/picture_1.png,0,"[11.733433509789462, -11.733433509789466]",11.733433509789462,-11.733433509789464,images/picture_2.png,1,"[-11.733433509789462, 11.733433509789464]",-11.733433509789462,11.733433509789464,images/picture_3.png,2,"[-11.733433509789466, -11.733433509789462]",-11.733433509789464,-11.733433509789462,0,1,1,1.0031378749430149,2.003137874943015,0.9968621250569848,3.0,1,1.7531378749430149,0,4.0,3.0,1,2,7,0,7,0,0,0,0,8,,,,,,,479.09623216697946,479.09623216697946,480.10372050013393,480.85020537511446,481.0833072499372,481.0833072499372,481.0833072499372,482.0838850000873,482.0838850000873,482.0838850000873,482.0838850000873,483.1029523750767,200005,001,2023-04-04_10h42.43.735,DMS_et_12-36,2022.2.4,None,
66,UNPRED,12,1.0031378749430149,2,images/picture_3.png,images/picture_1.png,0,"[11.733433509789462, -11.733433509789466]",11.733433509789462,-11.733433509789464,images/picture_2.png,1,"[11.733433509789464, 11.733433509789462]",11.733433509789464,11.733433509789462,images/picture_3.png,2,"[-11.733433509789462, 11.733433509789464]",-11.733433509789462,11.733433509789464,0,1,1,1.0031378749430149,2.003137874943015,0.9968621250569848,3.0,1,1.7531378749430149,0,4.0,3.0,1,2,7,0,7,0,0,1,1,3,,,,,,,483.1029523750767,483.1029523750767,484.1171122500673,484.86999416700564,485.08374470914714,485.08374470914714,485.08374470914714,486.0838195839897,486.0838195839897,486.0838195839897,486.0838195839897,487.1030991671141,200005,001,2023-04-04_10h42.43.735,DMS_et_12-36,2022.2.4,None,
69,UNPRED,12,1.0031378749430149,2,images/picture_3.png,images/picture_1.png,0,"[-11.733433509789466, -11.733433509789462]",-11.733433509789464,-11.733433509789462,images/picture_2.png,1,"[11.733433509789462, -11.733433509789466]",11.733433509789462,-11.733433509789464,images/picture_3.png,2,"[11.733433509789464, 11.733433509789462]",11.733433509789464,11.733433509789462,0,1,1,1.0031378749430149,2.003137874943015,0.9968621250569848,3.0,1,1.7531378749430149,0,4.0,3.0,1,2,7,0,7,0,0,2,2,6,,,,,,,487.1030991671141,487.1030991671141,488.1171294590458,488.8705405839719,489.08392591704614,489.08392591704614,489.08392591704614,490.08368625002913,490.08368625002913,490.08368625002913,490.08368625002913,491.0847674999386,200005,001,2023-04-04_10h42.43.735,DMS_et_12-36,2022.2.4,None,
65,UNPRED,12,1.0031378749430149,2,images/picture_3.png,images/picture_1.png,0,"[11.733433509789464, 11.733433509789462]",11.733433509789464,11.733433509789462,images/picture_2.png,1,"[11.733433509789462, -11.733433509789466]",11.733433509789462,-11.733433509789464,images/picture_3.png,2,"[-11.733433509789462, 11.733433509789464]",-11.733433509789462,11.733433509789464,0,1,1,1.0031378749430149,2.003137874943015,0.9968621250569848,3.0,1,1.7531378749430149,0,4.0,3.0,1,2,7,0,7,0,0,3,3,2,,,,,,,491.0847674999386,491.0847674999386,492.0836185000371,492.8504231250845,493.0836585420184,493.0836585420184,493.0836585420184,494.083936459152,494.083936459152,494.083936459152,494.083936459152,495.10257979203016,200005,001,2023-04-04_10h42.43.735,DMS_et_12-36,2022.2.4,None,
70,UNPRED,12,1.0031378749430149,2,images/picture_3.png,images/picture_1.png,0,"[-11.733433509789466, -11.733433509789462]",-11.733433509789464,-11.733433509789462,images/picture_2.png,1,"[-11.733433509789462, 11.733433509789464]",-11.733433509789462,11.733433509789464,images/picture_3.png,2,"[11.733433509789464, 11.733433509789462]",11.733433509789464,11.733433509789462,0,1,1,1.0031378749430149,2.003137874943015,0.9968621250569848,3.0,1,1.7531378749430149,0,4.0,3.0,1,2,7,0,7,0,0,4,4,7,,,,,,,495.10257979203016,495.10257979203016,496.1171663340647,496.8697828750592,497.08368141693063,497.08368141693063,497.08368141693063,498.0839294169564,498.0839294169564,498.0839294169564,498.0839294169564,499.10326683404855,200005,001,2023-04-04_10h42.43.735,DMS_et_12-36,2022.2.4,None,
68,UNPRED,12,1.0031378749430149,1,images/picture_2.png,images/picture_1.png,0,"[11.733433509789464, 11.733433509789462]",11.733433509789464,11.733433509789462,images/picture_2.png,1,"[11.733433509789462, -11.733433509789466]",11.733433509789462,-11.733433509789464,images/picture_3.png,2,"[-11.733433509789462, 11.733433509789464]",-11.733433509789462,11.733433509789464,0,1,1,1.0031378749430149,2.003137874943015,0.9968621250569848,3.0,1,1.7531378749430149,0,4.0,3.0,1,2,7,0,7,0,0,5,5,5,,,,,,,499.10326683404855,499.10326683404855,500.11715416703373,500.8699739589356,501.0837227089796,501.0837227089796,501.0837227089796,502.08352491701953,502.08352491701953,502.08352491701953,502.08352491701953,503.0834300420247,200005,001,2023-04-04_10h42.43.735,DMS_et_12-36,2022.2.4,None,
63,UNPRED,12,1.0031378749430149,0,images/picture_1.png,images/picture_1.png,0,"[-11.733433509789466, -11.733433509789462]",-11.733433509789464,-11.733433509789462,images/picture_2.png,1,"[11.733433509789462, -11.733433509789466]",11.733433509789462,-11.733433509789464,images/picture_3.png,2,"[11.733433509789464, 11.733433509789462]",11.733433509789464,11.733433509789462,0,1,1,1.0031378749430149,2.003137874943015,0.9968621250569848,3.0,1,1.7531378749430149,0,4.0,3.0,1,2,7,0,7,0,0,6,6,0,,,,,,,503.0834300420247,503.0834300420247,504.0837286671158,504.85024454211816,505.0836650840938,505.0836650840938,505.0836650840938,506.0839059590362,506.0839059590362,506.0839059590362,506.0839059590362,507.10246825008653,200005,001,2023-04-04_10h42.43.735,DMS_et_12-36,2022.2.4,None,
67,UNPRED,12,1.0031378749430149,2,images/picture_3.png,images/picture_1.png,0,"[11.733433509789464, 11.733433509789462]",11.733433509789464,11.733433509789462,images/picture_2.png,1,"[-11.733433509789462, 11.733433509789464]",-11.733433509789462,11.733433509789464,images/picture_3.png,2,"[11.733433509789462, -11.733433509789466]",11.733433509789462,-11.733433509789464,0,1,1,1.0031378749430149,2.003137874943015,0.9968621250569848,3.0,1,1.7531378749430149,0,4.0,3.0,1,2,7,0,7,0,0,7,7,4,,,,,,,507.10246825008653,507.10246825008653,508.1171347501222,508.8698081250768,509.0838902089745,509.0838902089745,509.0838902089745,510.0836947921198,510.0836947921198,510.0836947921198,510.0836947921198,511.10253537492827,200005,001,2023-04-04_10h42.43.735,DMS_et_12-36,2022.2.4,None,
64,UNPRED,12,1.0031378749430149,2,images/picture_3.png,images/picture_1.png,0,"[-11.733433509789466, -11.733433509789462]",-11.733433509789464,-11.733433509789462,images/picture_2.png,1,"[-11.733433509789462, 11.733433509789464]",-11.733433509789462,11.733433509789464,images/picture_3.png,2,"[11.733433509789464, 11.733433509789462]",11.733433509789464,11.733433509789462,0,1,1,1.0031378749430149,2.003137874943015,0.9968621250569848,3.0,1,1.7531378749430149,0,4.0,3.0,1,2,7,0,7,0,0,8,8,1,,,,,,,511.10253537492827,511.10253537492827,512.1168160419911,512.8700570419896,513.0838733750861,513.0838733750861,513.0838733750861,514.0838955841027,514.0838955841027,514.0838955841027,514.0838955841027,515.1708605000749,200005,001,2023-04-04_10h42.43.735,DMS_et_12-36,2022.2.4,None,
,,,,,,,,,,,,,,,,,,,,,,,,,,,,,,,,,,,7,0,7,0,,,,,,,,,515.1708605000749,527.2063266669866,,,,,,,,,,,,,200005,001,2023-04-04_10h42.43.735,DMS_et_12-36,2022.2.4,None,
80,PRED,12,1.0031378749430149,1,images/picture_2.png,images/picture_1.png,0,"[-11.733433509789466, -11.733433509789462]",-11.733433509789464,-11.733433509789462,images/picture_2.png,1,"[11.733433509789464, 11.733433509789462]",11.733433509789464,11.733433509789462,images/picture_3.png,2,"[-11.733433509789462, 11.733433509789464]",-11.733433509789462,11.733433509789464,0,1,1,1.0031378749430149,2.003137874943015,0.9968621250569848,3.0,1,1.7531378749430149,0,4.0,3.0,1,2,8,0,8,0,0,0,0,8,,,,,,,527.2063266669866,527.2063266669866,528.217197209131,528.9697974589653,529.2035707500763,529.2035707500763,529.2035707500763,530.2030158340931,530.2030158340931,530.2030158340931,530.2030158340931,531.2166362500284,200005,001,2023-04-04_10h42.43.735,DMS_et_12-36,2022.2.4,None,
74,PRED,12,1.0031378749430149,1,images/picture_2.png,images/picture_1.png,0,"[-11.733433509789466, -11.733433509789462]",-11.733433509789464,-11.733433509789462,images/picture_2.png,1,"[11.733433509789462, -11.733433509789466]",11.733433509789462,-11.733433509789464,images/picture_3.png,2,"[11.733433509789464, 11.733433509789462]",11.733433509789464,11.733433509789462,0,1,1,1.0031378749430149,2.003137874943015,0.9968621250569848,3.0,1,1.7531378749430149,0,4.0,3.0,1,2,8,0,8,0,0,1,1,2,,,,,,,531.2166362500284,531.2166362500284,532.2168605839834,532.9835230419412,533.2169669589493,533.2169669589493,533.2169669589493,534.2169728749432,534.2169728749432,534.2169728749432,534.2169728749432,535.2167142499238,200005,001,2023-04-04_10h42.43.735,DMS_et_12-36,2022.2.4,None,
78,PRED,12,1.0031378749430149,1,images/picture_2.png,images/picture_1.png,0,"[11.733433509789462, -11.733433509789466]",11.733433509789462,-11.733433509789464,images/picture_2.png,1,"[-11.733433509789466, -11.733433509789462]",-11.733433509789464,-11.733433509789462,images/picture_3.png,2,"[11.733433509789464, 11.733433509789462]",11.733433509789464,11.733433509789462,0,1,1,1.0031378749430149,2.003137874943015,0.9968621250569848,3.0,1,1.7531378749430149,0,4.0,3.0,1,2,8,0,8,0,0,2,2,6,,,,,,,535.2167142499238,535.2167142499238,536.2172044999897,536.9839925421402,537.21718895901,537.21718895901,537.21718895901,538.21727775014,538.21727775014,538.21727775014,538.21727775014,539.2167369171511,200005,001,2023-04-04_10h42.43.735,DMS_et_12-36,2022.2.4,None,
73,PRED,12,1.0031378749430149,1,images/picture_2.png,images/picture_1.png,0,"[-11.733433509789466, -11.733433509789462]",-11.733433509789464,-11.733433509789462,images/picture_2.png,1,"[-11.733433509789462, 11.733433509789464]",-11.733433509789462,11.733433509789464,images/picture_3.png,2,"[11.733433509789464, 11.733433509789462]",11.733433509789464,11.733433509789462,0,1,1,1.0031378749430149,2.003137874943015,0.9968621250569848,3.0,1,1.7531378749430149,0,4.0,3.0,1,2,8,0,8,0,0,3,3,1,,,,,,,539.2167369171511,539.2167369171511,540.2171704999637,540.9838774590753,541.2171745421365,541.2171745421365,541.2171745421365,542.2174313340802,542.2174313340802,542.2174313340802,542.2174313340802,543.2169068339281,200005,001,2023-04-04_10h42.43.735,DMS_et_12-36,2022.2.4,None,
77,PRED,12,1.0031378749430149,1,images/picture_2.png,images/picture_1.png,0,"[11.733433509789462, -11.733433509789466]",11.733433509789462,-11.733433509789464,images/picture_2.png,1,"[-11.733433509789462, 11.733433509789464]",-11.733433509789462,11.733433509789464,images/picture_3.png,2,"[11.733433509789464, 11.733433509789462]",11.733433509789464,11.733433509789462,0,1,1,1.0031378749430149,2.003137874943015,0.9968621250569848,3.0,1,1.7531378749430149,0,4.0,3.0,1,2,8,0,8,0,0,4,4,5,,,,,,,543.2169068339281,543.2169068339281,544.2172493340913,544.9839345840737,545.2169822920114,545.2169822920114,545.2169822920114,546.2172208339907,546.2172208339907,546.2172208339907,546.2172208339907,547.2165962089784,200005,001,2023-04-04_10h42.43.735,DMS_et_12-36,2022.2.4,None,
72,PRED,12,1.0031378749430149,1,images/picture_2.png,images/picture_1.png,0,"[11.733433509789464, 11.733433509789462]",11.733433509789464,11.733433509789462,images/picture_2.png,1,"[11.733433509789462, -11.733433509789466]",11.733433509789462,-11.733433509789464,images/picture_3.png,2,"[-11.733433509789462, 11.733433509789464]",-11.733433509789462,11.733433509789464,0,1,1,1.0031378749430149,2.003137874943015,0.9968621250569848,3.0,1,1.7531378749430149,0,4.0,3.0,1,2,8,0,8,0,0,5,5,0,,,,,,,547.2165962089784,547.2165962089784,548.2171915839426,548.9839089170564,549.2172094590496,549.2172094590496,549.2172094590496,550.2171924170107,550.2171924170107,550.2171924170107,550.2171924170107,551.2167795000132,200005,001,2023-04-04_10h42.43.735,DMS_et_12-36,2022.2.4,None,
76,PRED,12,1.0031378749430149,1,images/picture_2.png,images/picture_1.png,0,"[11.733433509789464, 11.733433509789462]",11.733433509789464,11.733433509789462,images/picture_2.png,1,"[-11.733433509789466, -11.733433509789462]",-11.733433509789464,-11.733433509789462,images/picture_3.png,2,"[11.733433509789462, -11.733433509789466]",11.733433509789462,-11.733433509789464,0,1,1,1.0031378749430149,2.003137874943015,0.9968621250569848,3.0,1,1.7531378749430149,0,4.0,3.0,1,2,8,0,8,0,0,6,6,4,,,,,,,551.2167795000132,551.2167795000132,552.2172607500106,552.9836412090808,553.2169275840279,553.2169275840279,553.2169275840279,554.2172517920844,554.2172517920844,554.2172517920844,554.2172517920844,555.2167780839372,200005,001,2023-04-04_10h42.43.735,DMS_et_12-36,2022.2.4,None,
75,PRED,12,1.0031378749430149,1,images/picture_2.png,images/picture_1.png,0,"[-11.733433509789462, 11.733433509789464]",-11.733433509789462,11.733433509789464,images/picture_2.png,1,"[11.733433509789464, 11.733433509789462]",11.733433509789464,11.733433509789462,images/picture_3.png,2,"[-11.733433509789466, -11.733433509789462]",-11.733433509789464,-11.733433509789462,0,1,1,1.0031378749430149,2.003137874943015,0.9968621250569848,3.0,1,1.7531378749430149,0,4.0,3.0,1,2,8,0,8,0,0,7,7,3,,,,,,,555.2167780839372,555.2167780839372,556.2170569589362,556.9839343749918,557.2171832090244,557.2171832090244,557.2171832090244,558.2172691670712,558.2172691670712,558.2172691670712,558.2172691670712,559.2166940839961,200005,001,2023-04-04_10h42.43.735,DMS_et_12-36,2022.2.4,None,
79,PRED,12,1.0031378749430149,1,images/picture_2.png,images/picture_1.png,0,"[-11.733433509789462, 11.733433509789464]",-11.733433509789462,11.733433509789464,images/picture_2.png,1,"[-11.733433509789466, -11.733433509789462]",-11.733433509789464,-11.733433509789462,images/picture_3.png,2,"[11.733433509789464, 11.733433509789462]",11.733433509789464,11.733433509789462,0,1,1,1.0031378749430149,2.003137874943015,0.9968621250569848,3.0,1,1.7531378749430149,0,4.0,3.0,1,2,8,0,8,0,0,8,8,7,,,,,,,559.2166940839961,559.2166940839961,560.2172127091326,560.9838957090396,561.2174369171262,561.2174369171262,561.2174369171262,562.217185708927,562.217185708927,562.217185708927,562.217185708927,563.2970642091241,200005,001,2023-04-04_10h42.43.735,DMS_et_12-36,2022.2.4,None,
,,,,,,,,,,,,,,,,,,,,,,,,,,,,,,,,,,,8,0,8,0,,,,,,,,,563.2970642091241,575.3180519589223,,,,,,,,,,,,,200005,001,2023-04-04_10h42.43.735,DMS_et_12-36,2022.2.4,None,
83,UNPRED,12,1.0031378749430149,1,images/picture_2.png,images/picture_1.png,0,"[11.733433509789464, 11.733433509789462]",11.733433509789464,11.733433509789462,images/picture_2.png,1,"[-11.733433509789462, 11.733433509789464]",-11.733433509789462,11.733433509789464,images/picture_3.png,2,"[-11.733433509789466, -11.733433509789462]",-11.733433509789464,-11.733433509789462,0,1,1,1.0031378749430149,2.003137874943015,0.9968621250569848,3.0,1,1.7531378749430149,0,4.0,3.0,1,2,9,0,9,0,0,0,0,2,,,,,,,575.3180519589223,575.3180519589223,576.3172075839248,577.0838832501322,577.3172355000861,577.3172355000861,577.3172355000861,578.3171843751334,578.3171843751334,578.3171843751334,578.3171843751334,579.3166417090688,200005,001,2023-04-04_10h42.43.735,DMS_et_12-36,2022.2.4,None,
81,UNPRED,12,1.0031378749430149,1,images/picture_2.png,images/picture_1.png,0,"[-11.733433509789466, -11.733433509789462]",-11.733433509789464,-11.733433509789462,images/picture_2.png,1,"[-11.733433509789462, 11.733433509789464]",-11.733433509789462,11.733433509789464,images/picture_3.png,2,"[11.733433509789462, -11.733433509789466]",11.733433509789462,-11.733433509789464,0,1,1,1.0031378749430149,2.003137874943015,0.9968621250569848,3.0,1,1.7531378749430149,0,4.0,3.0,1,2,9,0,9,0,0,1,1,0,,,,,,,579.3166417090688,579.3166417090688,580.3171815839596,581.0839029171038,581.3172583340202,581.3172583340202,581.3172583340202,582.3172196671367,582.3172196671367,582.3172196671367,582.3172196671367,583.3169559170492,200005,001,2023-04-04_10h42.43.735,DMS_et_12-36,2022.2.4,None,
86,UNPRED,12,1.0031378749430149,0,images/picture_1.png,images/picture_1.png,0,"[-11.733433509789462, 11.733433509789464]",-11.733433509789462,11.733433509789464,images/picture_2.png,1,"[11.733433509789462, -11.733433509789466]",11.733433509789462,-11.733433509789464,images/picture_3.png,2,"[11.733433509789464, 11.733433509789462]",11.733433509789464,11.733433509789462,0,1,1,1.0031378749430149,2.003137874943015,0.9968621250569848,3.0,1,1.7531378749430149,0,4.0,3.0,1,2,9,0,9,0,0,2,2,5,,,,,,,583.3169559170492,583.3169559170492,584.3170680420008,585.0839176669251,585.317286875099,585.317286875099,585.317286875099,586.3174038750585,586.3174038750585,586.3174038750585,586.3174038750585,587.3361484170891,200005,001,2023-04-04_10h42.43.735,DMS_et_12-36,2022.2.4,None,
85,UNPRED,12,1.0031378749430149,2,images/picture_3.png,images/picture_1.png,0,"[11.733433509789464, 11.733433509789462]",11.733433509789464,11.733433509789462,images/picture_2.png,1,"[-11.733433509789462, 11.733433509789464]",-11.733433509789462,11.733433509789464,images/picture_3.png,2,"[-11.733433509789466, -11.733433509789462]",-11.733433509789464,-11.733433509789462,0,1,1,1.0031378749430149,2.003137874943015,0.9968621250569848,3.0,1,1.7531378749430149,0,4.0,3.0,1,2,9,0,9,0,0,3,3,4,,,,,,,587.3361484170891,587.3361484170891,588.3506379590835,589.1035404999275,589.3171429589856,589.3171429589856,589.3171429589856,590.3172472920269,590.3172472920269,590.3172472920269,590.3172472920269,591.317693250021,200005,001,2023-04-04_10h42.43.735,DMS_et_12-36,2022.2.4,None,
82,UNPRED,12,1.0031378749430149,0,images/picture_1.png,images/picture_1.png,0,"[-11.733433509789462, 11.733433509789464]",-11.733433509789462,11.733433509789464,images/picture_2.png,1,"[11.733433509789464, 11.733433509789462]",11.733433509789464,11.733433509789462,images/picture_3.png,2,"[11.733433509789462, -11.733433509789466]",11.733433509789462,-11.733433509789464,0,1,1,1.0031378749430149,2.003137874943015,0.9968621250569848,3.0,1,1.7531378749430149,0,4.0,3.0,1,2,9,0,9,0,0,4,4,1,,,,,,,591.317693250021,591.317693250021,592.3173867089208,593.0839082500897,593.3172115420457,593.3172115420457,593.3172115420457,594.3171130840201,594.3171130840201,594.3171130840201,594.3171130840201,595.3167954590172,200005,001,2023-04-04_10h42.43.735,DMS_et_12-36,2022.2.4,None,
84,UNPRED,12,1.0031378749430149,0,images/picture_1.png,images/picture_1.png,0,"[11.733433509789464, 11.733433509789462]",11.733433509789464,11.733433509789462,images/picture_2.png,1,"[11.733433509789462, -11.733433509789466]",11.733433509789462,-11.733433509789464,images/picture_3.png,2,"[-11.733433509789466, -11.733433509789462]",-11.733433509789464,-11.733433509789462,0,1,1,1.0031378749430149,2.003137874943015,0.9968621250569848,3.0,1,1.7531378749430149,0,4.0,3.0,1,2,9,0,9,0,0,5,5,3,,,,,,,595.3167954590172,595.3167954590172,596.3171751250047,597.083866833942,597.3171940420289,597.3171940420289,597.3171940420289,598.317267708946,598.317267708946,598.317267708946,598.317267708946,599.33600999997,200005,001,2023-04-04_10h42.43.735,DMS_et_12-36,2022.2.4,None,
87,UNPRED,12,1.0031378749430149,2,images/picture_3.png,images/picture_1.png,0,"[-11.733433509789466, -11.733433509789462]",-11.733433509789464,-11.733433509789462,images/picture_2.png,1,"[11.733433509789462, -11.733433509789466]",11.733433509789462,-11.733433509789464,images/picture_3.png,2,"[11.733433509789464, 11.733433509789462]",11.733433509789464,11.733433509789462,0,1,1,1.0031378749430149,2.003137874943015,0.9968621250569848,3.0,1,1.7531378749430149,0,4.0,3.0,1,2,9,0,9,0,0,6,6,6,,,,,,,599.33600999997,599.33600999997,600.3506727500353,601.1033299590927,601.3173848339356,601.3173848339356,601.3173848339356,602.3173060000408,602.3173060000408,602.3173060000408,602.3173060000408,603.3171552920248,200005,001,2023-04-04_10h42.43.735,DMS_et_12-36,2022.2.4,None,
89,UNPRED,12,1.0031378749430149,0,images/picture_1.png,images/picture_1.png,0,"[11.733433509789462, -11.733433509789466]",11.733433509789462,-11.733433509789464,images/picture_2.png,1,"[11.733433509789464, 11.733433509789462]",11.733433509789464,11.733433509789462,images/picture_3.png,2,"[-11.733433509789466, -11.733433509789462]",-11.733433509789464,-11.733433509789462,0,1,1,1.0031378749430149,2.003137874943015,0.9968621250569848,3.0,1,1.7531378749430149,0,4.0,3.0,1,2,9,0,9,0,0,7,7,8,,,,,,,603.3171552920248,603.3171552920248,604.317011334002,605.083705249941,605.3171251669992,605.3171251669992,605.3171251669992,606.3173565000761,606.3173565000761,606.3173565000761,606.3173565000761,607.3167408751324,200005,001,2023-04-04_10h42.43.735,DMS_et_12-36,2022.2.4,None,
88,UNPRED,12,1.0031378749430149,0,images/picture_1.png,images/picture_1.png,0,"[11.733433509789464, 11.733433509789462]",11.733433509789464,11.733433509789462,images/picture_2.png,1,"[-11.733433509789466, -11.733433509789462]",-11.733433509789464,-11.733433509789462,images/picture_3.png,2,"[11.733433509789462, -11.733433509789466]",11.733433509789462,-11.733433509789464,0,1,1,1.0031378749430149,2.003137874943015,0.9968621250569848,3.0,1,1.7531378749430149,0,4.0,3.0,1,2,9,0,9,0,0,8,8,7,,,,,,,607.3167408751324,607.3167408751324,608.3172101669479,609.08396416693,609.3171757920645,609.3171757920645,609.3171757920645,610.3172249591444,610.3172249591444,610.3172249591444,610.3172249591444,611.4205886251293,200005,001,2023-04-04_10h42.43.735,DMS_et_12-36,2022.2.4,None,
,,,,,,,,,,,,,,,,,,,,,,,,,,,,,,,,,,,9,0,9,0,,,,,,,,,611.4205886251293,623.4499919591472,,,,,,,,,,,,,200005,001,2023-04-04_10h42.43.735,DMS_et_12-36,2022.2.4,None,
93,PRED,12,1.0031378749430149,2,images/picture_3.png,images/picture_1.png,0,"[11.733433509789462, -11.733433509789466]",11.733433509789462,-11.733433509789464,images/picture_2.png,1,"[11.733433509789464, 11.733433509789462]",11.733433509789464,11.733433509789462,images/picture_3.png,2,"[-11.733433509789466, -11.733433509789462]",-11.733433509789464,-11.733433509789462,0,1,1,1.0031378749430149,2.003137874943015,0.9968621250569848,3.0,1,1.7531378749430149,0,4.0,3.0,1,2,10,0,10,0,0,0,0,3,,,,,,,623.4499919591472,623.4499919591472,624.4505950841121,625.2169684169348,625.4503352500033,625.4503352500033,625.4503352500033,626.4506265420932,626.4506265420932,626.4506265420932,626.4365862500854,627.4695964169223,200005,001,2023-04-04_10h42.43.735,DMS_et_12-36,2022.2.4,None,
91,PRED,12,1.0031378749430149,2,images/picture_3.png,images/picture_1.png,0,"[11.733433509789464, 11.733433509789462]",11.733433509789464,11.733433509789462,images/picture_2.png,1,"[11.733433509789462, -11.733433509789466]",11.733433509789462,-11.733433509789464,images/picture_3.png,2,"[-11.733433509789462, 11.733433509789464]",-11.733433509789462,11.733433509789464,0,1,1,1.0031378749430149,2.003137874943015,0.9968621250569848,3.0,1,1.7531378749430149,0,4.0,3.0,1,2,10,0,10,0,0,1,1,1,,,,,,,627.4695964169223,627.4695964169223,628.4848604169674,629.236879167147,629.4506160840392,629.4506160840392,629.4506160840392,630.4506325840484,630.4506325840484,630.4506325840484,630.4506325840484,631.4694835839327,200005,001,2023-04-04_10h42.43.735,DMS_et_12-36,2022.2.4,None,
98,PRED,12,1.0031378749430149,2,images/picture_3.png,images/picture_1.png,0,"[-11.733433509789466, -11.733433509789462]",-11.733433509789464,-11.733433509789462,images/picture_2.png,1,"[11.733433509789462, -11.733433509789466]",11.733433509789462,-11.733433509789464,images/picture_3.png,2,"[11.733433509789464, 11.733433509789462]",11.733433509789464,11.733433509789462,0,1,1,1.0031378749430149,2.003137874943015,0.9968621250569848,3.0,1,1.7531378749430149,0,4.0,3.0,1,2,10,0,10,0,0,2,2,8,,,,,,,631.4694835839327,631.4694835839327,632.4839126251172,633.2369810841046,633.4507449171506,633.4507449171506,633.4507449171506,634.4506335000042,634.4506335000042,634.4506335000042,634.4506335000042,635.469764709007,200005,001,2023-04-04_10h42.43.735,DMS_et_12-36,2022.2.4,None,
92,PRED,12,1.0031378749430149,2,images/picture_3.png,images/picture_1.png,0,"[-11.733433509789466, -11.733433509789462]",-11.733433509789464,-11.733433509789462,images/picture_2.png,1,"[-11.733433509789462, 11.733433509789464]",-11.733433509789462,11.733433509789464,images/picture_3.png,2,"[11.733433509789464, 11.733433509789462]",11.733433509789464,11.733433509789462,0,1,1,1.0031378749430149,2.003137874943015,0.9968621250569848,3.0,1,1.7531378749430149,0,4.0,3.0,1,2,10,0,10,0,0,3,3,2,,,,,,,635.469764709007,635.469764709007,636.4839678751305,637.236904917052,637.4512256251182,637.4512256251182,637.4512256251182,638.4507120840717,638.4507120840717,638.4507120840717,638.4507120840717,639.469625292113,200005,001,2023-04-04_10h42.43.735,DMS_et_12-36,2022.2.4,None,
96,PRED,12,1.0031378749430149,2,images/picture_3.png,images/picture_1.png,0,"[-11.733433509789466, -11.733433509789462]",-11.733433509789464,-11.733433509789462,images/picture_2.png,1,"[11.733433509789464, 11.733433509789462]",11.733433509789464,11.733433509789462,images/picture_3.png,2,"[-11.733433509789462, 11.733433509789464]",-11.733433509789462,11.733433509789464,0,1,1,1.0031378749430149,2.003137874943015,0.9968621250569848,3.0,1,1.7531378749430149,0,4.0,3.0,1,2,10,0,10,0,0,4,4,6,,,,,,,639.469625292113,639.469625292113,640.4839585840236,641.2368293751497,641.4506327500567,641.4506327500567,641.4506327500567,642.4506361249369,642.4506361249369,642.4506361249369,642.4506361249369,643.4695221250877,200005,001,2023-04-04_10h42.43.735,DMS_et_12-36,2022.2.4,None,
95,PRED,12,1.0031378749430149,2,images/picture_3.png,images/picture_1.png,0,"[11.733433509789462, -11.733433509789466]",11.733433509789462,-11.733433509789464,images/picture_2.png,1,"[-11.733433509789462, 11.733433509789464]",-11.733433509789462,11.733433509789464,images/picture_3.png,2,"[-11.733433509789466, -11.733433509789462]",-11.733433509789464,-11.733433509789462,0,1,1,1.0031378749430149,2.003137874943015,0.9968621250569848,3.0,1,1.7531378749430149,0,4.0,3.0,1,2,10,0,10,0,0,5,5,5,,,,,,,643.4695221250877,643.4695221250877,644.4840203749482,645.236646209145,645.4502639169805,645.4502639169805,645.4502639169805,646.4507996670436,646.4507996670436,646.4507996670436,646.4507996670436,647.469396749977,200005,001,2023-04-04_10h42.43.735,DMS_et_12-36,2022.2.4,None,
94,PRED,12,1.0031378749430149,2,images/picture_3.png,images/picture_1.png,0,"[11.733433509789464, 11.733433509789462]",11.733433509789464,11.733433509789462,images/picture_2.png,1,"[-11.733433509789462, 11.733433509789464]",-11.733433509789462,11.733433509789464,images/picture_3.png,2,"[-11.733433509789466, -11.733433509789462]",-11.733433509789464,-11.733433509789462,0,1,1,1.0031378749430149,2.003137874943015,0.9968621250569848,3.0,1,1.7531378749430149,0,4.0,3.0,1,2,10,0,10,0,0,6,6,4,,,,,,,647.469396749977,647.469396749977,648.4839010420255,649.2369866250083,649.4503931670915,649.4503931670915,649.4503931670915,650.4507013750263,650.4507013750263,650.4507013750263,650.4507013750263,651.4700474590063,200005,001,2023-04-04_10h42.43.735,DMS_et_12-36,2022.2.4,None,
97,PRED,12,1.0031378749430149,2,images/picture_3.png,images/picture_1.png,0,"[11.733433509789464, 11.733433509789462]",11.733433509789464,11.733433509789462,images/picture_2.png,1,"[-11.733433509789466, -11.733433509789462]",-11.733433509789464,-11.733433509789462,images/picture_3.png,2,"[11.733433509789462, -11.733433509789466]",11.733433509789462,-11.733433509789464,0,1,1,1.0031378749430149,2.003137874943015,0.9968621250569848,3.0,1,1.7531378749430149,0,4.0,3.0,1,2,10,0,10,0,0,7,7,7,,,,,,,651.4700474590063,651.4700474590063,652.4839062090032,653.2366824999917,653.4504949171096,653.4504949171096,653.4504949171096,654.450887291925,654.450887291925,654.450887291925,654.450887291925,655.4697185000405,200005,001,2023-04-04_10h42.43.735,DMS_et_12-36,2022.2.4,None,
90,PRED,12,1.0031378749430149,2,images/picture_3.png,images/picture_1.png,0,"[-11.733433509789462, 11.733433509789464]",-11.733433509789462,11.733433509789464,images/picture_2.png,1,"[11.733433509789462, -11.733433509789466]",11.733433509789462,-11.733433509789464,images/picture_3.png,2,"[11.733433509789464, 11.733433509789462]",11.733433509789464,11.733433509789462,0,1,1,1.0031378749430149,2.003137874943015,0.9968621250569848,3.0,1,1.7531378749430149,0,4.0,3.0,1,2,10,0,10,0,0,8,8,0,,,,,,,655.4697185000405,655.4697185000405,656.4837209589314,657.2367865419947,657.4506409999449,657.4506409999449,657.4506409999449,658.4506805001292,658.4506805001292,658.4506805001292,658.4506805001292,659.5604757091496,200005,001,2023-04-04_10h42.43.735,DMS_et_12-36,2022.2.4,None,
,,,,,,,,,,,,,,,,,,,,,,,,,,,,,,,,,,,10,0,10,0,,,,,,,,,659.5604757091496,671.5902313750703,,,,,,,,,,,,,200005,001,2023-04-04_10h42.43.735,DMS_et_12-36,2022.2.4,None,
101,UNPRED,12,1.0031378749430149,0,images/picture_1.png,images/picture_1.png,0,"[11.733433509789462, -11.733433509789466]",11.733433509789462,-11.733433509789464,images/picture_2.png,1,"[-11.733433509789462, 11.733433509789464]",-11.733433509789462,11.733433509789464,images/picture_3.png,2,"[-11.733433509789466, -11.733433509789462]",-11.733433509789464,-11.733433509789462,0,1,1,1.0031378749430149,2.003137874943015,0.9968621250569848,3.0,1,1.7531378749430149,0,4.0,3.0,1,2,11,0,11,0,0,0,0,2,,,,,,,671.5902313750703,671.5902313750703,672.6035463339649,673.3507127920166,673.5840073749423,673.5840073749423,673.5840073749423,674.583989124978,674.583989124978,674.583989124978,674.583989124978,675.6029105419293,200005,001,2023-04-04_10h42.43.735,DMS_et_12-36,2022.2.4,None,
105,UNPRED,12,1.0031378749430149,2,images/picture_3.png,images/picture_1.png,0,"[-11.733433509789466, -11.733433509789462]",-11.733433509789464,-11.733433509789462,images/picture_2.png,1,"[-11.733433509789462, 11.733433509789464]",-11.733433509789462,11.733433509789464,images/picture_3.png,2,"[11.733433509789464, 11.733433509789462]",11.733433509789464,11.733433509789462,0,1,1,1.0031378749430149,2.003137874943015,0.9968621250569848,3.0,1,1.7531378749430149,0,4.0,3.0,1,2,11,0,11,0,0,1,1,6,,,,,,,675.6029105419293,675.6029105419293,676.6170479999855,677.3703450839967,677.5838986251038,677.5838986251038,677.5838986251038,678.5839459169656,678.5839459169656,678.5839459169656,678.5839459169656,679.6033905840013,200005,001,2023-04-04_10h42.43.735,DMS_et_12-36,2022.2.4,None,
102,UNPRED,12,1.0031378749430149,1,images/picture_2.png,images/picture_1.png,0,"[11.733433509789462, -11.733433509789466]",11.733433509789462,-11.733433509789464,images/picture_2.png,1,"[11.733433509789464, 11.733433509789462]",11.733433509789464,11.733433509789462,images/picture_3.png,2,"[-11.733433509789466, -11.733433509789462]",-11.733433509789464,-11.733433509789462,0,1,1,1.0031378749430149,2.003137874943015,0.9968621250569848,3.0,1,1.7531378749430149,0,4.0,3.0,1,2,11,0,11,0,0,2,2,3,,,,,,,679.6033905840013,679.6033905840013,680.6174159590155,681.3700795420446,681.5841277090367,681.5841277090367,681.5841277090367,682.5841189590283,682.5841189590283,682.5841189590283,682.5841189590283,683.583688667044,200005,001,2023-04-04_10h42.43.735,DMS_et_12-36,2022.2.4,None,
99,UNPRED,12,1.0031378749430149,1,images/picture_2.png,images/picture_1.png,0,"[-11.733433509789466, -11.733433509789462]",-11.733433509789464,-11.733433509789462,images/picture_2.png,1,"[11.733433509789464, 11.733433509789462]",11.733433509789464,11.733433509789462,images/picture_3.png,2,"[-11.733433509789462, 11.733433509789464]",-11.733433509789462,11.733433509789464,0,1,1,1.0031378749430149,2.003137874943015,0.9968621250569848,3.0,1,1.7531378749430149,0,4.0,3.0,1,2,11,0,11,0,0,3,3,0,,,,,,,683.583688667044,683.583688667044,684.5839681250509,685.3506700000726,685.5839960840531,685.5839960840531,685.5839960840531,686.5838085419964,686.5838085419964,686.5838085419964,686.5838085419964,687.5837198339868,200005,001,2023-04-04_10h42.43.735,DMS_et_12-36,2022.2.4,None,
100,UNPRED,12,1.0031378749430149,1,images/picture_2.png,images/picture_1.png,0,"[11.733433509789462, -11.733433509789466]",11.733433509789462,-11.733433509789464,images/picture_2.png,1,"[-11.733433509789466, -11.733433509789462]",-11.733433509789464,-11.733433509789462,images/picture_3.png,2,"[-11.733433509789462, 11.733433509789464]",-11.733433509789462,11.733433509789464,0,1,1,1.0031378749430149,2.003137874943015,0.9968621250569848,3.0,1,1.7531378749430149,0,4.0,3.0,1,2,11,0,11,0,0,4,4,1,,,,,,,687.5837198339868,687.5837198339868,688.5841590841301,689.3507475841325,689.5842133341357,689.5842133341357,689.5842133341357,690.5839436671231,690.5839436671231,690.5839436671231,690.5839436671231,691.5842025419697,200005,001,2023-04-04_10h42.43.735,DMS_et_12-36,2022.2.4,None,
106,UNPRED,12,1.0031378749430149,0,images/picture_1.png,images/picture_1.png,0,"[-11.733433509789462, 11.733433509789464]",-11.733433509789462,11.733433509789464,images/picture_2.png,1,"[11.733433509789464, 11.733433509789462]",11.733433509789464,11.733433509789462,images/picture_3.png,2,"[11.733433509789462, -11.733433509789466]",11.733433509789462,-11.733433509789464,0,1,1,1.0031378749430149,2.003137874943015,0.9968621250569848,3.0,1,1.7531378749430149,0,4.0,3.0,1,2,11,0,11,0,0,5,5,7,,,,,,,691.5842025419697,691.5842025419697,692.584125667112,693.3509440000635,693.5839679171331,693.5839679171331,693.5839679171331,694.5841699999291,694.5841699999291,694.5841699999291,694.5841699999291,695.5838352090213,200005,001,2023-04-04_10h42.43.735,DMS_et_12-36,2022.2.4,None,
103,UNPRED,12,1.0031378749430149,1,images/picture_2.png,images/picture_1.png,0,"[11.733433509789464, 11.733433509789462]",11.733433509789464,11.733433509789462,images/picture_2.png,1,"[-11.733433509789466, -11.733433509789462]",-11.733433509789464,-11.733433509789462,images/picture_3.png,2,"[11.733433509789462, -11.733433509789466]",11.733433509789462,-11.733433509789464,0,1,1,1.0031378749430149,2.003137874943015,0.9968621250569848,3.0,1,1.7531378749430149,0,4.0,3.0,1,2,11,0,11,0,0,6,6,4,,,,,,,695.5838352090213,695.5838352090213,696.5836952091195,697.3504685419612,697.5838461250532,697.5838461250532,697.5838461250532,698.5842264171224,698.5842264171224,698.5842264171224,698.5842264171224,699.5833064590115,200005,001,2023-04-04_10h42.43.735,DMS_et_12-36,2022.2.4,None,
104,UNPRED,12,1.0031378749430149,0,images/picture_1.png,images/picture_1.png,0,"[11.733433509789464, 11.733433509789462]",11.733433509789464,11.733433509789462,images/picture_2.png,1,"[-11.733433509789466, -11.733433509789462]",-11.733433509789464,-11.733433509789462,images/picture_3.png,2,"[11.733433509789462, -11.733433509789466]",11.733433509789462,-11.733433509789464,0,1,1,1.0031378749430149,2.003137874943015,0.9968621250569848,3.0,1,1.7531378749430149,0,4.0,3.0,1,2,11,0,11,0,0,7,7,5,,,,,,,699.5833064590115,699.5833064590115,700.5841100839898,701.3508282089606,701.5841304999776,701.5841304999776,701.5841304999776,702.5841873751488,702.5841873751488,702.5841873751488,702.5841873751488,703.5829557499383,200005,001,2023-04-04_10h42.43.735,DMS_et_12-36,2022.2.4,None,
107,UNPRED,12,1.0031378749430149,1,images/picture_2.png,images/picture_1.png,0,"[11.733433509789462, -11.733433509789466]",11.733433509789462,-11.733433509789464,images/picture_2.png,1,"[-11.733433509789466, -11.733433509789462]",-11.733433509789464,-11.733433509789462,images/picture_3.png,2,"[11.733433509789464, 11.733433509789462]",11.733433509789464,11.733433509789462,0,1,1,1.0031378749430149,2.003137874943015,0.9968621250569848,3.0,1,1.7531378749430149,0,4.0,3.0,1,2,11,0,11,0,0,8,8,8,,,,,,,703.5829557499383,703.5829557499383,704.5843937089667,705.3508660839871,705.5839156250004,705.5839156250004,705.5839156250004,706.584176500095,706.584176500095,706.584176500095,706.584176500095,707.7027523750439,200005,001,2023-04-04_10h42.43.735,DMS_et_12-36,2022.2.4,None,
,,,,,,,,,,,,,,,,,,,,,,,,,,,,,,,,,,,11,0,11,0,,,,,,,,,707.7027523750439,719.8483874590602,,,,,,,,,,,,,200005,001,2023-04-04_10h42.43.735,DMS_et_12-36,2022.2.4,None,
,,,,,,,,,,,,,,,,,,,,,,,,,,,,,,,,,,,,,,,,,,,,,,,719.8483874590602,732.3778578750789,,,,,,,,,,,,,,,,,,,
