trial_count,blockType,blockNum,delay_time,stimImage_i,stimImage,responseImage1,responseImage1_i,responseImage1_pos,responseImage1_X,responseImage1_Y,responseImage2,responseImage2_i,responseImage2_pos,responseImage2_X,responseImage2_Y,responseImage3,responseImage3_i,responseImage3_pos,responseImage3_X,responseImage3_Y,cue_onset,cue_dur,delay_onset,delay_dur,resp_onset,resp_dur,rest_onset,rest_dur,circle_dur,circle_onset,total_dur,cross_onset,cross_dur,delay_resp_period,blocks.thisRepN,blocks.thisTrialN,blocks.thisN,blocks.thisIndex,trials.thisRepN,trials.thisTrialN,trials.thisN,trials.thisIndex,key_resp.started,text.started,key_resp.keys,key_resp.rt,text_2.started,text_2.stopped,sample.started,Delay.started,sample.stopped,Delay.stopped,Response_1.started,Response_2.started,Response_3.started,Response_1.stopped,Response_2.stopped,Response_3.stopped,polygon.started,polygon.stopped,participant,session,date,expName,psychopyVersion,frameRate,
,,,,,,,,,,,,,,,,,,,,,,,,,,,,,,,,,,,,,,,,,,,125.38107562500045,125.38107562500045,t,74.21800350000012,,,,,,,,,,,,,,,200005,204,2023-04-11_15h19.20.481,DMS_et_12-36,2022.2.4,None,
8,PRED,12,0.6348669565603065,1,images/picture_2.png,images/picture_1.png,0,"[11.733433509789462, -11.733433509789466]",11.733433509789462,-11.733433509789464,images/picture_2.png,1,"[-11.733433509789466, -11.733433509789462]",-11.733433509789464,-11.733433509789462,images/picture_3.png,2,"[11.733433509789464, 11.733433509789462]",11.733433509789464,11.733433509789462,0,1,1,0.6348669565603065,1.6348669565603065,1.3651330434396935,3.0,1,1.3848669565603065,0,4.0,3.0,1,2,0,0,0,0,0,0,0,8,,,,,200.1151950000003,212.14100904200131,212.14100904200131,212.14100904200131,213.13785000000098,213.53784325000015,213.7710840840009,213.7710840840009,213.7710840840009,215.13777433399991,215.13777433399991,215.13777433399991,215.13777433399991,216.13725433400032,200005,204,2023-04-11_15h19.20.481,DMS_et_12-36,2022.2.4,None,
6,PRED,12,0.6348669565603065,1,images/picture_2.png,images/picture_1.png,0,"[11.733433509789462, -11.733433509789466]",11.733433509789462,-11.733433509789464,images/picture_2.png,1,"[-11.733433509789466, -11.733433509789462]",-11.733433509789464,-11.733433509789462,images/picture_3.png,2,"[-11.733433509789462, 11.733433509789464]",-11.733433509789462,11.733433509789464,0,1,1,0.6348669565603065,1.6348669565603065,1.3651330434396935,3.0,1,1.3848669565603065,0,4.0,3.0,1,2,0,0,0,0,0,1,1,6,,,,,,,216.13725433400032,216.13725433400032,217.13778866699977,217.52388933400107,217.77118204200087,217.77118204200087,217.77118204200087,219.13783412500015,219.13783412500015,219.13783412500015,219.13783412500015,220.1372477090008,200005,204,2023-04-11_15h19.20.481,DMS_et_12-36,2022.2.4,None,
4,PRED,12,0.6348669565603065,1,images/picture_2.png,images/picture_1.png,0,"[11.733433509789464, 11.733433509789462]",11.733433509789464,11.733433509789462,images/picture_2.png,1,"[-11.733433509789462, 11.733433509789464]",-11.733433509789462,11.733433509789464,images/picture_3.png,2,"[11.733433509789462, -11.733433509789466]",11.733433509789462,-11.733433509789464,0,1,1,0.6348669565603065,1.6348669565603065,1.3651330434396935,3.0,1,1.3848669565603065,0,4.0,3.0,1,2,0,0,0,0,0,2,2,4,,,,,,,220.1372477090008,220.1372477090008,221.13739154200084,221.5374205420012,221.77104099999997,221.77104099999997,221.77104099999997,223.13783162500113,223.13783162500113,223.13783162500113,223.13783162500113,224.1372567920007,200005,204,2023-04-11_15h19.20.481,DMS_et_12-36,2022.2.4,None,
3,PRED,12,0.6348669565603065,1,images/picture_2.png,images/picture_1.png,0,"[11.733433509789464, 11.733433509789462]",11.733433509789464,11.733433509789462,images/picture_2.png,1,"[11.733433509789462, -11.733433509789466]",11.733433509789462,-11.733433509789464,images/picture_3.png,2,"[-11.733433509789462, 11.733433509789464]",-11.733433509789462,11.733433509789464,0,1,1,0.6348669565603065,1.6348669565603065,1.3651330434396935,3.0,1,1.3848669565603065,0,4.0,3.0,1,2,0,0,0,0,0,3,3,3,,,,,,,224.1372567920007,224.1372567920007,225.1378300840006,225.52380429200093,225.77107366699965,225.77107366699965,225.77107366699965,227.13803287500014,227.13803287500014,227.13803287500014,227.13803287500014,228.13725533400066,200005,204,2023-04-11_15h19.20.481,DMS_et_12-36,2022.2.4,None,
5,PRED,12,0.6348669565603065,1,images/picture_2.png,images/picture_1.png,0,"[11.733433509789462, -11.733433509789466]",11.733433509789462,-11.733433509789464,images/picture_2.png,1,"[11.733433509789464, 11.733433509789462]",11.733433509789464,11.733433509789462,images/picture_3.png,2,"[-11.733433509789462, 11.733433509789464]",-11.733433509789462,11.733433509789464,0,1,1,0.6348669565603065,1.6348669565603065,1.3651330434396935,3.0,1,1.3848669565603065,0,4.0,3.0,1,2,0,0,0,0,0,4,4,5,,,,,,,228.13725533400066,228.13725533400066,229.13775166699997,229.5237794170007,229.77120262500102,229.77120262500102,229.77120262500102,231.1376260420002,231.1376260420002,231.1376260420002,231.1376260420002,232.13735366699984,200005,204,2023-04-11_15h19.20.481,DMS_et_12-36,2022.2.4,None,
1,PRED,12,0.6348669565603065,1,images/picture_2.png,images/picture_1.png,0,"[-11.733433509789462, 11.733433509789464]",-11.733433509789462,11.733433509789464,images/picture_2.png,1,"[11.733433509789464, 11.733433509789462]",11.733433509789464,11.733433509789462,images/picture_3.png,2,"[11.733433509789462, -11.733433509789466]",11.733433509789462,-11.733433509789464,0,1,1,0.6348669565603065,1.6348669565603065,1.3651330434396935,3.0,1,1.3848669565603065,0,4.0,3.0,1,2,0,0,0,0,0,5,5,1,,,,,,,232.13735366699984,232.13735366699984,233.13778954200097,233.53778658400006,233.7711365840005,233.7711365840005,233.7711365840005,235.13781212499998,235.13781212499998,235.13781212499998,235.13781212499998,236.13719975000095,200005,204,2023-04-11_15h19.20.481,DMS_et_12-36,2022.2.4,None,
0,PRED,12,0.6348669565603065,1,images/picture_2.png,images/picture_1.png,0,"[-11.733433509789466, -11.733433509789462]",-11.733433509789464,-11.733433509789462,images/picture_2.png,1,"[11.733433509789462, -11.733433509789466]",11.733433509789462,-11.733433509789464,images/picture_3.png,2,"[11.733433509789464, 11.733433509789462]",11.733433509789464,11.733433509789462,0,1,1,0.6348669565603065,1.6348669565603065,1.3651330434396935,3.0,1,1.3848669565603065,0,4.0,3.0,1,2,0,0,0,0,0,6,6,0,,,,,,,236.13719975000095,236.13719975000095,237.13784845900045,237.5239002920007,237.7711363340004,237.7711363340004,237.7711363340004,239.13787775000128,239.13787775000128,239.13787775000128,239.13787775000128,240.1374548340009,200005,204,2023-04-11_15h19.20.481,DMS_et_12-36,2022.2.4,None,
2,PRED,12,0.6348669565603065,1,images/picture_2.png,images/picture_1.png,0,"[11.733433509789464, 11.733433509789462]",11.733433509789464,11.733433509789462,images/picture_2.png,1,"[-11.733433509789462, 11.733433509789464]",-11.733433509789462,11.733433509789464,images/picture_3.png,2,"[11.733433509789462, -11.733433509789466]",11.733433509789462,-11.733433509789464,0,1,1,0.6348669565603065,1.6348669565603065,1.3651330434396935,3.0,1,1.3848669565603065,0,4.0,3.0,1,2,0,0,0,0,0,7,7,2,,,,,,,240.1374548340009,240.1374548340009,241.13752183399993,241.5373440000003,241.7710082499998,241.7710082499998,241.7710082499998,243.13780616700024,243.13780616700024,243.13780616700024,243.13780616700024,244.1372891250012,200005,204,2023-04-11_15h19.20.481,DMS_et_12-36,2022.2.4,None,
7,PRED,12,0.6348669565603065,1,images/picture_2.png,images/picture_1.png,0,"[-11.733433509789466, -11.733433509789462]",-11.733433509789464,-11.733433509789462,images/picture_2.png,1,"[-11.733433509789462, 11.733433509789464]",-11.733433509789462,11.733433509789464,images/picture_3.png,2,"[11.733433509789464, 11.733433509789462]",11.733433509789464,11.733433509789462,0,1,1,0.6348669565603065,1.6348669565603065,1.3651330434396935,3.0,1,1.3848669565603065,0,4.0,3.0,1,2,0,0,0,0,0,8,8,7,,,,,,,244.1372891250012,244.1372891250012,245.13779016700028,245.52367233400037,245.77109608400133,245.77109608400133,245.77109608400133,247.13780550000047,247.13780550000047,247.13780550000047,247.13780550000047,248.1568297089998,200005,204,2023-04-11_15h19.20.481,DMS_et_12-36,2022.2.4,None,
,,,,,,,,,,,,,,,,,,,,,,,,,,,,,,,,,,,0,0,0,0,,,,,,,,,248.1568297089998,260.1951111670005,,,,,,,,,,,,,200005,204,2023-04-11_15h19.20.481,DMS_et_12-36,2022.2.4,None,
12,UNPRED,12,0.6348669565603065,2,images/picture_3.png,images/picture_1.png,0,"[-11.733433509789462, 11.733433509789464]",-11.733433509789462,11.733433509789464,images/picture_2.png,1,"[11.733433509789462, -11.733433509789466]",11.733433509789462,-11.733433509789464,images/picture_3.png,2,"[11.733433509789464, 11.733433509789462]",11.733433509789464,11.733433509789462,0,1,1,0.6348669565603065,1.6348669565603065,1.3651330434396935,3.0,1,1.3848669565603065,0,4.0,3.0,1,2,1,0,1,0,0,0,0,3,,,,,,,260.1951111670005,260.1951111670005,261.20459145899986,261.59008175000054,261.8233722090008,261.8233722090008,261.8233722090008,263.1904942500005,263.1904942500005,263.1904942500005,263.1904942500005,264.22379524999997,200005,204,2023-04-11_15h19.20.481,DMS_et_12-36,2022.2.4,None,
9,UNPRED,12,0.6348669565603065,2,images/picture_3.png,images/picture_1.png,0,"[-11.733433509789462, 11.733433509789464]",-11.733433509789462,11.733433509789464,images/picture_2.png,1,"[11.733433509789462, -11.733433509789466]",11.733433509789462,-11.733433509789464,images/picture_3.png,2,"[11.733433509789464, 11.733433509789462]",11.733433509789464,11.733433509789462,0,1,1,0.6348669565603065,1.6348669565603065,1.3651330434396935,3.0,1,1.3848669565603065,0,4.0,3.0,1,2,1,0,1,0,0,1,1,0,,,,,,,264.22379524999997,264.22379524999997,265.2377787919995,265.6239809590006,265.83787737500097,265.83787737500097,265.83787737500097,267.20455691700045,267.20455691700045,267.20455691700045,267.20455691700045,268.20494362499994,200005,204,2023-04-11_15h19.20.481,DMS_et_12-36,2022.2.4,None,
11,UNPRED,12,0.6348669565603065,1,images/picture_2.png,images/picture_1.png,0,"[-11.733433509789466, -11.733433509789462]",-11.733433509789464,-11.733433509789462,images/picture_2.png,1,"[11.733433509789464, 11.733433509789462]",11.733433509789464,11.733433509789462,images/picture_3.png,2,"[11.733433509789462, -11.733433509789466]",11.733433509789462,-11.733433509789464,0,1,1,0.6348669565603065,1.6348669565603065,1.3651330434396935,3.0,1,1.3848669565603065,0,4.0,3.0,1,2,1,0,1,0,0,2,2,2,,,,,,,268.20494362499994,268.20494362499994,269.20448662499984,269.60453125000095,269.837747167001,269.837747167001,269.837747167001,271.20452829200076,271.20452829200076,271.20452829200076,271.20452829200076,272.20418979200076,200005,204,2023-04-11_15h19.20.481,DMS_et_12-36,2022.2.4,None,
14,UNPRED,12,0.6348669565603065,1,images/picture_2.png,images/picture_1.png,0,"[11.733433509789464, 11.733433509789462]",11.733433509789464,11.733433509789462,images/picture_2.png,1,"[-11.733433509789462, 11.733433509789464]",-11.733433509789462,11.733433509789464,images/picture_3.png,2,"[-11.733433509789466, -11.733433509789462]",-11.733433509789464,-11.733433509789462,0,1,1,0.6348669565603065,1.6348669565603065,1.3651330434396935,3.0,1,1.3848669565603065,0,4.0,3.0,1,2,1,0,1,0,0,3,3,5,,,,,,,272.20418979200076,272.20418979200076,273.2045581250004,273.60454816700076,273.83781816699957,273.83781816699957,273.83781816699957,275.20448633399974,275.20448633399974,275.20448633399974,275.20448633399974,276.2039508750004,200005,204,2023-04-11_15h19.20.481,DMS_et_12-36,2022.2.4,None,
17,UNPRED,12,0.6348669565603065,0,images/picture_1.png,images/picture_1.png,0,"[11.733433509789462, -11.733433509789466]",11.733433509789462,-11.733433509789464,images/picture_2.png,1,"[-11.733433509789462, 11.733433509789464]",-11.733433509789462,11.733433509789464,images/picture_3.png,2,"[11.733433509789464, 11.733433509789462]",11.733433509789464,11.733433509789462,0,1,1,0.6348669565603065,1.6348669565603065,1.3651330434396935,3.0,1,1.3848669565603065,0,4.0,3.0,1,2,1,0,1,0,0,4,4,8,,,,,,,276.2039508750004,276.2039508750004,277.20452054199995,277.5904907920012,277.83778683400124,277.83778683400124,277.83778683400124,279.20454070900087,279.20454070900087,279.20454070900087,279.20454070900087,280.203906834,200005,204,2023-04-11_15h19.20.481,DMS_et_12-36,2022.2.4,None,
15,UNPRED,12,0.6348669565603065,0,images/picture_1.png,images/picture_1.png,0,"[11.733433509789464, 11.733433509789462]",11.733433509789464,11.733433509789462,images/picture_2.png,1,"[11.733433509789462, -11.733433509789466]",11.733433509789462,-11.733433509789464,images/picture_3.png,2,"[-11.733433509789462, 11.733433509789464]",-11.733433509789462,11.733433509789464,0,1,1,0.6348669565603065,1.6348669565603065,1.3651330434396935,3.0,1,1.3848669565603065,0,4.0,3.0,1,2,1,0,1,0,0,5,5,6,,,,,,,280.203906834,280.203906834,281.2045032500009,281.60446412500096,281.83779049999976,281.83779049999976,281.83779049999976,283.2044555419998,283.2044555419998,283.2044555419998,283.2044555419998,284.2036975840001,200005,204,2023-04-11_15h19.20.481,DMS_et_12-36,2022.2.4,None,
16,UNPRED,12,0.6348669565603065,1,images/picture_2.png,images/picture_1.png,0,"[-11.733433509789466, -11.733433509789462]",-11.733433509789464,-11.733433509789462,images/picture_2.png,1,"[11.733433509789464, 11.733433509789462]",11.733433509789464,11.733433509789462,images/picture_3.png,2,"[-11.733433509789462, 11.733433509789464]",-11.733433509789462,11.733433509789464,0,1,1,0.6348669565603065,1.6348669565603065,1.3651330434396935,3.0,1,1.3848669565603065,0,4.0,3.0,1,2,1,0,1,0,0,6,6,7,,,,,,,284.2036975840001,284.2036975840001,285.2045369589996,285.5911004999998,285.837766042001,285.837766042001,285.837766042001,287.2046499999997,287.2046499999997,287.2046499999997,287.2046499999997,288.20392908400026,200005,204,2023-04-11_15h19.20.481,DMS_et_12-36,2022.2.4,None,
10,UNPRED,12,0.6348669565603065,0,images/picture_1.png,images/picture_1.png,0,"[-11.733433509789466, -11.733433509789462]",-11.733433509789464,-11.733433509789462,images/picture_2.png,1,"[-11.733433509789462, 11.733433509789464]",-11.733433509789462,11.733433509789464,images/picture_3.png,2,"[11.733433509789462, -11.733433509789466]",11.733433509789462,-11.733433509789464,0,1,1,0.6348669565603065,1.6348669565603065,1.3651330434396935,3.0,1,1.3848669565603065,0,4.0,3.0,1,2,1,0,1,0,0,7,7,1,,,,,,,288.20392908400026,288.20392908400026,289.2046819170009,289.59067329200116,289.83777045900024,289.83777045900024,289.83777045900024,291.2045211670011,291.2045211670011,291.2045211670011,291.2045211670011,292.204444125,200005,204,2023-04-11_15h19.20.481,DMS_et_12-36,2022.2.4,None,
13,UNPRED,12,0.6348669565603065,0,images/picture_1.png,images/picture_1.png,0,"[11.733433509789462, -11.733433509789466]",11.733433509789462,-11.733433509789464,images/picture_2.png,1,"[-11.733433509789466, -11.733433509789462]",-11.733433509789464,-11.733433509789462,images/picture_3.png,2,"[-11.733433509789462, 11.733433509789464]",-11.733433509789462,11.733433509789464,0,1,1,0.6348669565603065,1.6348669565603065,1.3651330434396935,3.0,1,1.3848669565603065,0,4.0,3.0,1,2,1,0,1,0,0,8,8,4,,,,,,,292.204444125,292.204444125,293.2042775000009,293.6045831669999,293.8373116670009,293.8373116670009,293.8373116670009,295.2045462919996,295.2045462919996,295.2045462919996,295.2045462919996,296.23653908400047,200005,204,2023-04-11_15h19.20.481,DMS_et_12-36,2022.2.4,None,
,,,,,,,,,,,,,,,,,,,,,,,,,,,,,,,,,,,1,0,1,0,,,,,,,,,296.23653908400047,308.2672458340003,,,,,,,,,,,,,200005,204,2023-04-11_15h19.20.481,DMS_et_12-36,2022.2.4,None,
22,PRED,12,0.6348669565603065,2,images/picture_3.png,images/picture_1.png,0,"[-11.733433509789466, -11.733433509789462]",-11.733433509789464,-11.733433509789462,images/picture_2.png,1,"[11.733433509789462, -11.733433509789466]",11.733433509789462,-11.733433509789464,images/picture_3.png,2,"[-11.733433509789462, 11.733433509789464]",-11.733433509789462,11.733433509789464,0,1,1,0.6348669565603065,1.6348669565603065,1.3651330434396935,3.0,1,1.3848669565603065,0,4.0,3.0,1,2,2,0,2,0,0,0,0,4,,,,,,,308.2672458340003,308.2672458340003,309.2714056250006,309.6577720000005,309.89018899999974,309.89018899999974,309.89018899999974,311.2572902920001,311.2572902920001,311.2572902920001,311.2572902920001,312.29084775000047,200005,204,2023-04-11_15h19.20.481,DMS_et_12-36,2022.2.4,None,
21,PRED,12,0.6348669565603065,2,images/picture_3.png,images/picture_1.png,0,"[11.733433509789462, -11.733433509789466]",11.733433509789462,-11.733433509789464,images/picture_2.png,1,"[-11.733433509789462, 11.733433509789464]",-11.733433509789462,11.733433509789464,images/picture_3.png,2,"[11.733433509789464, 11.733433509789462]",11.733433509789464,11.733433509789462,0,1,1,0.6348669565603065,1.6348669565603065,1.3651330434396935,3.0,1,1.3848669565603065,0,4.0,3.0,1,2,2,0,2,0,0,1,1,3,,,,,,,312.29084775000047,312.29084775000047,313.3042665419998,313.69009687499965,313.9043459170007,313.9043459170007,313.9043459170007,315.27134837500125,315.27134837500125,315.27134837500125,315.27134837500125,316.29020595899965,200005,204,2023-04-11_15h19.20.481,DMS_et_12-36,2022.2.4,None,
24,PRED,12,0.6348669565603065,2,images/picture_3.png,images/picture_1.png,0,"[-11.733433509789466, -11.733433509789462]",-11.733433509789464,-11.733433509789462,images/picture_2.png,1,"[11.733433509789464, 11.733433509789462]",11.733433509789464,11.733433509789462,images/picture_3.png,2,"[11.733433509789462, -11.733433509789466]",11.733433509789462,-11.733433509789464,0,1,1,0.6348669565603065,1.6348669565603065,1.3651330434396935,3.0,1,1.3848669565603065,0,4.0,3.0,1,2,2,0,2,0,0,2,2,6,,,,,,,316.29020595899965,316.29020595899965,317.3046201670004,317.6904073750011,317.9045127090012,317.9045127090012,317.9045127090012,319.271231834,319.271231834,319.271231834,319.271231834,320.2899384169996,200005,204,2023-04-11_15h19.20.481,DMS_et_12-36,2022.2.4,None,
25,PRED,12,0.6348669565603065,2,images/picture_3.png,images/picture_1.png,0,"[11.733433509789464, 11.733433509789462]",11.733433509789464,11.733433509789462,images/picture_2.png,1,"[-11.733433509789462, 11.733433509789464]",-11.733433509789462,11.733433509789464,images/picture_3.png,2,"[-11.733433509789466, -11.733433509789462]",-11.733433509789464,-11.733433509789462,0,1,1,0.6348669565603065,1.6348669565603065,1.3651330434396935,3.0,1,1.3848669565603065,0,4.0,3.0,1,2,2,0,2,0,0,3,3,7,,,,,,,320.2899384169996,320.2899384169996,321.30457512500107,321.69046416700075,321.9044802919998,321.9044802919998,321.9044802919998,323.27091787500103,323.27091787500103,323.27091787500103,323.27091787500103,324.2901427500001,200005,204,2023-04-11_15h19.20.481,DMS_et_12-36,2022.2.4,None,
20,PRED,12,0.6348669565603065,2,images/picture_3.png,images/picture_1.png,0,"[11.733433509789462, -11.733433509789466]",11.733433509789462,-11.733433509789464,images/picture_2.png,1,"[11.733433509789464, 11.733433509789462]",11.733433509789464,11.733433509789462,images/picture_3.png,2,"[-11.733433509789466, -11.733433509789462]",-11.733433509789464,-11.733433509789462,0,1,1,0.6348669565603065,1.6348669565603065,1.3651330434396935,3.0,1,1.3848669565603065,0,4.0,3.0,1,2,2,0,2,0,0,4,4,2,,,,,,,324.2901427500001,324.2901427500001,325.304495417,325.690666167,325.90447691699956,325.90447691699956,325.90447691699956,327.271199625,327.271199625,327.271199625,327.271199625,328.2905005419998,200005,204,2023-04-11_15h19.20.481,DMS_et_12-36,2022.2.4,None,
26,PRED,12,0.6348669565603065,2,images/picture_3.png,images/picture_1.png,0,"[11.733433509789462, -11.733433509789466]",11.733433509789462,-11.733433509789464,images/picture_2.png,1,"[-11.733433509789462, 11.733433509789464]",-11.733433509789462,11.733433509789464,images/picture_3.png,2,"[11.733433509789464, 11.733433509789462]",11.733433509789464,11.733433509789462,0,1,1,0.6348669565603065,1.6348669565603065,1.3651330434396935,3.0,1,1.3848669565603065,0,4.0,3.0,1,2,2,0,2,0,0,5,5,8,,,,,,,328.2905005419998,328.2905005419998,329.3045420840008,329.6905853340013,329.90451583399954,329.90451583399954,329.90451583399954,331.27119787500123,331.27119787500123,331.27119787500123,331.27119787500123,332.2900824999997,200005,204,2023-04-11_15h19.20.481,DMS_et_12-36,2022.2.4,None,
19,PRED,12,0.6348669565603065,2,images/picture_3.png,images/picture_1.png,0,"[11.733433509789462, -11.733433509789466]",11.733433509789462,-11.733433509789464,images/picture_2.png,1,"[-11.733433509789462, 11.733433509789464]",-11.733433509789462,11.733433509789464,images/picture_3.png,2,"[11.733433509789464, 11.733433509789462]",11.733433509789464,11.733433509789462,0,1,1,0.6348669565603065,1.6348669565603065,1.3651330434396935,3.0,1,1.3848669565603065,0,4.0,3.0,1,2,2,0,2,0,0,6,6,1,,,,,,,332.2900824999997,332.2900824999997,333.30433291699956,333.6897475000005,333.90433437499996,333.90433437499996,333.90433437499996,335.27123437500086,335.27123437500086,335.27123437500086,335.27123437500086,336.2903557919999,200005,204,2023-04-11_15h19.20.481,DMS_et_12-36,2022.2.4,None,
23,PRED,12,0.6348669565603065,2,images/picture_3.png,images/picture_1.png,0,"[11.733433509789462, -11.733433509789466]",11.733433509789462,-11.733433509789464,images/picture_2.png,1,"[-11.733433509789462, 11.733433509789464]",-11.733433509789462,11.733433509789464,images/picture_3.png,2,"[-11.733433509789466, -11.733433509789462]",-11.733433509789464,-11.733433509789462,0,1,1,0.6348669565603065,1.6348669565603065,1.3651330434396935,3.0,1,1.3848669565603065,0,4.0,3.0,1,2,2,0,2,0,0,7,7,5,,,,,,,336.2903557919999,336.2903557919999,337.3045108340011,337.69070012500015,337.9045508340005,337.9045508340005,337.9045508340005,339.2712187090001,339.2712187090001,339.2712187090001,339.2712187090001,340.28999891700005,200005,204,2023-04-11_15h19.20.481,DMS_et_12-36,2022.2.4,None,
18,PRED,12,0.6348669565603065,2,images/picture_3.png,images/picture_1.png,0,"[11.733433509789462, -11.733433509789466]",11.733433509789462,-11.733433509789464,images/picture_2.png,1,"[11.733433509789464, 11.733433509789462]",11.733433509789464,11.733433509789462,images/picture_3.png,2,"[-11.733433509789466, -11.733433509789462]",-11.733433509789464,-11.733433509789462,0,1,1,0.6348669565603065,1.6348669565603065,1.3651330434396935,3.0,1,1.3848669565603065,0,4.0,3.0,1,2,2,0,2,0,0,8,8,0,,,,,,,340.28999891700005,340.28999891700005,341.30454612500034,341.67124558400064,341.90456625000115,341.90456625000115,341.90456625000115,343.27126925000084,343.27126925000084,343.27126925000084,343.27126925000084,344.296386375001,200005,204,2023-04-11_15h19.20.481,DMS_et_12-36,2022.2.4,None,
,,,,,,,,,,,,,,,,,,,,,,,,,,,,,,,,,,,2,0,2,0,,,,,,,,,344.296386375001,356.32585745899996,,,,,,,,,,,,,200005,204,2023-04-11_15h19.20.481,DMS_et_12-36,2022.2.4,None,
35,UNPRED,12,0.6348669565603065,1,images/picture_2.png,images/picture_1.png,0,"[11.733433509789462, -11.733433509789466]",11.733433509789462,-11.733433509789464,images/picture_2.png,1,"[-11.733433509789466, -11.733433509789462]",-11.733433509789464,-11.733433509789462,images/picture_3.png,2,"[-11.733433509789462, 11.733433509789464]",-11.733433509789462,11.733433509789464,0,1,1,0.6348669565603065,1.6348669565603065,1.3651330434396935,3.0,1,1.3848669565603065,0,4.0,3.0,1,2,3,0,3,0,0,0,0,8,,,,,,,356.32585745899996,356.32585745899996,357.33800270900065,357.7244209170003,357.95724870900085,357.95724870900085,357.95724870900085,359.33797162500014,359.33797162500014,359.33797162500014,359.32398458399985,360.3373683339996,200005,204,2023-04-11_15h19.20.481,DMS_et_12-36,2022.2.4,None,
31,UNPRED,12,0.6348669565603065,0,images/picture_1.png,images/picture_1.png,0,"[11.733433509789464, 11.733433509789462]",11.733433509789464,11.733433509789462,images/picture_2.png,1,"[-11.733433509789466, -11.733433509789462]",-11.733433509789464,-11.733433509789462,images/picture_3.png,2,"[-11.733433509789462, 11.733433509789464]",-11.733433509789462,11.733433509789464,0,1,1,0.6348669565603065,1.6348669565603065,1.3651330434396935,3.0,1,1.3848669565603065,0,4.0,3.0,1,2,3,0,3,0,0,1,1,4,,,,,,,360.3373683339996,360.3373683339996,361.33786325000074,361.72416491700096,361.97129400000085,361.97129400000085,361.97129400000085,363.337964792001,363.337964792001,363.337964792001,363.337964792001,364.3378898339997,200005,204,2023-04-11_15h19.20.481,DMS_et_12-36,2022.2.4,None,
29,UNPRED,12,0.6348669565603065,1,images/picture_2.png,images/picture_1.png,0,"[11.733433509789464, 11.733433509789462]",11.733433509789464,11.733433509789462,images/picture_2.png,1,"[-11.733433509789466, -11.733433509789462]",-11.733433509789464,-11.733433509789462,images/picture_3.png,2,"[-11.733433509789462, 11.733433509789464]",-11.733433509789462,11.733433509789464,0,1,1,0.6348669565603065,1.6348669565603065,1.3651330434396935,3.0,1,1.3848669565603065,0,4.0,3.0,1,2,3,0,3,0,0,2,2,2,,,,,,,364.3378898339997,364.3378898339997,365.3380157920001,365.73795387500104,365.9712441669999,365.9712441669999,365.9712441669999,367.3379879590011,367.3379879590011,367.3379879590011,367.3379879590011,368.3572612500011,200005,204,2023-04-11_15h19.20.481,DMS_et_12-36,2022.2.4,None,
28,UNPRED,12,0.6348669565603065,2,images/picture_3.png,images/picture_1.png,0,"[-11.733433509789466, -11.733433509789462]",-11.733433509789464,-11.733433509789462,images/picture_2.png,1,"[11.733433509789462, -11.733433509789466]",11.733433509789462,-11.733433509789464,images/picture_3.png,2,"[-11.733433509789462, 11.733433509789464]",-11.733433509789462,11.733433509789464,0,1,1,0.6348669565603065,1.6348669565603065,1.3651330434396935,3.0,1,1.3848669565603065,0,4.0,3.0,1,2,3,0,3,0,0,3,3,1,,,,,,,368.3572612500011,368.3572612500011,369.37128345900055,369.7575122090002,369.9712262089997,369.9712262089997,369.9712262089997,371.33797454200067,371.33797454200067,371.33797454200067,371.33797454200067,372.357147834,200005,204,2023-04-11_15h19.20.481,DMS_et_12-36,2022.2.4,None,
27,UNPRED,12,0.6348669565603065,2,images/picture_3.png,images/picture_1.png,0,"[11.733433509789462, -11.733433509789466]",11.733433509789462,-11.733433509789464,images/picture_2.png,1,"[-11.733433509789462, 11.733433509789464]",-11.733433509789462,11.733433509789464,images/picture_3.png,2,"[-11.733433509789466, -11.733433509789462]",-11.733433509789464,-11.733433509789462,0,1,1,0.6348669565603065,1.6348669565603065,1.3651330434396935,3.0,1,1.3848669565603065,0,4.0,3.0,1,2,3,0,3,0,0,4,4,0,,,,,,,372.357147834,372.357147834,373.37129166700106,373.75724375000027,373.97126387500066,373.97126387500066,373.97126387500066,375.33778150000035,375.33778150000035,375.33778150000035,375.33778150000035,376.33745629199984,200005,204,2023-04-11_15h19.20.481,DMS_et_12-36,2022.2.4,None,
32,UNPRED,12,0.6348669565603065,0,images/picture_1.png,images/picture_1.png,0,"[-11.733433509789466, -11.733433509789462]",-11.733433509789464,-11.733433509789462,images/picture_2.png,1,"[11.733433509789464, 11.733433509789462]",11.733433509789464,11.733433509789462,images/picture_3.png,2,"[11.733433509789462, -11.733433509789466]",11.733433509789462,-11.733433509789464,0,1,1,0.6348669565603065,1.6348669565603065,1.3651330434396935,3.0,1,1.3848669565603065,0,4.0,3.0,1,2,3,0,3,0,0,5,5,5,,,,,,,376.33745629199984,376.33745629199984,377.33796425000037,377.73797545900015,377.97130987499986,377.97130987499986,377.97130987499986,379.3380240000006,379.3380240000006,379.3380240000006,379.3380240000006,380.3377278750013,200005,204,2023-04-11_15h19.20.481,DMS_et_12-36,2022.2.4,None,
33,UNPRED,12,0.6348669565603065,1,images/picture_2.png,images/picture_1.png,0,"[11.733433509789462, -11.733433509789466]",11.733433509789462,-11.733433509789464,images/picture_2.png,1,"[-11.733433509789466, -11.733433509789462]",-11.733433509789464,-11.733433509789462,images/picture_3.png,2,"[11.733433509789464, 11.733433509789462]",11.733433509789464,11.733433509789462,0,1,1,0.6348669565603065,1.6348669565603065,1.3651330434396935,3.0,1,1.3848669565603065,0,4.0,3.0,1,2,3,0,3,0,0,6,6,6,,,,,,,380.3377278750013,380.3377278750013,381.3380022090005,381.73801458399976,381.971283750001,381.971283750001,381.971283750001,383.3381484590009,383.3381484590009,383.3381484590009,383.3381484590009,384.3373761670009,200005,204,2023-04-11_15h19.20.481,DMS_et_12-36,2022.2.4,None,
30,UNPRED,12,0.6348669565603065,0,images/picture_1.png,images/picture_1.png,0,"[11.733433509789462, -11.733433509789466]",11.733433509789462,-11.733433509789464,images/picture_2.png,1,"[-11.733433509789466, -11.733433509789462]",-11.733433509789464,-11.733433509789462,images/picture_3.png,2,"[11.733433509789464, 11.733433509789462]",11.733433509789464,11.733433509789462,0,1,1,0.6348669565603065,1.6348669565603065,1.3651330434396935,3.0,1,1.3848669565603065,0,4.0,3.0,1,2,3,0,3,0,0,7,7,3,,,,,,,384.3373761670009,384.3373761670009,385.3376720420001,385.73786066700086,385.97132500000043,385.97132500000043,385.97132500000043,387.3379520420003,387.3379520420003,387.3379520420003,387.3379520420003,388.3568015000001,200005,204,2023-04-11_15h19.20.481,DMS_et_12-36,2022.2.4,None,
34,UNPRED,12,0.6348669565603065,2,images/picture_3.png,images/picture_1.png,0,"[11.733433509789462, -11.733433509789466]",11.733433509789462,-11.733433509789464,images/picture_2.png,1,"[11.733433509789464, 11.733433509789462]",11.733433509789464,11.733433509789462,images/picture_3.png,2,"[-11.733433509789466, -11.733433509789462]",-11.733433509789464,-11.733433509789462,0,1,1,0.6348669565603065,1.6348669565603065,1.3651330434396935,3.0,1,1.3848669565603065,0,4.0,3.0,1,2,3,0,3,0,0,8,8,7,,,,,,,388.3568015000001,388.3568015000001,389.37129625000125,389.7574036670012,389.97130958399975,389.97130958399975,389.97130958399975,391.33799312500014,391.33799312500014,391.33799312500014,391.33799312500014,392.3884467090011,200005,204,2023-04-11_15h19.20.481,DMS_et_12-36,2022.2.4,None,
,,,,,,,,,,,,,,,,,,,,,,,,,,,,,,,,,,,3,0,3,0,,,,,,,,,392.3884467090011,404.40633524999976,,,,,,,,,,,,,200005,204,2023-04-11_15h19.20.481,DMS_et_12-36,2022.2.4,None,
42,PRED,12,0.6348669565603065,1,images/picture_2.png,images/picture_1.png,0,"[11.733433509789462, -11.733433509789466]",11.733433509789462,-11.733433509789464,images/picture_2.png,1,"[-11.733433509789462, 11.733433509789464]",-11.733433509789462,11.733433509789464,images/picture_3.png,2,"[11.733433509789464, 11.733433509789462]",11.733433509789464,11.733433509789462,0,1,1,0.6348669565603065,1.6348669565603065,1.3651330434396935,3.0,1,1.3848669565603065,0,4.0,3.0,1,2,4,0,4,0,0,0,0,6,,,,,,,404.40633524999976,404.40633524999976,405.4044083339995,405.80446762500105,406.03769575000115,406.03769575000115,406.03769575000115,407.4047183750008,407.4047183750008,407.4047183750008,407.4047183750008,408.4041406670003,200005,204,2023-04-11_15h19.20.481,DMS_et_12-36,2022.2.4,None,
38,PRED,12,0.6348669565603065,1,images/picture_2.png,images/picture_1.png,0,"[-11.733433509789466, -11.733433509789462]",-11.733433509789464,-11.733433509789462,images/picture_2.png,1,"[11.733433509789462, -11.733433509789466]",11.733433509789462,-11.733433509789464,images/picture_3.png,2,"[11.733433509789464, 11.733433509789462]",11.733433509789464,11.733433509789462,0,1,1,0.6348669565603065,1.6348669565603065,1.3651330434396935,3.0,1,1.3848669565603065,0,4.0,3.0,1,2,4,0,4,0,0,1,1,2,,,,,,,408.4041406670003,408.4041406670003,409.4045379170002,409.7906164169999,410.03798516700044,410.03798516700044,410.03798516700044,411.4047091250013,411.4047091250013,411.4047091250013,411.4047091250013,412.4043188750002,200005,204,2023-04-11_15h19.20.481,DMS_et_12-36,2022.2.4,None,
43,PRED,12,0.6348669565603065,1,images/picture_2.png,images/picture_1.png,0,"[-11.733433509789462, 11.733433509789464]",-11.733433509789462,11.733433509789464,images/picture_2.png,1,"[-11.733433509789466, -11.733433509789462]",-11.733433509789464,-11.733433509789462,images/picture_3.png,2,"[11.733433509789464, 11.733433509789462]",11.733433509789464,11.733433509789462,0,1,1,0.6348669565603065,1.6348669565603065,1.3651330434396935,3.0,1,1.3848669565603065,0,4.0,3.0,1,2,4,0,4,0,0,2,2,7,,,,,,,412.4043188750002,412.4043188750002,413.40473891700094,413.8047392090011,414.0380222920012,414.0380222920012,414.0380222920012,415.4043652090004,415.4043652090004,415.4043652090004,415.4043652090004,416.4044087500006,200005,204,2023-04-11_15h19.20.481,DMS_et_12-36,2022.2.4,None,
41,PRED,12,0.6348669565603065,1,images/picture_2.png,images/picture_1.png,0,"[-11.733433509789466, -11.733433509789462]",-11.733433509789464,-11.733433509789462,images/picture_2.png,1,"[-11.733433509789462, 11.733433509789464]",-11.733433509789462,11.733433509789464,images/picture_3.png,2,"[11.733433509789464, 11.733433509789462]",11.733433509789464,11.733433509789462,0,1,1,0.6348669565603065,1.6348669565603065,1.3651330434396935,3.0,1,1.3848669565603065,0,4.0,3.0,1,2,4,0,4,0,0,3,3,5,,,,,,,416.4044087500006,416.4044087500006,417.40474041699963,417.80475900000056,418.03800924999996,418.03800924999996,418.03800924999996,419.40471787500064,419.40471787500064,419.40471787500064,419.40471787500064,420.4040653339998,200005,204,2023-04-11_15h19.20.481,DMS_et_12-36,2022.2.4,None,
36,PRED,12,0.6348669565603065,1,images/picture_2.png,images/picture_1.png,0,"[11.733433509789464, 11.733433509789462]",11.733433509789464,11.733433509789462,images/picture_2.png,1,"[11.733433509789462, -11.733433509789466]",11.733433509789462,-11.733433509789464,images/picture_3.png,2,"[-11.733433509789462, 11.733433509789464]",-11.733433509789462,11.733433509789464,0,1,1,0.6348669565603065,1.6348669565603065,1.3651330434396935,3.0,1,1.3848669565603065,0,4.0,3.0,1,2,4,0,4,0,0,4,4,0,,,,,,,420.4040653339998,420.4040653339998,421.4047195840012,421.7907039170004,422.03807433400107,422.03807433400107,422.03807433400107,423.40457779200005,423.40457779200005,423.40457779200005,423.40457779200005,424.4042053339999,200005,204,2023-04-11_15h19.20.481,DMS_et_12-36,2022.2.4,None,
40,PRED,12,0.6348669565603065,1,images/picture_2.png,images/picture_1.png,0,"[-11.733433509789466, -11.733433509789462]",-11.733433509789464,-11.733433509789462,images/picture_2.png,1,"[11.733433509789462, -11.733433509789466]",11.733433509789462,-11.733433509789464,images/picture_3.png,2,"[-11.733433509789462, 11.733433509789464]",-11.733433509789462,11.733433509789464,0,1,1,0.6348669565603065,1.6348669565603065,1.3651330434396935,3.0,1,1.3848669565603065,0,4.0,3.0,1,2,4,0,4,0,0,5,5,4,,,,,,,424.4042053339999,424.4042053339999,425.40477433399974,425.80426075000105,426.03774474999955,426.03774474999955,426.03774474999955,427.4047840840012,427.4047840840012,427.4047840840012,427.4047840840012,428.40450095900087,200005,204,2023-04-11_15h19.20.481,DMS_et_12-36,2022.2.4,None,
44,PRED,12,0.6348669565603065,1,images/picture_2.png,images/picture_1.png,0,"[-11.733433509789462, 11.733433509789464]",-11.733433509789462,11.733433509789464,images/picture_2.png,1,"[11.733433509789464, 11.733433509789462]",11.733433509789464,11.733433509789462,images/picture_3.png,2,"[-11.733433509789466, -11.733433509789462]",-11.733433509789464,-11.733433509789462,0,1,1,0.6348669565603065,1.6348669565603065,1.3651330434396935,3.0,1,1.3848669565603065,0,4.0,3.0,1,2,4,0,4,0,0,6,6,8,,,,,,,428.40450095900087,428.40450095900087,429.404556417001,429.8046154170006,430.03803716699986,430.03803716699986,430.03803716699986,431.40478570900086,431.40478570900086,431.40478570900086,431.40478570900086,432.4041520419996,200005,204,2023-04-11_15h19.20.481,DMS_et_12-36,2022.2.4,None,
39,PRED,12,0.6348669565603065,1,images/picture_2.png,images/picture_1.png,0,"[11.733433509789462, -11.733433509789466]",11.733433509789462,-11.733433509789464,images/picture_2.png,1,"[-11.733433509789462, 11.733433509789464]",-11.733433509789462,11.733433509789464,images/picture_3.png,2,"[11.733433509789464, 11.733433509789462]",11.733433509789464,11.733433509789462,0,1,1,0.6348669565603065,1.6348669565603065,1.3651330434396935,3.0,1,1.3848669565603065,0,4.0,3.0,1,2,4,0,4,0,0,7,7,3,,,,,,,432.4041520419996,432.4041520419996,433.4047307920009,433.79057870900033,434.0380191250006,434.0380191250006,434.0380191250006,435.40457345899995,435.40457345899995,435.40457345899995,435.40457345899995,436.40436941699954,200005,204,2023-04-11_15h19.20.481,DMS_et_12-36,2022.2.4,None,
37,PRED,12,0.6348669565603065,1,images/picture_2.png,images/picture_1.png,0,"[-11.733433509789462, 11.733433509789464]",-11.733433509789462,11.733433509789464,images/picture_2.png,1,"[11.733433509789464, 11.733433509789462]",11.733433509789464,11.733433509789462,images/picture_3.png,2,"[-11.733433509789466, -11.733433509789462]",-11.733433509789464,-11.733433509789462,0,1,1,0.6348669565603065,1.6348669565603065,1.3651330434396935,3.0,1,1.3848669565603065,0,4.0,3.0,1,2,4,0,4,0,0,8,8,1,,,,,,,436.40436941699954,436.40436941699954,437.40484749999996,437.80478795900126,438.0381637499995,438.0381637499995,438.0381637499995,439.404813000001,439.404813000001,439.404813000001,439.404813000001,440.5127969590012,200005,204,2023-04-11_15h19.20.481,DMS_et_12-36,2022.2.4,None,
,,,,,,,,,,,,,,,,,,,,,,,,,,,,,,,,,,,4,0,4,0,,,,,,,,,440.5127969590012,452.551536125,,,,,,,,,,,,,200005,204,2023-04-11_15h19.20.481,DMS_et_12-36,2022.2.4,None,
53,UNPRED,12,0.6348669565603065,2,images/picture_3.png,images/picture_1.png,0,"[11.733433509789464, 11.733433509789462]",11.733433509789464,11.733433509789462,images/picture_2.png,1,"[-11.733433509789466, -11.733433509789462]",-11.733433509789464,-11.733433509789462,images/picture_3.png,2,"[-11.733433509789462, 11.733433509789464]",-11.733433509789462,11.733433509789464,0,1,1,0.6348669565603065,1.6348669565603065,1.3651330434396935,3.0,1,1.3848669565603065,0,4.0,3.0,1,2,5,0,5,0,0,0,0,8,,,,,,,452.551536125,452.551536125,453.557602750001,453.9381092920012,454.1712446670008,454.1712446670008,454.1712446670008,455.5379592090012,455.5379592090012,455.5379592090012,455.5379592090012,456.53772837500037,200005,204,2023-04-11_15h19.20.481,DMS_et_12-36,2022.2.4,None,
46,UNPRED,12,0.6348669565603065,0,images/picture_1.png,images/picture_1.png,0,"[11.733433509789462, -11.733433509789466]",11.733433509789462,-11.733433509789464,images/picture_2.png,1,"[-11.733433509789466, -11.733433509789462]",-11.733433509789464,-11.733433509789462,images/picture_3.png,2,"[11.733433509789464, 11.733433509789462]",11.733433509789464,11.733433509789462,0,1,1,0.6348669565603065,1.6348669565603065,1.3651330434396935,3.0,1,1.3848669565603065,0,4.0,3.0,1,2,5,0,5,0,0,1,1,1,,,,,,,456.53772837500037,456.53772837500037,457.53783329200087,457.93805641700055,458.17149183400034,458.17149183400034,458.17149183400034,459.538001500001,459.538001500001,459.538001500001,459.538001500001,460.53727029200127,200005,204,2023-04-11_15h19.20.481,DMS_et_12-36,2022.2.4,None,
52,UNPRED,12,0.6348669565603065,1,images/picture_2.png,images/picture_1.png,0,"[11.733433509789462, -11.733433509789466]",11.733433509789462,-11.733433509789464,images/picture_2.png,1,"[11.733433509789464, 11.733433509789462]",11.733433509789464,11.733433509789462,images/picture_3.png,2,"[-11.733433509789466, -11.733433509789462]",-11.733433509789464,-11.733433509789462,0,1,1,0.6348669565603065,1.6348669565603065,1.3651330434396935,3.0,1,1.3848669565603065,0,4.0,3.0,1,2,5,0,5,0,0,2,2,7,,,,,,,460.53727029200127,460.53727029200127,461.53797416700036,461.9242287500001,462.17131054200036,462.17131054200036,462.17131054200036,463.53807787500045,463.53807787500045,463.53807787500045,463.53807787500045,464.537470792,200005,204,2023-04-11_15h19.20.481,DMS_et_12-36,2022.2.4,None,
49,UNPRED,12,0.6348669565603065,1,images/picture_2.png,images/picture_1.png,0,"[11.733433509789464, 11.733433509789462]",11.733433509789464,11.733433509789462,images/picture_2.png,1,"[-11.733433509789462, 11.733433509789464]",-11.733433509789462,11.733433509789464,images/picture_3.png,2,"[-11.733433509789466, -11.733433509789462]",-11.733433509789464,-11.733433509789462,0,1,1,0.6348669565603065,1.6348669565603065,1.3651330434396935,3.0,1,1.3848669565603065,0,4.0,3.0,1,2,5,0,5,0,0,3,3,4,,,,,,,464.537470792,464.537470792,465.53800437500104,465.9239690000013,466.1712992920002,466.1712992920002,466.1712992920002,467.53781125000023,467.53781125000023,467.53781125000023,467.53781125000023,468.53751037500115,200005,204,2023-04-11_15h19.20.481,DMS_et_12-36,2022.2.4,None,
50,UNPRED,12,0.6348669565603065,1,images/picture_2.png,images/picture_1.png,0,"[-11.733433509789466, -11.733433509789462]",-11.733433509789464,-11.733433509789462,images/picture_2.png,1,"[-11.733433509789462, 11.733433509789464]",-11.733433509789462,11.733433509789464,images/picture_3.png,2,"[11.733433509789462, -11.733433509789466]",11.733433509789462,-11.733433509789464,0,1,1,0.6348669565603065,1.6348669565603065,1.3651330434396935,3.0,1,1.3848669565603065,0,4.0,3.0,1,2,5,0,5,0,0,4,4,5,,,,,,,468.53751037500115,468.53751037500115,469.53805179200026,469.9242922499998,470.1713258340005,470.1713258340005,470.1713258340005,471.5380614170008,471.5380614170008,471.5380614170008,471.5380614170008,472.5375173749999,200005,204,2023-04-11_15h19.20.481,DMS_et_12-36,2022.2.4,None,
48,UNPRED,12,0.6348669565603065,0,images/picture_1.png,images/picture_1.png,0,"[11.733433509789464, 11.733433509789462]",11.733433509789464,11.733433509789462,images/picture_2.png,1,"[-11.733433509789462, 11.733433509789464]",-11.733433509789462,11.733433509789464,images/picture_3.png,2,"[-11.733433509789466, -11.733433509789462]",-11.733433509789464,-11.733433509789462,0,1,1,0.6348669565603065,1.6348669565603065,1.3651330434396935,3.0,1,1.3848669565603065,0,4.0,3.0,1,2,5,0,5,0,0,5,5,3,,,,,,,472.5375173749999,472.5375173749999,473.5380994999996,473.9240648340001,474.1712981670007,474.1712981670007,474.1712981670007,475.5380553750001,475.5380553750001,475.5380553750001,475.5380553750001,476.53727550000076,200005,204,2023-04-11_15h19.20.481,DMS_et_12-36,2022.2.4,None,
47,UNPRED,12,0.6348669565603065,1,images/picture_2.png,images/picture_1.png,0,"[-11.733433509789466, -11.733433509789462]",-11.733433509789464,-11.733433509789462,images/picture_2.png,1,"[11.733433509789462, -11.733433509789466]",11.733433509789462,-11.733433509789464,images/picture_3.png,2,"[11.733433509789464, 11.733433509789462]",11.733433509789464,11.733433509789462,0,1,1,0.6348669565603065,1.6348669565603065,1.3651330434396935,3.0,1,1.3848669565603065,0,4.0,3.0,1,2,5,0,5,0,0,6,6,2,,,,,,,476.53727550000076,476.53727550000076,477.5377675,477.93788845900053,478.17126075000124,478.17126075000124,478.17126075000124,479.5380163339996,479.5380163339996,479.5380163339996,479.5380163339996,480.55814308400113,200005,204,2023-04-11_15h19.20.481,DMS_et_12-36,2022.2.4,None,
45,UNPRED,12,0.6348669565603065,2,images/picture_3.png,images/picture_1.png,0,"[-11.733433509789462, 11.733433509789464]",-11.733433509789462,11.733433509789464,images/picture_2.png,1,"[11.733433509789464, 11.733433509789462]",11.733433509789464,11.733433509789462,images/picture_3.png,2,"[-11.733433509789466, -11.733433509789462]",-11.733433509789464,-11.733433509789462,0,1,1,0.6348669565603065,1.6348669565603065,1.3651330434396935,3.0,1,1.3848669565603065,0,4.0,3.0,1,2,5,0,5,0,0,7,7,0,,,,,,,480.55814308400113,480.55814308400113,481.5713277089999,481.95798749999994,482.17134920900025,482.17134920900025,482.17134920900025,483.5380502500011,483.5380502500011,483.5380502500011,483.5380502500011,484.5379637500009,200005,204,2023-04-11_15h19.20.481,DMS_et_12-36,2022.2.4,None,
51,UNPRED,12,0.6348669565603065,1,images/picture_2.png,images/picture_1.png,0,"[-11.733433509789466, -11.733433509789462]",-11.733433509789464,-11.733433509789462,images/picture_2.png,1,"[11.733433509789462, -11.733433509789466]",11.733433509789462,-11.733433509789464,images/picture_3.png,2,"[-11.733433509789462, 11.733433509789464]",-11.733433509789462,11.733433509789464,0,1,1,0.6348669565603065,1.6348669565603065,1.3651330434396935,3.0,1,1.3848669565603065,0,4.0,3.0,1,2,5,0,5,0,0,8,8,6,,,,,,,484.5379637500009,484.5379637500009,485.5380667090012,485.9380001669997,486.1713543340011,486.1713543340011,486.1713543340011,487.5378789999995,487.5378789999995,487.5378789999995,487.5378789999995,488.6105516250009,200005,204,2023-04-11_15h19.20.481,DMS_et_12-36,2022.2.4,None,
,,,,,,,,,,,,,,,,,,,,,,,,,,,,,,,,,,,5,0,5,0,,,,,,,,,488.6105516250009,500.6485592500012,,,,,,,,,,,,,200005,204,2023-04-11_15h19.20.481,DMS_et_12-36,2022.2.4,None,
54,PRED,12,0.6348669565603065,2,images/picture_3.png,images/picture_1.png,0,"[-11.733433509789466, -11.733433509789462]",-11.733433509789464,-11.733433509789462,images/picture_2.png,1,"[-11.733433509789462, 11.733433509789464]",-11.733433509789462,11.733433509789464,images/picture_3.png,2,"[11.733433509789462, -11.733433509789466]",11.733433509789462,-11.733433509789464,0,1,1,0.6348669565603065,1.6348669565603065,1.3651330434396935,3.0,1,1.3848669565603065,0,4.0,3.0,1,2,6,0,6,0,0,0,0,0,,,,,,,500.6485592500012,500.6485592500012,501.6574296250001,502.0380403750005,502.27155241699984,502.27155241699984,502.27155241699984,503.6380446250005,503.6380446250005,503.6380446250005,503.6380446250005,504.65777929199976,200005,204,2023-04-11_15h19.20.481,DMS_et_12-36,2022.2.4,None,
57,PRED,12,0.6348669565603065,2,images/picture_3.png,images/picture_1.png,0,"[11.733433509789464, 11.733433509789462]",11.733433509789464,11.733433509789462,images/picture_2.png,1,"[-11.733433509789466, -11.733433509789462]",-11.733433509789464,-11.733433509789462,images/picture_3.png,2,"[-11.733433509789462, 11.733433509789464]",-11.733433509789462,11.733433509789464,0,1,1,0.6348669565603065,1.6348669565603065,1.3651330434396935,3.0,1,1.3848669565603065,0,4.0,3.0,1,2,6,0,6,0,0,1,1,3,,,,,,,504.65777929199976,504.65777929199976,505.6716214999997,506.05759120900075,506.27141112500067,506.27141112500067,506.27141112500067,507.63815587499994,507.63815587499994,507.63815587499994,507.63815587499994,508.6572489170012,200005,204,2023-04-11_15h19.20.481,DMS_et_12-36,2022.2.4,None,
56,PRED,12,0.6348669565603065,2,images/picture_3.png,images/picture_1.png,0,"[11.733433509789462, -11.733433509789466]",11.733433509789462,-11.733433509789464,images/picture_2.png,1,"[-11.733433509789466, -11.733433509789462]",-11.733433509789464,-11.733433509789462,images/picture_3.png,2,"[11.733433509789464, 11.733433509789462]",11.733433509789464,11.733433509789462,0,1,1,0.6348669565603065,1.6348669565603065,1.3651330434396935,3.0,1,1.3848669565603065,0,4.0,3.0,1,2,6,0,6,0,0,2,2,2,,,,,,,508.6572489170012,508.6572489170012,509.671523084,510.0575660000013,510.2713355420001,510.2713355420001,510.2713355420001,511.63796441700106,511.63796441700106,511.63796441700106,511.63796441700106,512.6571309589999,200005,204,2023-04-11_15h19.20.481,DMS_et_12-36,2022.2.4,None,
62,PRED,12,0.6348669565603065,2,images/picture_3.png,images/picture_1.png,0,"[-11.733433509789462, 11.733433509789464]",-11.733433509789462,11.733433509789464,images/picture_2.png,1,"[11.733433509789464, 11.733433509789462]",11.733433509789464,11.733433509789462,images/picture_3.png,2,"[11.733433509789462, -11.733433509789466]",11.733433509789462,-11.733433509789464,0,1,1,0.6348669565603065,1.6348669565603065,1.3651330434396935,3.0,1,1.3848669565603065,0,4.0,3.0,1,2,6,0,6,0,0,3,3,8,,,,,,,512.6571309589999,512.6571309589999,513.6714768750007,514.0578440420013,514.2715556250005,514.2715556250005,514.2715556250005,515.6380242920004,515.6380242920004,515.6380242920004,515.6380242920004,516.6581247920003,200005,204,2023-04-11_15h19.20.481,DMS_et_12-36,2022.2.4,None,
59,PRED,12,0.6348669565603065,2,images/picture_3.png,images/picture_1.png,0,"[-11.733433509789466, -11.733433509789462]",-11.733433509789464,-11.733433509789462,images/picture_2.png,1,"[11.733433509789462, -11.733433509789466]",11.733433509789462,-11.733433509789464,images/picture_3.png,2,"[-11.733433509789462, 11.733433509789464]",-11.733433509789462,11.733433509789464,0,1,1,0.6348669565603065,1.6348669565603065,1.3651330434396935,3.0,1,1.3848669565603065,0,4.0,3.0,1,2,6,0,6,0,0,4,4,5,,,,,,,516.6581247920003,516.6581247920003,517.6718661249997,518.0571586250007,518.2711655420007,518.2711655420007,518.2711655420007,519.6382514590005,519.6382514590005,519.6382514590005,519.6382514590005,520.6567428340004,200005,204,2023-04-11_15h19.20.481,DMS_et_12-36,2022.2.4,None,
60,PRED,12,0.6348669565603065,2,images/picture_3.png,images/picture_1.png,0,"[-11.733433509789462, 11.733433509789464]",-11.733433509789462,11.733433509789464,images/picture_2.png,1,"[-11.733433509789466, -11.733433509789462]",-11.733433509789464,-11.733433509789462,images/picture_3.png,2,"[11.733433509789462, -11.733433509789466]",11.733433509789462,-11.733433509789464,0,1,1,0.6348669565603065,1.6348669565603065,1.3651330434396935,3.0,1,1.3848669565603065,0,4.0,3.0,1,2,6,0,6,0,0,5,5,6,,,,,,,520.6567428340004,520.6567428340004,521.6715832090013,522.0380709590008,522.2714607920007,522.2714607920007,522.2714607920007,523.6379947500009,523.6379947500009,523.6379947500009,523.6379947500009,524.6571988340002,200005,204,2023-04-11_15h19.20.481,DMS_et_12-36,2022.2.4,None,
61,PRED,12,0.6348669565603065,2,images/picture_3.png,images/picture_1.png,0,"[11.733433509789464, 11.733433509789462]",11.733433509789464,11.733433509789462,images/picture_2.png,1,"[-11.733433509789462, 11.733433509789464]",-11.733433509789462,11.733433509789464,images/picture_3.png,2,"[11.733433509789462, -11.733433509789466]",11.733433509789462,-11.733433509789464,0,1,1,0.6348669565603065,1.6348669565603065,1.3651330434396935,3.0,1,1.3848669565603065,0,4.0,3.0,1,2,6,0,6,0,0,6,6,7,,,,,,,524.6571988340002,524.6571988340002,525.6714584170004,526.0573134170008,526.2715884589998,526.2715884589998,526.2715884589998,527.6380571250011,527.6380571250011,527.6380571250011,527.6380571250011,528.637888792,200005,204,2023-04-11_15h19.20.481,DMS_et_12-36,2022.2.4,None,
55,PRED,12,0.6348669565603065,2,images/picture_3.png,images/picture_1.png,0,"[-11.733433509789462, 11.733433509789464]",-11.733433509789462,11.733433509789464,images/picture_2.png,1,"[11.733433509789464, 11.733433509789462]",11.733433509789464,11.733433509789462,images/picture_3.png,2,"[-11.733433509789466, -11.733433509789462]",-11.733433509789464,-11.733433509789462,0,1,1,0.6348669565603065,1.6348669565603065,1.3651330434396935,3.0,1,1.3848669565603065,0,4.0,3.0,1,2,6,0,6,0,0,7,7,1,,,,,,,528.637888792,528.637888792,529.6383060000007,530.0381127500004,530.2715116670006,530.2715116670006,530.2715116670006,531.6383122919997,531.6383122919997,531.6383122919997,531.6383122919997,532.657802959,200005,204,2023-04-11_15h19.20.481,DMS_et_12-36,2022.2.4,None,
58,PRED,12,0.6348669565603065,2,images/picture_3.png,images/picture_1.png,0,"[-11.733433509789466, -11.733433509789462]",-11.733433509789464,-11.733433509789462,images/picture_2.png,1,"[11.733433509789464, 11.733433509789462]",11.733433509789464,11.733433509789462,images/picture_3.png,2,"[-11.733433509789462, 11.733433509789464]",-11.733433509789462,11.733433509789464,0,1,1,0.6348669565603065,1.6348669565603065,1.3651330434396935,3.0,1,1.3848669565603065,0,4.0,3.0,1,2,6,0,6,0,0,8,8,4,,,,,,,532.657802959,532.657802959,533.6714986250008,534.05747075,534.2715134170012,534.2715134170012,534.2715134170012,535.6381411670009,535.6381411670009,535.6381411670009,535.6381411670009,536.7155852920005,200005,204,2023-04-11_15h19.20.481,DMS_et_12-36,2022.2.4,None,
,,,,,,,,,,,,,,,,,,,,,,,,,,,,,,,,,,,6,0,6,0,,,,,,,,,536.7155852920005,548.7340216249995,,,,,,,,,,,,,200005,204,2023-04-11_15h19.20.481,DMS_et_12-36,2022.2.4,None,
66,UNPRED,12,0.6348669565603065,0,images/picture_1.png,images/picture_1.png,0,"[-11.733433509789462, 11.733433509789464]",-11.733433509789462,11.733433509789464,images/picture_2.png,1,"[11.733433509789462, -11.733433509789466]",11.733433509789462,-11.733433509789464,images/picture_3.png,2,"[11.733433509789464, 11.733433509789462]",11.733433509789464,11.733433509789462,0,1,1,0.6348669565603065,1.6348669565603065,1.3651330434396935,3.0,1,1.3848669565603065,0,4.0,3.0,1,2,7,0,7,0,0,0,0,3,,,,,,,548.7340216249995,548.7340216249995,549.738346125001,550.1241664170011,550.3715360000006,550.3715360000006,550.3715360000006,551.7380415000007,551.7380415000007,551.7380415000007,551.7380415000007,552.7377812499999,200005,204,2023-04-11_15h19.20.481,DMS_et_12-36,2022.2.4,None,
68,UNPRED,12,0.6348669565603065,0,images/picture_1.png,images/picture_1.png,0,"[-11.733433509789462, 11.733433509789464]",-11.733433509789462,11.733433509789464,images/picture_2.png,1,"[11.733433509789464, 11.733433509789462]",11.733433509789464,11.733433509789462,images/picture_3.png,2,"[11.733433509789462, -11.733433509789466]",11.733433509789462,-11.733433509789464,0,1,1,0.6348669565603065,1.6348669565603065,1.3651330434396935,3.0,1,1.3848669565603065,0,4.0,3.0,1,2,7,0,7,0,0,1,1,5,,,,,,,552.7377812499999,552.7377812499999,553.7381842089999,554.1382681670002,554.3716222500007,554.3716222500007,554.3716222500007,555.7382135000007,555.7382135000007,555.7382135000007,555.7382135000007,556.7571246669995,200005,204,2023-04-11_15h19.20.481,DMS_et_12-36,2022.2.4,None,
67,UNPRED,12,0.6348669565603065,2,images/picture_3.png,images/picture_1.png,0,"[11.733433509789462, -11.733433509789466]",11.733433509789462,-11.733433509789464,images/picture_2.png,1,"[-11.733433509789466, -11.733433509789462]",-11.733433509789464,-11.733433509789462,images/picture_3.png,2,"[11.733433509789464, 11.733433509789462]",11.733433509789464,11.733433509789462,0,1,1,0.6348669565603065,1.6348669565603065,1.3651330434396935,3.0,1,1.3848669565603065,0,4.0,3.0,1,2,7,0,7,0,0,2,2,4,,,,,,,556.7571246669995,556.7571246669995,557.7714743750003,558.1575895839997,558.3715486670008,558.3715486670008,558.3715486670008,559.7380320000011,559.7380320000011,559.7380320000011,559.7380320000011,560.7573029590003,200005,204,2023-04-11_15h19.20.481,DMS_et_12-36,2022.2.4,None,
65,UNPRED,12,0.6348669565603065,2,images/picture_3.png,images/picture_1.png,0,"[-11.733433509789466, -11.733433509789462]",-11.733433509789464,-11.733433509789462,images/picture_2.png,1,"[-11.733433509789462, 11.733433509789464]",-11.733433509789462,11.733433509789464,images/picture_3.png,2,"[11.733433509789462, -11.733433509789466]",11.733433509789462,-11.733433509789464,0,1,1,0.6348669565603065,1.6348669565603065,1.3651330434396935,3.0,1,1.3848669565603065,0,4.0,3.0,1,2,7,0,7,0,0,3,3,2,,,,,,,560.7573029590003,560.7573029590003,561.7715757919996,562.1383225419995,562.371558709001,562.371558709001,562.371558709001,563.7381353750006,563.7381353750006,563.7381353750006,563.7381353750006,564.7387164169995,200005,204,2023-04-11_15h19.20.481,DMS_et_12-36,2022.2.4,None,
70,UNPRED,12,0.6348669565603065,1,images/picture_2.png,images/picture_1.png,0,"[11.733433509789462, -11.733433509789466]",11.733433509789462,-11.733433509789464,images/picture_2.png,1,"[-11.733433509789466, -11.733433509789462]",-11.733433509789464,-11.733433509789462,images/picture_3.png,2,"[-11.733433509789462, 11.733433509789464]",-11.733433509789462,11.733433509789464,0,1,1,0.6348669565603065,1.6348669565603065,1.3651330434396935,3.0,1,1.3848669565603065,0,4.0,3.0,1,2,7,0,7,0,0,4,4,7,,,,,,,564.7387164169995,564.7387164169995,565.7381765419996,566.1382568339995,566.3715463340013,566.3715463340013,566.3715463340013,567.7382835839999,567.7382835839999,567.7382835839999,567.7382835839999,568.7377710420005,200005,204,2023-04-11_15h19.20.481,DMS_et_12-36,2022.2.4,None,
71,UNPRED,12,0.6348669565603065,0,images/picture_1.png,images/picture_1.png,0,"[-11.733433509789462, 11.733433509789464]",-11.733433509789462,11.733433509789464,images/picture_2.png,1,"[11.733433509789464, 11.733433509789462]",11.733433509789464,11.733433509789462,images/picture_3.png,2,"[11.733433509789462, -11.733433509789466]",11.733433509789462,-11.733433509789464,0,1,1,0.6348669565603065,1.6348669565603065,1.3651330434396935,3.0,1,1.3848669565603065,0,4.0,3.0,1,2,7,0,7,0,0,5,5,8,,,,,,,568.7377710420005,568.7377710420005,569.7379596669998,570.1378574589999,570.3711619170008,570.3711619170008,570.3711619170008,571.7383916670005,571.7383916670005,571.7383916670005,571.7383916670005,572.7379570840003,200005,204,2023-04-11_15h19.20.481,DMS_et_12-36,2022.2.4,None,
63,UNPRED,12,0.6348669565603065,1,images/picture_2.png,images/picture_1.png,0,"[-11.733433509789462, 11.733433509789464]",-11.733433509789462,11.733433509789464,images/picture_2.png,1,"[-11.733433509789466, -11.733433509789462]",-11.733433509789464,-11.733433509789462,images/picture_3.png,2,"[11.733433509789462, -11.733433509789466]",11.733433509789462,-11.733433509789464,0,1,1,0.6348669565603065,1.6348669565603065,1.3651330434396935,3.0,1,1.3848669565603065,0,4.0,3.0,1,2,7,0,7,0,0,6,6,0,,,,,,,572.7379570840003,572.7379570840003,573.7382530840005,574.1382546670011,574.3714985839997,574.3714985839997,574.3714985839997,575.7382255419998,575.7382255419998,575.7382255419998,575.7382255419998,576.7376750000003,200005,204,2023-04-11_15h19.20.481,DMS_et_12-36,2022.2.4,None,
69,UNPRED,12,0.6348669565603065,1,images/picture_2.png,images/picture_1.png,0,"[-11.733433509789462, 11.733433509789464]",-11.733433509789462,11.733433509789464,images/picture_2.png,1,"[11.733433509789462, -11.733433509789466]",11.733433509789462,-11.733433509789464,images/picture_3.png,2,"[11.733433509789464, 11.733433509789462]",11.733433509789464,11.733433509789462,0,1,1,0.6348669565603065,1.6348669565603065,1.3651330434396935,3.0,1,1.3848669565603065,0,4.0,3.0,1,2,7,0,7,0,0,7,7,6,,,,,,,576.7376750000003,576.7376750000003,577.7383835420005,578.138032334,578.3715027090002,578.3715027090002,578.3715027090002,579.7380332920002,579.7380332920002,579.7380332920002,579.7380332920002,580.7572763340013,200005,204,2023-04-11_15h19.20.481,DMS_et_12-36,2022.2.4,None,
64,UNPRED,12,0.6348669565603065,2,images/picture_3.png,images/picture_1.png,0,"[11.733433509789462, -11.733433509789466]",11.733433509789462,-11.733433509789464,images/picture_2.png,1,"[-11.733433509789462, 11.733433509789464]",-11.733433509789462,11.733433509789464,images/picture_3.png,2,"[-11.733433509789466, -11.733433509789462]",-11.733433509789464,-11.733433509789462,0,1,1,0.6348669565603065,1.6348669565603065,1.3651330434396935,3.0,1,1.3848669565603065,0,4.0,3.0,1,2,7,0,7,0,0,8,8,1,,,,,,,580.7572763340013,580.7572763340013,581.7715064170006,582.1382537090012,582.3714982500005,582.3714982500005,582.3714982500005,583.7383992089999,583.7383992089999,583.7383992089999,583.7383992089999,584.8425717090013,200005,204,2023-04-11_15h19.20.481,DMS_et_12-36,2022.2.4,None,
,,,,,,,,,,,,,,,,,,,,,,,,,,,,,,,,,,,7,0,7,0,,,,,,,,,584.8425717090013,596.8776658750012,,,,,,,,,,,,,200005,204,2023-04-11_15h19.20.481,DMS_et_12-36,2022.2.4,None,
72,PRED,12,0.6348669565603065,1,images/picture_2.png,images/picture_1.png,0,"[11.733433509789462, -11.733433509789466]",11.733433509789462,-11.733433509789464,images/picture_2.png,1,"[-11.733433509789466, -11.733433509789462]",-11.733433509789464,-11.733433509789462,images/picture_3.png,2,"[-11.733433509789462, 11.733433509789464]",-11.733433509789462,11.733433509789464,0,1,1,0.6348669565603065,1.6348669565603065,1.3651330434396935,3.0,1,1.3848669565603065,0,4.0,3.0,1,2,8,0,8,0,0,0,0,0,,,,,,,596.8776658750012,596.8776658750012,597.8907216669995,598.2715602919998,598.5048078340005,598.5048078340005,598.5048078340005,599.8715647919998,599.8715647919998,599.8715647919998,599.8715647919998,600.8712775420008,200005,204,2023-04-11_15h19.20.481,DMS_et_12-36,2022.2.4,None,
80,PRED,12,0.6348669565603065,1,images/picture_2.png,images/picture_1.png,0,"[11.733433509789464, 11.733433509789462]",11.733433509789464,11.733433509789462,images/picture_2.png,1,"[-11.733433509789466, -11.733433509789462]",-11.733433509789464,-11.733433509789462,images/picture_3.png,2,"[-11.733433509789462, 11.733433509789464]",-11.733433509789462,11.733433509789464,0,1,1,0.6348669565603065,1.6348669565603065,1.3651330434396935,3.0,1,1.3848669565603065,0,4.0,3.0,1,2,8,0,8,0,0,1,1,8,,,,,,,600.8712775420008,600.8712775420008,601.8715220000013,602.2715029170013,602.5048745000004,602.5048745000004,602.5048745000004,603.8715187920006,603.8715187920006,603.8715187920006,603.8715187920006,604.870997334001,200005,204,2023-04-11_15h19.20.481,DMS_et_12-36,2022.2.4,None,
76,PRED,12,0.6348669565603065,1,images/picture_2.png,images/picture_1.png,0,"[11.733433509789464, 11.733433509789462]",11.733433509789464,11.733433509789462,images/picture_2.png,1,"[-11.733433509789462, 11.733433509789464]",-11.733433509789462,11.733433509789464,images/picture_3.png,2,"[11.733433509789462, -11.733433509789466]",11.733433509789462,-11.733433509789464,0,1,1,0.6348669565603065,1.6348669565603065,1.3651330434396935,3.0,1,1.3848669565603065,0,4.0,3.0,1,2,8,0,8,0,0,2,2,4,,,,,,,604.870997334001,604.870997334001,605.8714935839998,606.2576917919996,606.5048375000006,606.5048375000006,606.5048375000006,607.8714990420012,607.8714990420012,607.8714990420012,607.8714990420012,608.8710671669996,200005,204,2023-04-11_15h19.20.481,DMS_et_12-36,2022.2.4,None,
74,PRED,12,0.6348669565603065,1,images/picture_2.png,images/picture_1.png,0,"[11.733433509789464, 11.733433509789462]",11.733433509789464,11.733433509789462,images/picture_2.png,1,"[-11.733433509789466, -11.733433509789462]",-11.733433509789464,-11.733433509789462,images/picture_3.png,2,"[11.733433509789462, -11.733433509789466]",11.733433509789462,-11.733433509789464,0,1,1,0.6348669565603065,1.6348669565603065,1.3651330434396935,3.0,1,1.3848669565603065,0,4.0,3.0,1,2,8,0,8,0,0,3,3,2,,,,,,,608.8710671669996,608.8710671669996,609.8715097090007,610.2713491249997,610.5045776670013,610.5045776670013,610.5045776670013,611.8715544170009,611.8715544170009,611.8715544170009,611.8715544170009,612.8709858340007,200005,204,2023-04-11_15h19.20.481,DMS_et_12-36,2022.2.4,None,
73,PRED,12,0.6348669565603065,1,images/picture_2.png,images/picture_1.png,0,"[11.733433509789464, 11.733433509789462]",11.733433509789464,11.733433509789462,images/picture_2.png,1,"[-11.733433509789466, -11.733433509789462]",-11.733433509789464,-11.733433509789462,images/picture_3.png,2,"[11.733433509789462, -11.733433509789466]",11.733433509789462,-11.733433509789464,0,1,1,0.6348669565603065,1.6348669565603065,1.3651330434396935,3.0,1,1.3848669565603065,0,4.0,3.0,1,2,8,0,8,0,0,4,4,1,,,,,,,612.8709858340007,612.8709858340007,613.8716100840011,614.2576440000012,614.5050422500008,614.5050422500008,614.5050422500008,615.871514542001,615.871514542001,615.871514542001,615.871514542001,616.8710568340011,200005,204,2023-04-11_15h19.20.481,DMS_et_12-36,2022.2.4,None,
79,PRED,12,0.6348669565603065,1,images/picture_2.png,images/picture_1.png,0,"[11.733433509789462, -11.733433509789466]",11.733433509789462,-11.733433509789464,images/picture_2.png,1,"[11.733433509789464, 11.733433509789462]",11.733433509789464,11.733433509789462,images/picture_3.png,2,"[-11.733433509789462, 11.733433509789464]",-11.733433509789462,11.733433509789464,0,1,1,0.6348669565603065,1.6348669565603065,1.3651330434396935,3.0,1,1.3848669565603065,0,4.0,3.0,1,2,8,0,8,0,0,5,5,7,,,,,,,616.8710568340011,616.8710568340011,617.8715987920004,618.2578830420007,618.5048342500013,618.5048342500013,618.5048342500013,619.8715107500011,619.8715107500011,619.8715107500011,619.8715107500011,620.8712917920002,200005,204,2023-04-11_15h19.20.481,DMS_et_12-36,2022.2.4,None,
78,PRED,12,0.6348669565603065,1,images/picture_2.png,images/picture_1.png,0,"[11.733433509789464, 11.733433509789462]",11.733433509789464,11.733433509789462,images/picture_2.png,1,"[-11.733433509789466, -11.733433509789462]",-11.733433509789464,-11.733433509789462,images/picture_3.png,2,"[11.733433509789462, -11.733433509789466]",11.733433509789462,-11.733433509789464,0,1,1,0.6348669565603065,1.6348669565603065,1.3651330434396935,3.0,1,1.3848669565603065,0,4.0,3.0,1,2,8,0,8,0,0,6,6,6,,,,,,,620.8712917920002,620.8712917920002,621.8717737919997,622.2715510840007,622.5049842500011,622.5049842500011,622.5049842500011,623.8715400420006,623.8715400420006,623.8715400420006,623.8715400420006,624.8710167090012,200005,204,2023-04-11_15h19.20.481,DMS_et_12-36,2022.2.4,None,
77,PRED,12,0.6348669565603065,1,images/picture_2.png,images/picture_1.png,0,"[11.733433509789462, -11.733433509789466]",11.733433509789462,-11.733433509789464,images/picture_2.png,1,"[-11.733433509789466, -11.733433509789462]",-11.733433509789464,-11.733433509789462,images/picture_3.png,2,"[-11.733433509789462, 11.733433509789464]",-11.733433509789462,11.733433509789464,0,1,1,0.6348669565603065,1.6348669565603065,1.3651330434396935,3.0,1,1.3848669565603065,0,4.0,3.0,1,2,8,0,8,0,0,7,7,5,,,,,,,624.8710167090012,624.8710167090012,625.8716439590007,626.2574519999998,626.5049910840007,626.5049910840007,626.5049910840007,627.8715137920008,627.8715137920008,627.8715137920008,627.8715137920008,628.871011792,200005,204,2023-04-11_15h19.20.481,DMS_et_12-36,2022.2.4,None,
75,PRED,12,0.6348669565603065,1,images/picture_2.png,images/picture_1.png,0,"[11.733433509789462, -11.733433509789466]",11.733433509789462,-11.733433509789464,images/picture_2.png,1,"[11.733433509789464, 11.733433509789462]",11.733433509789464,11.733433509789462,images/picture_3.png,2,"[-11.733433509789462, 11.733433509789464]",-11.733433509789462,11.733433509789464,0,1,1,0.6348669565603065,1.6348669565603065,1.3651330434396935,3.0,1,1.3848669565603065,0,4.0,3.0,1,2,8,0,8,0,0,8,8,3,,,,,,,628.871011792,628.871011792,629.8715896249996,630.2574381249997,630.5048956669998,630.5048956669998,630.5048956669998,631.8713566250008,631.8713566250008,631.8713566250008,631.8713566250008,632.9677283750007,200005,204,2023-04-11_15h19.20.481,DMS_et_12-36,2022.2.4,None,
,,,,,,,,,,,,,,,,,,,,,,,,,,,,,,,,,,,8,0,8,0,,,,,,,,,632.9677283750007,645.0037205000008,,,,,,,,,,,,,200005,204,2023-04-11_15h19.20.481,DMS_et_12-36,2022.2.4,None,
86,UNPRED,12,0.6348669565603065,2,images/picture_3.png,images/picture_1.png,0,"[11.733433509789464, 11.733433509789462]",11.733433509789464,11.733433509789462,images/picture_2.png,1,"[11.733433509789462, -11.733433509789466]",11.733433509789462,-11.733433509789464,images/picture_3.png,2,"[-11.733433509789466, -11.733433509789462]",-11.733433509789464,-11.733433509789462,0,1,1,0.6348669565603065,1.6348669565603065,1.3651330434396935,3.0,1,1.3848669565603065,0,4.0,3.0,1,2,9,0,9,0,0,0,0,5,,,,,,,645.0037205000008,645.0037205000008,646.0050353340011,646.3909352499995,646.6242020000009,646.6242020000009,646.6242020000009,648.0049735000011,648.0049735000011,648.0049735000011,647.9910719590007,649.0040291670011,200005,204,2023-04-11_15h19.20.481,DMS_et_12-36,2022.2.4,None,
89,UNPRED,12,0.6348669565603065,0,images/picture_1.png,images/picture_1.png,0,"[-11.733433509789462, 11.733433509789464]",-11.733433509789462,11.733433509789464,images/picture_2.png,1,"[11.733433509789464, 11.733433509789462]",11.733433509789464,11.733433509789462,images/picture_3.png,2,"[-11.733433509789466, -11.733433509789462]",-11.733433509789464,-11.733433509789462,0,1,1,0.6348669565603065,1.6348669565603065,1.3651330434396935,3.0,1,1.3848669565603065,0,4.0,3.0,1,2,9,0,9,0,0,1,1,8,,,,,,,649.0040291670011,649.0040291670011,650.0049911250007,650.3906032089999,650.6381608339998,650.6381608339998,650.6381608339998,652.0047320840004,652.0047320840004,652.0047320840004,652.0047320840004,653.0051604590008,200005,204,2023-04-11_15h19.20.481,DMS_et_12-36,2022.2.4,None,
88,UNPRED,12,0.6348669565603065,1,images/picture_2.png,images/picture_1.png,0,"[-11.733433509789466, -11.733433509789462]",-11.733433509789464,-11.733433509789462,images/picture_2.png,1,"[-11.733433509789462, 11.733433509789464]",-11.733433509789462,11.733433509789464,images/picture_3.png,2,"[11.733433509789464, 11.733433509789462]",11.733433509789464,11.733433509789462,0,1,1,0.6348669565603065,1.6348669565603065,1.3651330434396935,3.0,1,1.3848669565603065,0,4.0,3.0,1,2,9,0,9,0,0,2,2,7,,,,,,,653.0051604590008,653.0051604590008,654.0047427500012,654.4047733340012,654.6379997090007,654.6379997090007,654.6379997090007,656.0047707499998,656.0047707499998,656.0047707499998,656.0047707499998,657.0044614590006,200005,204,2023-04-11_15h19.20.481,DMS_et_12-36,2022.2.4,None,
84,UNPRED,12,0.6348669565603065,0,images/picture_1.png,images/picture_1.png,0,"[-11.733433509789466, -11.733433509789462]",-11.733433509789464,-11.733433509789462,images/picture_2.png,1,"[11.733433509789462, -11.733433509789466]",11.733433509789462,-11.733433509789464,images/picture_3.png,2,"[-11.733433509789462, 11.733433509789464]",-11.733433509789462,11.733433509789464,0,1,1,0.6348669565603065,1.6348669565603065,1.3651330434396935,3.0,1,1.3848669565603065,0,4.0,3.0,1,2,9,0,9,0,0,3,3,3,,,,,,,657.0044614590006,657.0044614590006,658.004629250001,658.4045570840008,658.6382147920012,658.6382147920012,658.6382147920012,660.0048506670009,660.0048506670009,660.0048506670009,660.0048506670009,661.0044166669995,200005,204,2023-04-11_15h19.20.481,DMS_et_12-36,2022.2.4,None,
87,UNPRED,12,0.6348669565603065,0,images/picture_1.png,images/picture_1.png,0,"[11.733433509789462, -11.733433509789466]",11.733433509789462,-11.733433509789464,images/picture_2.png,1,"[-11.733433509789462, 11.733433509789464]",-11.733433509789462,11.733433509789464,images/picture_3.png,2,"[11.733433509789464, 11.733433509789462]",11.733433509789464,11.733433509789462,0,1,1,0.6348669565603065,1.6348669565603065,1.3651330434396935,3.0,1,1.3848669565603065,0,4.0,3.0,1,2,9,0,9,0,0,4,4,6,,,,,,,661.0044166669995,661.0044166669995,662.0045173340004,662.4047790000004,662.6380038750012,662.6380038750012,662.6380038750012,664.0047944590005,664.0047944590005,664.0047944590005,664.0047944590005,665.0232826669999,200005,204,2023-04-11_15h19.20.481,DMS_et_12-36,2022.2.4,None,
83,UNPRED,12,0.6348669565603065,2,images/picture_3.png,images/picture_1.png,0,"[11.733433509789462, -11.733433509789466]",11.733433509789462,-11.733433509789464,images/picture_2.png,1,"[11.733433509789464, 11.733433509789462]",11.733433509789464,11.733433509789462,images/picture_3.png,2,"[-11.733433509789462, 11.733433509789464]",-11.733433509789462,11.733433509789464,0,1,1,0.6348669565603065,1.6348669565603065,1.3651330434396935,3.0,1,1.3848669565603065,0,4.0,3.0,1,2,9,0,9,0,0,5,5,2,,,,,,,665.0232826669999,665.0232826669999,666.0380745000002,666.4234625000008,666.6380330840002,666.6380330840002,666.6380330840002,668.0048072500012,668.0048072500012,668.0048072500012,668.0048072500012,669.0236027089995,200005,204,2023-04-11_15h19.20.481,DMS_et_12-36,2022.2.4,None,
85,UNPRED,12,0.6348669565603065,2,images/picture_3.png,images/picture_1.png,0,"[-11.733433509789462, 11.733433509789464]",-11.733433509789462,11.733433509789464,images/picture_2.png,1,"[11.733433509789462, -11.733433509789466]",11.733433509789462,-11.733433509789464,images/picture_3.png,2,"[11.733433509789464, 11.733433509789462]",11.733433509789464,11.733433509789462,0,1,1,0.6348669565603065,1.6348669565603065,1.3651330434396935,3.0,1,1.3848669565603065,0,4.0,3.0,1,2,9,0,9,0,0,6,6,4,,,,,,,669.0236027089995,669.0236027089995,670.0380222090007,670.4048398750001,670.6379579590011,670.6379579590011,670.6379579590011,672.0043908340012,672.0043908340012,672.0043908340012,672.0043908340012,673.0049121669999,200005,204,2023-04-11_15h19.20.481,DMS_et_12-36,2022.2.4,None,
81,UNPRED,12,0.6348669565603065,2,images/picture_3.png,images/picture_1.png,0,"[-11.733433509789466, -11.733433509789462]",-11.733433509789464,-11.733433509789462,images/picture_2.png,1,"[11.733433509789464, 11.733433509789462]",11.733433509789464,11.733433509789462,images/picture_3.png,2,"[11.733433509789462, -11.733433509789466]",11.733433509789462,-11.733433509789464,0,1,1,0.6348669565603065,1.6348669565603065,1.3651330434396935,3.0,1,1.3848669565603065,0,4.0,3.0,1,2,9,0,9,0,0,7,7,0,,,,,,,673.0049121669999,673.0049121669999,674.004774084,674.4047674590001,674.6380273340001,674.6380273340001,674.6380273340001,676.0048710419996,676.0048710419996,676.0048710419996,676.0048710419996,677.0238801249998,200005,204,2023-04-11_15h19.20.481,DMS_et_12-36,2022.2.4,None,
82,UNPRED,12,0.6348669565603065,2,images/picture_3.png,images/picture_1.png,0,"[-11.733433509789462, 11.733433509789464]",-11.733433509789462,11.733433509789464,images/picture_2.png,1,"[11.733433509789462, -11.733433509789466]",11.733433509789462,-11.733433509789464,images/picture_3.png,2,"[-11.733433509789466, -11.733433509789462]",-11.733433509789464,-11.733433509789462,0,1,1,0.6348669565603065,1.6348669565603065,1.3651330434396935,3.0,1,1.3848669565603065,0,4.0,3.0,1,2,9,0,9,0,0,8,8,1,,,,,,,677.0238801249998,677.0238801249998,678.0380693750012,678.4245826250008,678.6380348750008,678.6380348750008,678.6380348750008,680.0047635840001,680.0047635840001,680.0047635840001,680.0047635840001,681.1156259170002,200005,204,2023-04-11_15h19.20.481,DMS_et_12-36,2022.2.4,None,
,,,,,,,,,,,,,,,,,,,,,,,,,,,,,,,,,,,9,0,9,0,,,,,,,,,681.1156259170002,693.1363219590003,,,,,,,,,,,,,200005,204,2023-04-11_15h19.20.481,DMS_et_12-36,2022.2.4,None,
94,PRED,12,0.6348669565603065,2,images/picture_3.png,images/picture_1.png,0,"[-11.733433509789466, -11.733433509789462]",-11.733433509789464,-11.733433509789462,images/picture_2.png,1,"[11.733433509789464, 11.733433509789462]",11.733433509789464,11.733433509789462,images/picture_3.png,2,"[11.733433509789462, -11.733433509789466]",11.733433509789462,-11.733433509789464,0,1,1,0.6348669565603065,1.6348669565603065,1.3651330434396935,3.0,1,1.3848669565603065,0,4.0,3.0,1,2,10,0,10,0,0,0,0,4,,,,,,,693.1363219590003,693.1363219590003,694.1379962499996,694.5242115000001,694.7577662500007,694.7577662500007,694.7577662500007,696.1379905000013,696.1379905000013,696.1379905000013,696.1241284589996,697.1574527499997,200005,204,2023-04-11_15h19.20.481,DMS_et_12-36,2022.2.4,None,
93,PRED,12,0.6348669565603065,2,images/picture_3.png,images/picture_1.png,0,"[11.733433509789462, -11.733433509789466]",11.733433509789462,-11.733433509789464,images/picture_2.png,1,"[-11.733433509789466, -11.733433509789462]",-11.733433509789464,-11.733433509789462,images/picture_3.png,2,"[-11.733433509789462, 11.733433509789464]",-11.733433509789462,11.733433509789464,0,1,1,0.6348669565603065,1.6348669565603065,1.3651330434396935,3.0,1,1.3848669565603065,0,4.0,3.0,1,2,10,0,10,0,0,1,1,3,,,,,,,697.1574527499997,697.1574527499997,698.1713120000004,698.5575609589996,698.7712942920007,698.7712942920007,698.7712942920007,700.1381500839998,700.1381500839998,700.1381500839998,700.1381500839998,701.1570165419998,200005,204,2023-04-11_15h19.20.481,DMS_et_12-36,2022.2.4,None,
95,PRED,12,0.6348669565603065,2,images/picture_3.png,images/picture_1.png,0,"[11.733433509789464, 11.733433509789462]",11.733433509789464,11.733433509789462,images/picture_2.png,1,"[-11.733433509789462, 11.733433509789464]",-11.733433509789462,11.733433509789464,images/picture_3.png,2,"[11.733433509789462, -11.733433509789466]",11.733433509789462,-11.733433509789464,0,1,1,0.6348669565603065,1.6348669565603065,1.3651330434396935,3.0,1,1.3848669565603065,0,4.0,3.0,1,2,10,0,10,0,0,2,2,5,,,,,,,701.1570165419998,701.1570165419998,702.1715037920003,702.5573882090011,702.7712507920005,702.7712507920005,702.7712507920005,704.1380853749997,704.1380853749997,704.1380853749997,704.1380853749997,705.1568828340005,200005,204,2023-04-11_15h19.20.481,DMS_et_12-36,2022.2.4,None,
97,PRED,12,0.6348669565603065,2,images/picture_3.png,images/picture_1.png,0,"[11.733433509789462, -11.733433509789466]",11.733433509789462,-11.733433509789464,images/picture_2.png,1,"[11.733433509789464, 11.733433509789462]",11.733433509789464,11.733433509789462,images/picture_3.png,2,"[-11.733433509789462, 11.733433509789464]",-11.733433509789462,11.733433509789464,0,1,1,0.6348669565603065,1.6348669565603065,1.3651330434396935,3.0,1,1.3848669565603065,0,4.0,3.0,1,2,10,0,10,0,0,3,3,7,,,,,,,705.1568828340005,705.1568828340005,706.1713325000001,706.5380411670012,706.7714359170004,706.7714359170004,706.7714359170004,708.1378924170003,708.1378924170003,708.1378924170003,708.1378924170003,709.1572859589996,200005,204,2023-04-11_15h19.20.481,DMS_et_12-36,2022.2.4,None,
98,PRED,12,0.6348669565603065,2,images/picture_3.png,images/picture_1.png,0,"[-11.733433509789466, -11.733433509789462]",-11.733433509789464,-11.733433509789462,images/picture_2.png,1,"[11.733433509789464, 11.733433509789462]",11.733433509789464,11.733433509789462,images/picture_3.png,2,"[-11.733433509789462, 11.733433509789464]",-11.733433509789462,11.733433509789464,0,1,1,0.6348669565603065,1.6348669565603065,1.3651330434396935,3.0,1,1.3848669565603065,0,4.0,3.0,1,2,10,0,10,0,0,4,4,8,,,,,,,709.1572859589996,709.1572859589996,710.171310959,710.5571046250006,710.7713017500009,710.7713017500009,710.7713017500009,712.1381147089996,712.1381147089996,712.1381147089996,712.1381147089996,713.1573380419995,200005,204,2023-04-11_15h19.20.481,DMS_et_12-36,2022.2.4,None,
90,PRED,12,0.6348669565603065,2,images/picture_3.png,images/picture_1.png,0,"[-11.733433509789466, -11.733433509789462]",-11.733433509789464,-11.733433509789462,images/picture_2.png,1,"[11.733433509789462, -11.733433509789466]",11.733433509789462,-11.733433509789464,images/picture_3.png,2,"[-11.733433509789462, 11.733433509789464]",-11.733433509789462,11.733433509789464,0,1,1,0.6348669565603065,1.6348669565603065,1.3651330434396935,3.0,1,1.3848669565603065,0,4.0,3.0,1,2,10,0,10,0,0,5,5,0,,,,,,,713.1573380419995,713.1573380419995,714.1711276250007,714.5574199170005,714.7713155840011,714.7713155840011,714.7713155840011,716.1380455420003,716.1380455420003,716.1380455420003,716.1380455420003,717.1574377500001,200005,204,2023-04-11_15h19.20.481,DMS_et_12-36,2022.2.4,None,
96,PRED,12,0.6348669565603065,2,images/picture_3.png,images/picture_1.png,0,"[11.733433509789462, -11.733433509789466]",11.733433509789462,-11.733433509789464,images/picture_2.png,1,"[-11.733433509789466, -11.733433509789462]",-11.733433509789464,-11.733433509789462,images/picture_3.png,2,"[11.733433509789464, 11.733433509789462]",11.733433509789464,11.733433509789462,0,1,1,0.6348669565603065,1.6348669565603065,1.3651330434396935,3.0,1,1.3848669565603065,0,4.0,3.0,1,2,10,0,10,0,0,6,6,6,,,,,,,717.1574377500001,717.1574377500001,718.1713925420008,718.5574706670013,718.771454959,718.771454959,718.771454959,720.1380627500002,720.1380627500002,720.1380627500002,720.1380627500002,721.1570073750008,200005,204,2023-04-11_15h19.20.481,DMS_et_12-36,2022.2.4,None,
92,PRED,12,0.6348669565603065,2,images/picture_3.png,images/picture_1.png,0,"[11.733433509789464, 11.733433509789462]",11.733433509789464,11.733433509789462,images/picture_2.png,1,"[11.733433509789462, -11.733433509789466]",11.733433509789462,-11.733433509789464,images/picture_3.png,2,"[-11.733433509789462, 11.733433509789464]",-11.733433509789462,11.733433509789464,0,1,1,0.6348669565603065,1.6348669565603065,1.3651330434396935,3.0,1,1.3848669565603065,0,4.0,3.0,1,2,10,0,10,0,0,7,7,2,,,,,,,721.1570073750008,721.1570073750008,722.1714115840005,722.5576730419998,722.7714217920002,722.7714217920002,722.7714217920002,724.1377856250001,724.1377856250001,724.1377856250001,724.1377856250001,725.157005250001,200005,204,2023-04-11_15h19.20.481,DMS_et_12-36,2022.2.4,None,
91,PRED,12,0.6348669565603065,2,images/picture_3.png,images/picture_1.png,0,"[11.733433509789462, -11.733433509789466]",11.733433509789462,-11.733433509789464,images/picture_2.png,1,"[-11.733433509789462, 11.733433509789464]",-11.733433509789462,11.733433509789464,images/picture_3.png,2,"[-11.733433509789466, -11.733433509789462]",-11.733433509789464,-11.733433509789462,0,1,1,0.6348669565603065,1.6348669565603065,1.3651330434396935,3.0,1,1.3848669565603065,0,4.0,3.0,1,2,10,0,10,0,0,8,8,1,,,,,,,725.157005250001,725.157005250001,726.1713207920002,726.5379833340012,726.771417625001,726.771417625001,726.771417625001,728.1379932920008,728.1379932920008,728.1379932920008,728.1379932920008,729.2525777499995,200005,204,2023-04-11_15h19.20.481,DMS_et_12-36,2022.2.4,None,
,,,,,,,,,,,,,,,,,,,,,,,,,,,,,,,,,,,10,0,10,0,,,,,,,,,729.2525777499995,741.2870802500001,,,,,,,,,,,,,200005,204,2023-04-11_15h19.20.481,DMS_et_12-36,2022.2.4,None,
103,UNPRED,12,0.6348669565603065,2,images/picture_3.png,images/picture_1.png,0,"[11.733433509789464, 11.733433509789462]",11.733433509789464,11.733433509789462,images/picture_2.png,1,"[-11.733433509789462, 11.733433509789464]",-11.733433509789462,11.733433509789464,images/picture_3.png,2,"[11.733433509789462, -11.733433509789466]",11.733433509789462,-11.733433509789464,0,1,1,0.6348669565603065,1.6348669565603065,1.3651330434396935,3.0,1,1.3848669565603065,0,4.0,3.0,1,2,11,0,11,0,0,0,0,4,,,,,,,741.2870802500001,741.2870802500001,742.2913320420012,742.6716627090009,742.9047386250004,742.9047386250004,742.9047386250004,744.2711614170003,744.2711614170003,744.2711614170003,744.2711614170003,745.2713962920006,200005,204,2023-04-11_15h19.20.481,DMS_et_12-36,2022.2.4,None,
101,UNPRED,12,0.6348669565603065,0,images/picture_1.png,images/picture_1.png,0,"[-11.733433509789466, -11.733433509789462]",-11.733433509789464,-11.733433509789462,images/picture_2.png,1,"[-11.733433509789462, 11.733433509789464]",-11.733433509789462,11.733433509789464,images/picture_3.png,2,"[11.733433509789462, -11.733433509789466]",11.733433509789462,-11.733433509789464,0,1,1,0.6348669565603065,1.6348669565603065,1.3651330434396935,3.0,1,1.3848669565603065,0,4.0,3.0,1,2,11,0,11,0,0,1,1,2,,,,,,,745.2713962920006,745.2713962920006,746.2712992500001,746.6712882920001,746.9047041670001,746.9047041670001,746.9047041670001,748.2712992920005,748.2712992920005,748.2712992920005,748.2712992920005,749.270823750001,200005,204,2023-04-11_15h19.20.481,DMS_et_12-36,2022.2.4,None,
100,UNPRED,12,0.6348669565603065,0,images/picture_1.png,images/picture_1.png,0,"[11.733433509789464, 11.733433509789462]",11.733433509789464,11.733433509789462,images/picture_2.png,1,"[-11.733433509789466, -11.733433509789462]",-11.733433509789464,-11.733433509789462,images/picture_3.png,2,"[11.733433509789462, -11.733433509789466]",11.733433509789462,-11.733433509789464,0,1,1,0.6348669565603065,1.6348669565603065,1.3651330434396935,3.0,1,1.3848669565603065,0,4.0,3.0,1,2,11,0,11,0,0,2,2,1,,,,,,,749.270823750001,749.270823750001,750.2714958340002,750.6576642500004,750.9047607499997,750.9047607499997,750.9047607499997,752.2712802500009,752.2712802500009,752.2712802500009,752.2712802500009,753.2901792499997,200005,204,2023-04-11_15h19.20.481,DMS_et_12-36,2022.2.4,None,
99,UNPRED,12,0.6348669565603065,2,images/picture_3.png,images/picture_1.png,0,"[-11.733433509789462, 11.733433509789464]",-11.733433509789462,11.733433509789464,images/picture_2.png,1,"[-11.733433509789466, -11.733433509789462]",-11.733433509789464,-11.733433509789462,images/picture_3.png,2,"[11.733433509789462, -11.733433509789466]",11.733433509789462,-11.733433509789464,0,1,1,0.6348669565603065,1.6348669565603065,1.3651330434396935,3.0,1,1.3848669565603065,0,4.0,3.0,1,2,11,0,11,0,0,3,3,0,,,,,,,753.2901792499997,753.2901792499997,754.3044665840007,754.6900137089997,754.9044858750003,754.9044858750003,754.9044858750003,756.2714855000013,756.2714855000013,756.2714855000013,756.2714855000013,757.2911204169995,200005,204,2023-04-11_15h19.20.481,DMS_et_12-36,2022.2.4,None,
105,UNPRED,12,0.6348669565603065,1,images/picture_2.png,images/picture_1.png,0,"[-11.733433509789462, 11.733433509789464]",-11.733433509789462,11.733433509789464,images/picture_2.png,1,"[-11.733433509789466, -11.733433509789462]",-11.733433509789464,-11.733433509789462,images/picture_3.png,2,"[11.733433509789464, 11.733433509789462]",11.733433509789464,11.733433509789462,0,1,1,0.6348669565603065,1.6348669565603065,1.3651330434396935,3.0,1,1.3848669565603065,0,4.0,3.0,1,2,11,0,11,0,0,4,4,6,,,,,,,757.2911204169995,757.2911204169995,758.3048001250008,758.6906878749996,758.9045488339998,758.9045488339998,758.9045488339998,760.2712865000012,760.2712865000012,760.2712865000012,760.2712865000012,761.2902594170009,200005,204,2023-04-11_15h19.20.481,DMS_et_12-36,2022.2.4,None,
102,UNPRED,12,0.6348669565603065,2,images/picture_3.png,images/picture_1.png,0,"[11.733433509789462, -11.733433509789466]",11.733433509789462,-11.733433509789464,images/picture_2.png,1,"[-11.733433509789466, -11.733433509789462]",-11.733433509789464,-11.733433509789462,images/picture_3.png,2,"[-11.733433509789462, 11.733433509789464]",-11.733433509789462,11.733433509789464,0,1,1,0.6348669565603065,1.6348669565603065,1.3651330434396935,3.0,1,1.3848669565603065,0,4.0,3.0,1,2,11,0,11,0,0,5,5,3,,,,,,,761.2902594170009,761.2902594170009,762.304577334,762.6712972500009,762.9047639170003,762.9047639170003,762.9047639170003,764.2710320839997,764.2710320839997,764.2710320839997,764.2710320839997,765.2712193340012,200005,204,2023-04-11_15h19.20.481,DMS_et_12-36,2022.2.4,None,
107,UNPRED,12,0.6348669565603065,0,images/picture_1.png,images/picture_1.png,0,"[-11.733433509789466, -11.733433509789462]",-11.733433509789464,-11.733433509789462,images/picture_2.png,1,"[11.733433509789464, 11.733433509789462]",11.733433509789464,11.733433509789462,images/picture_3.png,2,"[11.733433509789462, -11.733433509789466]",11.733433509789462,-11.733433509789464,0,1,1,0.6348669565603065,1.6348669565603065,1.3651330434396935,3.0,1,1.3848669565603065,0,4.0,3.0,1,2,11,0,11,0,0,6,6,8,,,,,,,765.2712193340012,765.2712193340012,766.2713181250001,766.671418209,766.9047726669996,766.9047726669996,766.9047726669996,768.2714870420004,768.2714870420004,768.2714870420004,768.2714870420004,769.2709202090009,200005,204,2023-04-11_15h19.20.481,DMS_et_12-36,2022.2.4,None,
104,UNPRED,12,0.6348669565603065,0,images/picture_1.png,images/picture_1.png,0,"[-11.733433509789466, -11.733433509789462]",-11.733433509789464,-11.733433509789462,images/picture_2.png,1,"[-11.733433509789462, 11.733433509789464]",-11.733433509789462,11.733433509789464,images/picture_3.png,2,"[11.733433509789464, 11.733433509789462]",11.733433509789464,11.733433509789462,0,1,1,0.6348669565603065,1.6348669565603065,1.3651330434396935,3.0,1,1.3848669565603065,0,4.0,3.0,1,2,11,0,11,0,0,7,7,5,,,,,,,769.2709202090009,769.2709202090009,770.2715123340004,770.6714736249996,770.9047387499995,770.9047387499995,770.9047387499995,772.271242625,772.271242625,772.271242625,772.271242625,773.2904137500009,200005,204,2023-04-11_15h19.20.481,DMS_et_12-36,2022.2.4,None,
106,UNPRED,12,0.6348669565603065,2,images/picture_3.png,images/picture_1.png,0,"[-11.733433509789466, -11.733433509789462]",-11.733433509789464,-11.733433509789462,images/picture_2.png,1,"[11.733433509789464, 11.733433509789462]",11.733433509789464,11.733433509789462,images/picture_3.png,2,"[11.733433509789462, -11.733433509789466]",11.733433509789462,-11.733433509789464,0,1,1,0.6348669565603065,1.6348669565603065,1.3651330434396935,3.0,1,1.3848669565603065,0,4.0,3.0,1,2,11,0,11,0,0,8,8,7,,,,,,,773.2904137500009,773.2904137500009,774.3047244170011,774.689961334001,774.9043445000007,774.9043445000007,774.9043445000007,776.2714734590008,776.2714734590008,776.2714734590008,776.2714734590008,777.4421852920004,200005,204,2023-04-11_15h19.20.481,DMS_et_12-36,2022.2.4,None,
,,,,,,,,,,,,,,,,,,,,,,,,,,,,,,,,,,,11,0,11,0,,,,,,,,,777.4421852920004,789.5665994999999,,,,,,,,,,,,,200005,204,2023-04-11_15h19.20.481,DMS_et_12-36,2022.2.4,None,
,,,,,,,,,,,,,,,,,,,,,,,,,,,,,,,,,,,,,,,,,,,,,,,789.5665994999999,802.1025795000005,,,,,,,,,,,,,,,,,,,
