trial_count,blockType,blockNum,delay_time,stimImage_i,stimImage,responseImage1,responseImage1_i,responseImage1_pos,responseImage1_X,responseImage1_Y,responseImage2,responseImage2_i,responseImage2_pos,responseImage2_X,responseImage2_Y,responseImage3,responseImage3_i,responseImage3_pos,responseImage3_X,responseImage3_Y,cue_onset,cue_dur,delay_onset,delay_dur,resp_onset,resp_dur,rest_onset,rest_dur,circle_dur,circle_onset,blocks.thisRepN,blocks.thisTrialN,blocks.thisN,blocks.thisIndex,trials.thisRepN,trials.thisTrialN,trials.thisN,trials.thisIndex,key_resp.started,text.started,key_resp.keys,key_resp.rt,text_2.started,text_2.stopped,etRecord.started,sample.started,Delay.started,sample.stopped,Delay.stopped,Response_1.started,Response_2.started,Response_3.started,Response_1.stopped,Response_2.stopped,Response_3.stopped,polygon.started,polygon.stopped,etRecord.stopped,participant,session,date,expName,psychopyVersion,frameRate,
,,,,,,,,,,,,,,,,,,,,,,,,,,,,,,,,,,,,,,,18.656163958017714,18.656163958017714,t,42.89441408298444,,,,,,,,,,,,,,,,,200002,004,2023-03-16_15h59.42.722,DMS_BEST_eyetracking_DAN_base_12-36_looped_10minWORKING,2022.2.4,None,
2,PRED,12,0.5508589277375443,2,images/picture_3.png,images/picture_1.png,0,"[-11.733433509789462, 11.733433509789464]",-11.733433509789462,11.733433509789464,images/picture_2.png,1,"[11.733433509789462, -11.733433509789466]",11.733433509789462,-11.733433509789464,images/picture_3.png,2,"[-11.733433509789466, -11.733433509789462]",-11.733433509789464,-11.733433509789462,0,1,1,0.5508589277375443,1.5508589277375444,1.4491410722624556,3,1,1.3008589277375444,0,0,0,0,0,0,0,0,2,,,,,61.56007920799311,73.59269254200626,,,,,,,,,,,,,,,200002,004,2023-03-16_15h59.42.722,DMS_BEST_eyetracking_DAN_base_12-36_looped_10minWORKING,2022.2.4,None,
2,PRED,12,0.5508589277375443,2,images/picture_3.png,images/picture_1.png,0,"[-11.733433509789462, 11.733433509789464]",-11.733433509789462,11.733433509789464,images/picture_2.png,1,"[11.733433509789462, -11.733433509789466]",11.733433509789462,-11.733433509789464,images/picture_3.png,2,"[-11.733433509789466, -11.733433509789462]",-11.733433509789464,-11.733433509789462,0,1,1,0.5508589277375443,1.5508589277375444,1.4491410722624556,3,1,1.3008589277375444,0,0,0,0,0,0,0,0,2,,,,,,,0.0030960829462856054,73.59269254200626,73.59269254200626,74.60724237497197,74.90702837501885,75.12588520802092,75.12588520802092,75.12588520802092,76.57366583298426,76.57366583298426,76.57366583298426,76.57366583298426,77.57392608298687,4.021453665976878,200002,004,2023-03-16_15h59.42.722,DMS_BEST_eyetracking_DAN_base_12-36_looped_10minWORKING,2022.2.4,None,
8,PRED,12,0.7447781493598888,2,images/picture_3.png,images/picture_1.png,0,"[11.733433509789462, -11.733433509789466]",11.733433509789462,-11.733433509789464,images/picture_2.png,1,"[-11.733433509789466, -11.733433509789462]",-11.733433509789464,-11.733433509789462,images/picture_3.png,2,"[-11.733433509789462, 11.733433509789464]",-11.733433509789462,11.733433509789464,0,1,1,0.7447781493598888,1.7447781493598888,1.2552218506401112,3,1,1.4947781493598888,0,0,0,0,0,0,1,1,8,,,,,,,,,,,,,,,,,,,,,200002,004,2023-03-16_15h59.42.722,DMS_BEST_eyetracking_DAN_base_12-36_looped_10minWORKING,2022.2.4,None,
8,PRED,12,0.7447781493598888,2,images/picture_3.png,images/picture_1.png,0,"[11.733433509789462, -11.733433509789466]",11.733433509789462,-11.733433509789464,images/picture_2.png,1,"[-11.733433509789466, -11.733433509789462]",-11.733433509789464,-11.733433509789462,images/picture_3.png,2,"[-11.733433509789462, 11.733433509789464]",-11.733433509789462,11.733433509789464,0,1,1,0.7447781493598888,1.7447781493598888,1.2552218506401112,3,1,1.4947781493598888,0,0,0,0,0,0,1,1,8,,,,,,,0.003549416025634855,77.62648329196963,77.62648329196963,78.6406622499926,79.12681012501707,79.34029845800251,79.34029845800251,79.34029845800251,80.60722825000994,80.60722825000994,80.60722825000994,80.60722825000994,81.6072293749894,4.029912750003859,200002,004,2023-03-16_15h59.42.722,DMS_BEST_eyetracking_DAN_base_12-36_looped_10minWORKING,2022.2.4,None,
0,PRED,12,0.5704737986745197,2,images/picture_3.png,images/picture_1.png,0,"[-11.733433509789462, 11.733433509789464]",-11.733433509789462,11.733433509789464,images/picture_2.png,1,"[11.733433509789462, -11.733433509789466]",11.733433509789462,-11.733433509789464,images/picture_3.png,2,"[11.733433509789464, 11.733433509789462]",11.733433509789464,11.733433509789462,0,1,1,0.5704737986745197,1.5704737986745196,1.4295262013254804,3,1,1.3204737986745196,0,0,0,0,0,0,2,2,0,,,,,,,,,,,,,,,,,,,,,200002,004,2023-03-16_15h59.42.722,DMS_BEST_eyetracking_DAN_base_12-36_looped_10minWORKING,2022.2.4,None,
0,PRED,12,0.5704737986745197,2,images/picture_3.png,images/picture_1.png,0,"[-11.733433509789462, 11.733433509789464]",-11.733433509789462,11.733433509789464,images/picture_2.png,1,"[11.733433509789462, -11.733433509789466]",11.733433509789462,-11.733433509789464,images/picture_3.png,2,"[11.733433509789464, 11.733433509789462]",11.733433509789464,11.733433509789462,0,1,1,0.5704737986745197,1.5704737986745196,1.4295262013254804,3,1,1.3204737986745196,0,0,0,0,0,0,2,2,0,,,,,,,0.0033190419781021774,81.64185129199177,81.64185129199177,82.64062575000571,82.97403183300048,83.20679712499259,83.20679712499259,83.20679712499259,84.64047604199732,84.64047604199732,84.64047604199732,84.64047604199732,85.6401579999947,3.9962883749976754,200002,004,2023-03-16_15h59.42.722,DMS_BEST_eyetracking_DAN_base_12-36_looped_10minWORKING,2022.2.4,None,
6,PRED,12,1.0930683979271378,2,images/picture_3.png,images/picture_1.png,0,"[11.733433509789462, -11.733433509789466]",11.733433509789462,-11.733433509789464,images/picture_2.png,1,"[-11.733433509789462, 11.733433509789464]",-11.733433509789462,11.733433509789464,images/picture_3.png,2,"[-11.733433509789466, -11.733433509789462]",-11.733433509789464,-11.733433509789462,0,1,1,1.0930683979271378,2.093068397927138,0.906931602072862,3,1,1.8430683979271383,0,0,0,0,0,0,3,3,6,,,,,,,,,,,,,,,,,,,,,200002,004,2023-03-16_15h59.42.722,DMS_BEST_eyetracking_DAN_base_12-36_looped_10minWORKING,2022.2.4,None,
6,PRED,12,1.0930683979271378,2,images/picture_3.png,images/picture_1.png,0,"[11.733433509789462, -11.733433509789466]",11.733433509789462,-11.733433509789464,images/picture_2.png,1,"[-11.733433509789462, 11.733433509789464]",-11.733433509789462,11.733433509789464,images/picture_3.png,2,"[-11.733433509789466, -11.733433509789462]",-11.733433509789464,-11.733433509789462,0,1,1,1.0930683979271378,2.093068397927138,0.906931602072862,3,1,1.8430683979271383,0,0,0,0,0,0,3,3,6,,,,,,,0.003082374983932823,85.6401579999947,85.6401579999947,86.64050633297302,87.49308337498223,87.7264181249775,87.7264181249775,87.7264181249775,88.64057391701499,88.64057391701499,88.64057391701499,88.64057391701499,89.64128708298085,3.9971651249798015,200002,004,2023-03-16_15h59.42.722,DMS_BEST_eyetracking_DAN_base_12-36_looped_10minWORKING,2022.2.4,None,
3,PRED,12,1.1646189615568934,2,images/picture_3.png,images/picture_1.png,0,"[11.733433509789464, 11.733433509789462]",11.733433509789464,11.733433509789462,images/picture_2.png,1,"[11.733433509789462, -11.733433509789466]",11.733433509789462,-11.733433509789464,images/picture_3.png,2,"[-11.733433509789462, 11.733433509789464]",-11.733433509789462,11.733433509789464,0,1,1,1.1646189615568934,2.1646189615568936,0.8353810384431066,3,1,1.9146189615568936,0,0,0,0,0,0,4,4,3,,,,,,,,,,,,,,,,,,,,,200002,004,2023-03-16_15h59.42.722,DMS_BEST_eyetracking_DAN_base_12-36_looped_10minWORKING,2022.2.4,None,
3,PRED,12,1.1646189615568934,2,images/picture_3.png,images/picture_1.png,0,"[11.733433509789464, 11.733433509789462]",11.733433509789464,11.733433509789462,images/picture_2.png,1,"[11.733433509789462, -11.733433509789466]",11.733433509789462,-11.733433509789464,images/picture_3.png,2,"[-11.733433509789462, 11.733433509789464]",-11.733433509789462,11.733433509789464,0,1,1,1.1646189615568934,2.1646189615568936,0.8353810384431066,3,1,1.9146189615568936,0,0,0,0,0,0,4,4,3,,,,,,,0.003704667033161968,89.64128708298085,89.64128708298085,90.640445291996,91.5600106670172,91.8069427079754,91.8069427079754,91.8069427079754,92.64048574998742,92.64048574998742,92.64048574998742,92.64048574998742,93.63980770797934,3.9964857090380974,200002,004,2023-03-16_15h59.42.722,DMS_BEST_eyetracking_DAN_base_12-36_looped_10minWORKING,2022.2.4,None,
5,PRED,12,0.7729748609847892,2,images/picture_3.png,images/picture_1.png,0,"[11.733433509789462, -11.733433509789466]",11.733433509789462,-11.733433509789464,images/picture_2.png,1,"[11.733433509789464, 11.733433509789462]",11.733433509789464,11.733433509789462,images/picture_3.png,2,"[-11.733433509789466, -11.733433509789462]",-11.733433509789464,-11.733433509789462,0,1,1,0.7729748609847892,1.7729748609847893,1.2270251390152107,3,1,1.5229748609847893,0,0,0,0,0,0,5,5,5,,,,,,,,,,,,,,,,,,,,,200002,004,2023-03-16_15h59.42.722,DMS_BEST_eyetracking_DAN_base_12-36_looped_10minWORKING,2022.2.4,None,
5,PRED,12,0.7729748609847892,2,images/picture_3.png,images/picture_1.png,0,"[11.733433509789462, -11.733433509789466]",11.733433509789462,-11.733433509789464,images/picture_2.png,1,"[11.733433509789464, 11.733433509789462]",11.733433509789464,11.733433509789462,images/picture_3.png,2,"[-11.733433509789466, -11.733433509789462]",-11.733433509789464,-11.733433509789462,0,1,1,0.7729748609847892,1.7729748609847893,1.2270251390152107,3,1,1.5229748609847893,0,0,0,0,0,0,5,5,5,,,,,,,0.0014089170144870877,93.63980770797934,93.63980770797934,94.64055237499997,95.17393724998692,95.40693445800571,95.40693445800571,95.40693445800571,96.6408010830055,96.6408010830055,96.6408010830055,96.6408010830055,97.64062091696542,3.998659459000919,200002,004,2023-03-16_15h59.42.722,DMS_BEST_eyetracking_DAN_base_12-36_looped_10minWORKING,2022.2.4,None,
1,PRED,12,1.1844842658998185,2,images/picture_3.png,images/picture_1.png,0,"[-11.733433509789466, -11.733433509789462]",-11.733433509789464,-11.733433509789462,images/picture_2.png,1,"[11.733433509789462, -11.733433509789466]",11.733433509789462,-11.733433509789464,images/picture_3.png,2,"[-11.733433509789462, 11.733433509789464]",-11.733433509789462,11.733433509789464,0,1,1,1.1844842658998185,2.184484265899818,0.8155157341001817,3,1,1.9344842658998183,0,0,0,0,0,0,6,6,1,,,,,,,,,,,,,,,,,,,,,200002,004,2023-03-16_15h59.42.722,DMS_BEST_eyetracking_DAN_base_12-36_looped_10minWORKING,2022.2.4,None,
1,PRED,12,1.1844842658998185,2,images/picture_3.png,images/picture_1.png,0,"[-11.733433509789466, -11.733433509789462]",-11.733433509789464,-11.733433509789462,images/picture_2.png,1,"[11.733433509789462, -11.733433509789466]",11.733433509789462,-11.733433509789464,images/picture_3.png,2,"[-11.733433509789462, 11.733433509789464]",-11.733433509789462,11.733433509789464,0,1,1,1.1844842658998185,2.184484265899818,0.8155157341001817,3,1,1.9344842658998183,0,0,0,0,0,0,6,6,1,,,,,,,0.0028403750038705766,97.64062091696542,97.64062091696542,98.64052570797503,99.57391433301382,99.82641008298378,99.82641008298378,99.82641008298378,100.64058041700628,100.64058041700628,100.64058041700628,100.64058041700628,101.64111066696933,3.996455207990948,200002,004,2023-03-16_15h59.42.722,DMS_BEST_eyetracking_DAN_base_12-36_looped_10minWORKING,2022.2.4,None,
4,PRED,12,1.0542036711086145,2,images/picture_3.png,images/picture_1.png,0,"[11.733433509789464, 11.733433509789462]",11.733433509789464,11.733433509789462,images/picture_2.png,1,"[11.733433509789462, -11.733433509789466]",11.733433509789462,-11.733433509789464,images/picture_3.png,2,"[-11.733433509789466, -11.733433509789462]",-11.733433509789464,-11.733433509789462,0,1,1,1.0542036711086145,2.0542036711086142,0.9457963288913857,3,1,1.8042036711086145,0,0,0,0,0,0,7,7,4,,,,,,,,,,,,,,,,,,,,,200002,004,2023-03-16_15h59.42.722,DMS_BEST_eyetracking_DAN_base_12-36_looped_10minWORKING,2022.2.4,None,
4,PRED,12,1.0542036711086145,2,images/picture_3.png,images/picture_1.png,0,"[11.733433509789464, 11.733433509789462]",11.733433509789464,11.733433509789462,images/picture_2.png,1,"[11.733433509789462, -11.733433509789466]",11.733433509789462,-11.733433509789464,images/picture_3.png,2,"[-11.733433509789466, -11.733433509789462]",-11.733433509789464,-11.733433509789462,0,1,1,1.0542036711086145,2.0542036711086142,0.9457963288913857,3,1,1.8042036711086145,0,0,0,0,0,0,7,7,4,,,,,,,0.0031173750176094472,101.64111066696933,101.64111066696933,102.64066054200521,103.4596530830022,103.69222362496657,103.69222362496657,103.69222362496657,104.64046600001166,104.64046600001166,104.64046600001166,104.64046600001166,105.66050629201345,3.996587250032462,200002,004,2023-03-16_15h59.42.722,DMS_BEST_eyetracking_DAN_base_12-36_looped_10minWORKING,2022.2.4,None,
7,PRED,12,0.5597147364894486,2,images/picture_3.png,images/picture_1.png,0,"[11.733433509789464, 11.733433509789462]",11.733433509789464,11.733433509789462,images/picture_2.png,1,"[11.733433509789462, -11.733433509789466]",11.733433509789462,-11.733433509789464,images/picture_3.png,2,"[-11.733433509789466, -11.733433509789462]",-11.733433509789464,-11.733433509789462,0,1,1,0.5597147364894486,1.5597147364894486,1.4402852635105514,3,1,1.3097147364894486,0,0,0,0,0,0,8,8,7,,,,,,,,,,,,,,,,,,,,,200002,004,2023-03-16_15h59.42.722,DMS_BEST_eyetracking_DAN_base_12-36_looped_10minWORKING,2022.2.4,None,
7,PRED,12,0.5597147364894486,2,images/picture_3.png,images/picture_1.png,0,"[11.733433509789464, 11.733433509789462]",11.733433509789464,11.733433509789462,images/picture_2.png,1,"[11.733433509789462, -11.733433509789466]",11.733433509789462,-11.733433509789464,images/picture_3.png,2,"[-11.733433509789466, -11.733433509789462]",-11.733433509789464,-11.733433509789462,0,1,1,0.5597147364894486,1.5597147364894486,1.4402852635105514,3,1,1.3097147364894486,0,0,0,0,0,0,8,8,7,,,,,,,0.003398166038095951,105.66050629201345,105.66050629201345,106.67391058302019,106.97390933299903,107.19249670801219,107.19249670801219,107.19249670801219,108.64062816702062,108.64062816702062,108.64062816702062,108.64062816702062,109.64068004197907,4.029602624999825,200002,004,2023-03-16_15h59.42.722,DMS_BEST_eyetracking_DAN_base_12-36_looped_10minWORKING,2022.2.4,None,
,,,,,,,,,,,,,,,,,,,,,,,,,,,,,,,0,0,0,0,,,,,,,,,109.6999544579885,121.73689462500624,,,,,,,,,,,,,,,200002,004,2023-03-16_15h59.42.722,DMS_BEST_eyetracking_DAN_base_12-36_looped_10minWORKING,2022.2.4,None,
12,UNPRED,12,0.5040875157950233,0,images/picture_1.png,images/picture_1.png,0,"[11.733433509789464, 11.733433509789462]",11.733433509789464,11.733433509789462,images/picture_2.png,1,"[-11.733433509789466, -11.733433509789462]",-11.733433509789464,-11.733433509789462,images/picture_3.png,2,"[11.733433509789462, -11.733433509789466]",11.733433509789462,-11.733433509789464,0,1,1,0.5040875157950233,1.5040875157950233,1.4959124842049767,3,1,1.2540875157950233,0,1,0,1,0,0,0,0,3,,,,,,,,,,,,,,,,,,,,,200002,004,2023-03-16_15h59.42.722,DMS_BEST_eyetracking_DAN_base_12-36_looped_10minWORKING,2022.2.4,None,
12,UNPRED,12,0.5040875157950233,0,images/picture_1.png,images/picture_1.png,0,"[11.733433509789464, 11.733433509789462]",11.733433509789464,11.733433509789462,images/picture_2.png,1,"[-11.733433509789466, -11.733433509789462]",-11.733433509789464,-11.733433509789462,images/picture_3.png,2,"[11.733433509789462, -11.733433509789466]",11.733433509789462,-11.733433509789464,0,1,1,0.5040875157950233,1.5040875157950233,1.4959124842049767,3,1,1.2540875157950233,0,1,0,1,0,0,0,0,3,,,,,,,0.004408624954521656,121.73689462500624,121.73689462500624,122.74048329197103,122.99342216696823,123.24046141700819,123.24046141700819,123.24046141700819,124.74017324997112,124.74017324997112,124.74017324997112,124.72588183300104,125.74163254199084,4.0025353750097565,200002,004,2023-03-16_15h59.42.722,DMS_BEST_eyetracking_DAN_base_12-36_looped_10minWORKING,2022.2.4,None,
17,UNPRED,12,0.8733513891672904,0,images/picture_1.png,images/picture_1.png,0,"[11.733433509789462, -11.733433509789466]",11.733433509789462,-11.733433509789464,images/picture_2.png,1,"[11.733433509789464, 11.733433509789462]",11.733433509789464,11.733433509789462,images/picture_3.png,2,"[-11.733433509789466, -11.733433509789462]",-11.733433509789464,-11.733433509789462,0,1,1,0.8733513891672904,1.8733513891672904,1.1266486108327096,3,1,1.6233513891672904,0,1,0,1,0,0,1,1,8,,,,,,,,,,,,,,,,,,,,,200002,004,2023-03-16_15h59.42.722,DMS_BEST_eyetracking_DAN_base_12-36_looped_10minWORKING,2022.2.4,None,
17,UNPRED,12,0.8733513891672904,0,images/picture_1.png,images/picture_1.png,0,"[11.733433509789462, -11.733433509789466]",11.733433509789462,-11.733433509789464,images/picture_2.png,1,"[11.733433509789464, 11.733433509789462]",11.733433509789464,11.733433509789462,images/picture_3.png,2,"[-11.733433509789466, -11.733433509789462]",-11.733433509789464,-11.733433509789462,0,1,1,0.8733513891672904,1.8733513891672904,1.1266486108327096,3,1,1.6233513891672904,0,1,0,1,0,0,1,1,8,,,,,,,0.0034262079861946404,125.74163254199084,125.74163254199084,126.74040662497282,127.37382249999791,127.60732887499034,127.60732887499034,127.60732887499034,128.74046108301263,128.74046108301263,128.74046108301263,128.74046108301263,129.75995216699084,3.9967674170038663,200002,004,2023-03-16_15h59.42.722,DMS_BEST_eyetracking_DAN_base_12-36_looped_10minWORKING,2022.2.4,None,
9,UNPRED,12,0.7397323372919709,0,images/picture_1.png,images/picture_1.png,0,"[-11.733433509789462, 11.733433509789464]",-11.733433509789462,11.733433509789464,images/picture_2.png,1,"[-11.733433509789466, -11.733433509789462]",-11.733433509789464,-11.733433509789462,images/picture_3.png,2,"[11.733433509789462, -11.733433509789466]",11.733433509789462,-11.733433509789464,0,1,1,0.7397323372919709,1.7397323372919709,1.2602676627080291,3,1,1.4897323372919709,0,1,0,1,0,0,2,2,0,,,,,,,,,,,,,,,,,,,,,200002,004,2023-03-16_15h59.42.722,DMS_BEST_eyetracking_DAN_base_12-36_looped_10minWORKING,2022.2.4,None,
9,UNPRED,12,0.7397323372919709,0,images/picture_1.png,images/picture_1.png,0,"[-11.733433509789462, 11.733433509789464]",-11.733433509789462,11.733433509789464,images/picture_2.png,1,"[-11.733433509789466, -11.733433509789462]",-11.733433509789464,-11.733433509789462,images/picture_3.png,2,"[11.733433509789462, -11.733433509789466]",11.733433509789462,-11.733433509789464,0,1,1,0.7397323372919709,1.7397323372919709,1.2602676627080291,3,1,1.4897323372919709,0,1,0,1,0,0,2,2,0,,,,,,,0.0035873749875463545,129.75995216699084,129.75995216699084,130.77391687501222,131.25967670796672,131.47364554199157,131.47364554199157,131.47364554199157,132.74050320801325,132.74050320801325,132.74050320801325,132.74050320801325,133.74053558299784,4.029613791964948,200002,004,2023-03-16_15h59.42.722,DMS_BEST_eyetracking_DAN_base_12-36_looped_10minWORKING,2022.2.4,None,
13,UNPRED,12,0.6337310720629127,0,images/picture_1.png,images/picture_1.png,0,"[11.733433509789462, -11.733433509789466]",11.733433509789462,-11.733433509789464,images/picture_2.png,1,"[11.733433509789464, 11.733433509789462]",11.733433509789464,11.733433509789462,images/picture_3.png,2,"[-11.733433509789466, -11.733433509789462]",-11.733433509789464,-11.733433509789462,0,1,1,0.6337310720629127,1.6337310720629126,1.3662689279370874,3,1,1.3837310720629126,0,1,0,1,0,0,3,3,4,,,,,,,,,,,,,,,,,,,,,200002,004,2023-03-16_15h59.42.722,DMS_BEST_eyetracking_DAN_base_12-36_looped_10minWORKING,2022.2.4,None,
13,UNPRED,12,0.6337310720629127,0,images/picture_1.png,images/picture_1.png,0,"[11.733433509789462, -11.733433509789466]",11.733433509789462,-11.733433509789464,images/picture_2.png,1,"[11.733433509789464, 11.733433509789462]",11.733433509789464,11.733433509789462,images/picture_3.png,2,"[-11.733433509789466, -11.733433509789462]",-11.733433509789464,-11.733433509789462,0,1,1,0.6337310720629127,1.6337310720629126,1.3662689279370874,3,1,1.3837310720629126,0,1,0,1,0,0,3,3,4,,,,,,,0.0034151249565184116,133.77422816696344,133.77422816696344,134.77369366696803,135.15960154199274,135.40703629201744,135.40703629201744,135.40703629201744,136.77392345800763,136.77392345800763,136.77392345800763,136.77392345800763,137.79344741697423,3.9972744999686256,200002,004,2023-03-16_15h59.42.722,DMS_BEST_eyetracking_DAN_base_12-36_looped_10minWORKING,2022.2.4,None,
10,UNPRED,12,0.6796820391473783,2,images/picture_3.png,images/picture_1.png,0,"[11.733433509789462, -11.733433509789466]",11.733433509789462,-11.733433509789464,images/picture_2.png,1,"[-11.733433509789462, 11.733433509789464]",-11.733433509789462,11.733433509789464,images/picture_3.png,2,"[11.733433509789464, 11.733433509789462]",11.733433509789464,11.733433509789462,0,1,1,0.6796820391473783,1.6796820391473783,1.3203179608526217,3,1,1.4296820391473783,0,1,0,1,0,0,4,4,1,,,,,,,,,,,,,,,,,,,,,200002,004,2023-03-16_15h59.42.722,DMS_BEST_eyetracking_DAN_base_12-36_looped_10minWORKING,2022.2.4,None,
10,UNPRED,12,0.6796820391473783,2,images/picture_3.png,images/picture_1.png,0,"[11.733433509789462, -11.733433509789466]",11.733433509789462,-11.733433509789464,images/picture_2.png,1,"[-11.733433509789462, 11.733433509789464]",-11.733433509789462,11.733433509789464,images/picture_3.png,2,"[11.733433509789464, 11.733433509789462]",11.733433509789464,11.733433509789462,0,1,1,0.6796820391473783,1.6796820391473783,1.3203179608526217,3,1,1.4296820391473783,0,1,0,1,0,0,4,4,1,,,,,,,0.006535790977068245,137.79344741697423,137.79344741697423,138.80733412498375,139.2266272919951,139.44030183297582,139.44030183297582,139.44030183297582,140.77390699996613,140.77390699996613,140.77390699996613,140.77390699996613,141.77381570800208,4.02960049995454,200002,004,2023-03-16_15h59.42.722,DMS_BEST_eyetracking_DAN_base_12-36_looped_10minWORKING,2022.2.4,None,
11,UNPRED,12,0.7785341523740879,0,images/picture_1.png,images/picture_1.png,0,"[-11.733433509789466, -11.733433509789462]",-11.733433509789464,-11.733433509789462,images/picture_2.png,1,"[11.733433509789464, 11.733433509789462]",11.733433509789464,11.733433509789462,images/picture_3.png,2,"[11.733433509789462, -11.733433509789466]",11.733433509789462,-11.733433509789464,0,1,1,0.7785341523740879,1.778534152374088,1.221465847625912,3,1,1.528534152374088,0,1,0,1,0,0,5,5,2,,,,,,,,,,,,,,,,,,,,,200002,004,2023-03-16_15h59.42.722,DMS_BEST_eyetracking_DAN_base_12-36_looped_10minWORKING,2022.2.4,None,
11,UNPRED,12,0.7785341523740879,0,images/picture_1.png,images/picture_1.png,0,"[-11.733433509789466, -11.733433509789462]",-11.733433509789464,-11.733433509789462,images/picture_2.png,1,"[11.733433509789464, 11.733433509789462]",11.733433509789464,11.733433509789462,images/picture_3.png,2,"[11.733433509789462, -11.733433509789466]",11.733433509789462,-11.733433509789464,0,1,1,0.7785341523740879,1.778534152374088,1.221465847625912,3,1,1.528534152374088,0,1,0,1,0,0,5,5,2,,,,,,,0.004375541990157217,141.82760412502103,141.82760412502103,142.84085204201983,143.3606299579842,143.5739909579861,143.5739909579861,143.5739909579861,144.80705658299848,144.80705658299848,144.80705658299848,144.80705658299848,145.80721558298683,4.03026970900828,200002,004,2023-03-16_15h59.42.722,DMS_BEST_eyetracking_DAN_base_12-36_looped_10minWORKING,2022.2.4,None,
15,UNPRED,12,0.7816796064116341,1,images/picture_2.png,images/picture_1.png,0,"[11.733433509789462, -11.733433509789466]",11.733433509789462,-11.733433509789464,images/picture_2.png,1,"[-11.733433509789462, 11.733433509789464]",-11.733433509789462,11.733433509789464,images/picture_3.png,2,"[-11.733433509789466, -11.733433509789462]",-11.733433509789464,-11.733433509789462,0,1,1,0.7816796064116341,1.781679606411634,1.218320393588366,3,1,1.531679606411634,0,1,0,1,0,0,6,6,6,,,,,,,,,,,,,,,,,,,,,200002,004,2023-03-16_15h59.42.722,DMS_BEST_eyetracking_DAN_base_12-36_looped_10minWORKING,2022.2.4,None,
15,UNPRED,12,0.7816796064116341,1,images/picture_2.png,images/picture_1.png,0,"[11.733433509789462, -11.733433509789466]",11.733433509789462,-11.733433509789464,images/picture_2.png,1,"[-11.733433509789462, 11.733433509789464]",-11.733433509789462,11.733433509789464,images/picture_3.png,2,"[-11.733433509789466, -11.733433509789462]",-11.733433509789464,-11.733433509789462,0,1,1,0.7816796064116341,1.781679606411634,1.218320393588366,3,1,1.531679606411634,0,1,0,1,0,0,6,6,6,,,,,,,0.00751604198012501,145.8602448750171,145.8602448750171,146.87393220799277,147.40714370796923,147.62674404197605,147.62674404197605,147.62674404197605,148.8598078750074,148.8598078750074,148.8598078750074,148.84042979200603,149.84054087498225,4.030151667015161,200002,004,2023-03-16_15h59.42.722,DMS_BEST_eyetracking_DAN_base_12-36_looped_10minWORKING,2022.2.4,None,
16,UNPRED,12,1.0615507513604792,1,images/picture_2.png,images/picture_1.png,0,"[11.733433509789464, 11.733433509789462]",11.733433509789464,11.733433509789462,images/picture_2.png,1,"[11.733433509789462, -11.733433509789466]",11.733433509789462,-11.733433509789464,images/picture_3.png,2,"[-11.733433509789462, 11.733433509789464]",-11.733433509789462,11.733433509789464,0,1,1,1.0615507513604792,2.061550751360479,0.9384492486395208,3,1,1.8115507513604792,0,1,0,1,0,0,7,7,7,,,,,,,,,,,,,,,,,,,,,200002,004,2023-03-16_15h59.42.722,DMS_BEST_eyetracking_DAN_base_12-36_looped_10minWORKING,2022.2.4,None,
16,UNPRED,12,1.0615507513604792,1,images/picture_2.png,images/picture_1.png,0,"[11.733433509789464, 11.733433509789462]",11.733433509789464,11.733433509789462,images/picture_2.png,1,"[11.733433509789462, -11.733433509789466]",11.733433509789462,-11.733433509789464,images/picture_3.png,2,"[-11.733433509789462, 11.733433509789464]",-11.733433509789462,11.733433509789464,0,1,1,1.0615507513604792,2.061550751360479,0.9384492486395208,3,1,1.8115507513604792,0,1,0,1,0,0,7,7,7,,,,,,,0.0051637080032378435,149.89361404196825,149.89361404196825,150.90717399999266,151.7073577499832,151.92657120799413,151.92657120799413,151.92657120799413,152.87389537499985,152.87389537499985,152.87389537499985,152.87389537499985,153.8739339169697,4.03019545803545,200002,004,2023-03-16_15h59.42.722,DMS_BEST_eyetracking_DAN_base_12-36_looped_10minWORKING,2022.2.4,None,
14,UNPRED,12,0.8488124158403895,0,images/picture_1.png,images/picture_1.png,0,"[-11.733433509789462, 11.733433509789464]",-11.733433509789462,11.733433509789464,images/picture_2.png,1,"[11.733433509789462, -11.733433509789466]",11.733433509789462,-11.733433509789464,images/picture_3.png,2,"[-11.733433509789466, -11.733433509789462]",-11.733433509789464,-11.733433509789462,0,1,1,0.8488124158403895,1.8488124158403891,1.1511875841596106,3,1,1.5988124158403894,0,1,0,1,0,0,8,8,5,,,,,,,,,,,,,,,,,,,,,200002,004,2023-03-16_15h59.42.722,DMS_BEST_eyetracking_DAN_base_12-36_looped_10minWORKING,2022.2.4,None,
14,UNPRED,12,0.8488124158403895,0,images/picture_1.png,images/picture_1.png,0,"[-11.733433509789462, 11.733433509789464]",-11.733433509789462,11.733433509789464,images/picture_2.png,1,"[11.733433509789462, -11.733433509789466]",11.733433509789462,-11.733433509789464,images/picture_3.png,2,"[-11.733433509789466, -11.733433509789462]",-11.733433509789464,-11.733433509789462,0,1,1,0.8488124158403895,1.8488124158403891,1.1511875841596106,3,1,1.5988124158403894,0,1,0,1,0,0,8,8,5,,,,,,,0.0046493749832734466,153.9268737079692,153.9268737079692,154.93999079201603,155.5401058329735,155.7599052080186,155.7599052080186,155.7599052080186,156.92665724997642,156.92665724997642,156.92665724997642,156.90728862502147,157.90719387499848,4.030011874972843,200002,004,2023-03-16_15h59.42.722,DMS_BEST_eyetracking_DAN_base_12-36_looped_10minWORKING,2022.2.4,None,
,,,,,,,,,,,,,,,,,,,,,,,,,,,,,,,1,0,1,0,,,,,,,,,157.988620041986,170.01125529198907,,,,,,,,,,,,,,,200002,004,2023-03-16_15h59.42.722,DMS_BEST_eyetracking_DAN_base_12-36_looped_10minWORKING,2022.2.4,None,
21,PRED,12,1.0045151175340443,2,images/picture_3.png,images/picture_1.png,0,"[11.733433509789462, -11.733433509789466]",11.733433509789462,-11.733433509789464,images/picture_2.png,1,"[11.733433509789464, 11.733433509789462]",11.733433509789464,11.733433509789462,images/picture_3.png,2,"[-11.733433509789462, 11.733433509789464]",-11.733433509789462,11.733433509789464,0,1,1,1.0045151175340443,2.0045151175340443,0.9954848824659556,3,1,1.7545151175340443,0,2,0,2,0,0,0,0,3,,,,,,,,,,,,,,,,,,,,,200002,004,2023-03-16_15h59.42.722,DMS_BEST_eyetracking_DAN_base_12-36_looped_10minWORKING,2022.2.4,None,
21,PRED,12,1.0045151175340443,2,images/picture_3.png,images/picture_1.png,0,"[11.733433509789462, -11.733433509789466]",11.733433509789462,-11.733433509789464,images/picture_2.png,1,"[11.733433509789464, 11.733433509789462]",11.733433509789464,11.733433509789462,images/picture_3.png,2,"[-11.733433509789462, 11.733433509789464]",-11.733433509789462,11.733433509789464,0,1,1,1.0045151175340443,2.0045151175340443,0.9954848824659556,3,1,1.7545151175340443,0,2,0,2,0,0,0,0,3,,,,,,,0.0035510410089045763,170.01125529198907,170.01125529198907,171.02661837497726,171.7739296249929,172.00691562501015,172.00691562501015,172.00691562501015,173.00741566700162,173.00741566700162,173.00741566700162,173.00741566700162,174.0072751250118,4.007523957989179,200002,004,2023-03-16_15h59.42.722,DMS_BEST_eyetracking_DAN_base_12-36_looped_10minWORKING,2022.2.4,None,
20,PRED,12,0.9695439151069334,2,images/picture_3.png,images/picture_1.png,0,"[-11.733433509789466, -11.733433509789462]",-11.733433509789464,-11.733433509789462,images/picture_2.png,1,"[-11.733433509789462, 11.733433509789464]",-11.733433509789462,11.733433509789464,images/picture_3.png,2,"[11.733433509789464, 11.733433509789462]",11.733433509789464,11.733433509789462,0,1,1,0.9695439151069334,1.9695439151069332,1.0304560848930666,3,1,1.7195439151069334,0,2,0,2,0,0,1,1,2,,,,,,,,,,,,,,,,,,,,,200002,004,2023-03-16_15h59.42.722,DMS_BEST_eyetracking_DAN_base_12-36_looped_10minWORKING,2022.2.4,None,
20,PRED,12,0.9695439151069334,2,images/picture_3.png,images/picture_1.png,0,"[-11.733433509789466, -11.733433509789462]",-11.733433509789464,-11.733433509789462,images/picture_2.png,1,"[-11.733433509789462, 11.733433509789464]",-11.733433509789462,11.733433509789464,images/picture_3.png,2,"[11.733433509789464, 11.733433509789462]",11.733433509789464,11.733433509789462,0,1,1,0.9695439151069334,1.9695439151069332,1.0304560848930666,3,1,1.7195439151069334,0,2,0,2,0,0,1,1,2,,,,,,,0.0028527500107884407,174.02569470799062,174.02569470799062,175.04015349998372,175.75912800000515,175.99250275001395,175.99250275001395,175.99250275001395,177.0265558329993,177.0265558329993,177.0265558329993,177.00720916700084,178.00752699997975,4.016139750019647,200002,004,2023-03-16_15h59.42.722,DMS_BEST_eyetracking_DAN_base_12-36_looped_10minWORKING,2022.2.4,None,
26,PRED,12,0.7234533352235242,2,images/picture_3.png,images/picture_1.png,0,"[-11.733433509789466, -11.733433509789462]",-11.733433509789464,-11.733433509789462,images/picture_2.png,1,"[11.733433509789462, -11.733433509789466]",11.733433509789462,-11.733433509789464,images/picture_3.png,2,"[11.733433509789464, 11.733433509789462]",11.733433509789464,11.733433509789462,0,1,1,0.7234533352235242,1.7234533352235242,1.2765466647764758,3,1,1.4734533352235242,0,2,0,2,0,0,2,2,8,,,,,,,,,,,,,,,,,,,,,200002,004,2023-03-16_15h59.42.722,DMS_BEST_eyetracking_DAN_base_12-36_looped_10minWORKING,2022.2.4,None,
26,PRED,12,0.7234533352235242,2,images/picture_3.png,images/picture_1.png,0,"[-11.733433509789466, -11.733433509789462]",-11.733433509789464,-11.733433509789462,images/picture_2.png,1,"[11.733433509789462, -11.733433509789466]",11.733433509789462,-11.733433509789464,images/picture_3.png,2,"[11.733433509789464, 11.733433509789462]",11.733433509789464,11.733433509789462,0,1,1,0.7234533352235242,1.7234533352235242,1.2765466647764758,3,1,1.4734533352235242,0,2,0,2,0,0,2,2,8,,,,,,,0.003221291000954807,178.06008754199138,178.06008754199138,179.07462616701378,179.5408934999723,179.7594142499729,179.7594142499729,179.7594142499729,181.04068154201377,181.04068154201377,181.04068154201377,181.04068154201377,182.04064166697208,4.02841291599907,200002,004,2023-03-16_15h59.42.722,DMS_BEST_eyetracking_DAN_base_12-36_looped_10minWORKING,2022.2.4,None,
23,PRED,12,0.5560267654095862,2,images/picture_3.png,images/picture_1.png,0,"[11.733433509789464, 11.733433509789462]",11.733433509789464,11.733433509789462,images/picture_2.png,1,"[11.733433509789462, -11.733433509789466]",11.733433509789462,-11.733433509789464,images/picture_3.png,2,"[-11.733433509789466, -11.733433509789462]",-11.733433509789464,-11.733433509789462,0,1,1,0.5560267654095862,1.5560267654095858,1.4439732345904142,3,1,1.306026765409586,0,2,0,2,0,0,3,3,5,,,,,,,,,,,,,,,,,,,,,200002,004,2023-03-16_15h59.42.722,DMS_BEST_eyetracking_DAN_base_12-36_looped_10minWORKING,2022.2.4,None,
23,PRED,12,0.5560267654095862,2,images/picture_3.png,images/picture_1.png,0,"[11.733433509789464, 11.733433509789462]",11.733433509789464,11.733433509789462,images/picture_2.png,1,"[11.733433509789462, -11.733433509789466]",11.733433509789462,-11.733433509789464,images/picture_3.png,2,"[-11.733433509789466, -11.733433509789462]",-11.733433509789464,-11.733433509789462,0,1,1,0.5560267654095862,1.5560267654095858,1.4439732345904142,3,1,1.306026765409586,0,2,0,2,0,0,3,3,5,,,,,,,0.0013246249873191118,182.07386549998773,182.07386549998773,183.07501550001325,183.39236875000643,183.62697466701502,183.62697466701502,183.62697466701502,185.0740602919832,185.0740602919832,185.0740602919832,185.0740602919832,186.07376804196974,3.9982394999824464,200002,004,2023-03-16_15h59.42.722,DMS_BEST_eyetracking_DAN_base_12-36_looped_10minWORKING,2022.2.4,None,
18,PRED,12,1.1324001514942768,2,images/picture_3.png,images/picture_1.png,0,"[-11.733433509789462, 11.733433509789464]",-11.733433509789462,11.733433509789464,images/picture_2.png,1,"[11.733433509789464, 11.733433509789462]",11.733433509789464,11.733433509789462,images/picture_3.png,2,"[11.733433509789462, -11.733433509789466]",11.733433509789462,-11.733433509789464,0,1,1,1.1324001514942768,2.1324001514942768,0.8675998485057232,3,1,1.8824001514942768,0,2,0,2,0,0,4,4,0,,,,,,,,,,,,,,,,,,,,,200002,004,2023-03-16_15h59.42.722,DMS_BEST_eyetracking_DAN_base_12-36_looped_10minWORKING,2022.2.4,None,
18,PRED,12,1.1324001514942768,2,images/picture_3.png,images/picture_1.png,0,"[-11.733433509789462, 11.733433509789464]",-11.733433509789462,11.733433509789464,images/picture_2.png,1,"[11.733433509789464, 11.733433509789462]",11.733433509789464,11.733433509789462,images/picture_3.png,2,"[11.733433509789462, -11.733433509789466]",11.733433509789462,-11.733433509789464,0,1,1,1.1324001514942768,2.1324001514942768,0.8675998485057232,3,1,1.8824001514942768,0,2,0,2,0,0,4,4,0,,,,,,,0.0014172499650157988,186.07376804196974,186.07376804196974,187.07384224998532,187.9591188749764,188.20679191697855,188.20679191697855,188.20679191697855,189.07348324998748,189.07348324998748,189.07348324998748,189.07348324998748,190.07410470797913,3.997504791012034,200002,004,2023-03-16_15h59.42.722,DMS_BEST_eyetracking_DAN_base_12-36_looped_10minWORKING,2022.2.4,None,
25,PRED,12,0.5082560139476795,2,images/picture_3.png,images/picture_1.png,0,"[11.733433509789464, 11.733433509789462]",11.733433509789464,11.733433509789462,images/picture_2.png,1,"[11.733433509789462, -11.733433509789466]",11.733433509789462,-11.733433509789464,images/picture_3.png,2,"[-11.733433509789462, 11.733433509789464]",-11.733433509789462,11.733433509789464,0,1,1,0.5082560139476795,1.5082560139476795,1.4917439860523205,3,1,1.2582560139476795,0,2,0,2,0,0,5,5,7,,,,,,,,,,,,,,,,,,,,,200002,004,2023-03-16_15h59.42.722,DMS_BEST_eyetracking_DAN_base_12-36_looped_10minWORKING,2022.2.4,None,
25,PRED,12,0.5082560139476795,2,images/picture_3.png,images/picture_1.png,0,"[11.733433509789464, 11.733433509789462]",11.733433509789464,11.733433509789462,images/picture_2.png,1,"[11.733433509789462, -11.733433509789466]",11.733433509789462,-11.733433509789464,images/picture_3.png,2,"[-11.733433509789462, 11.733433509789464]",-11.733433509789462,11.733433509789464,0,1,1,0.5082560139476795,1.5082560139476795,1.4917439860523205,3,1,1.2582560139476795,0,2,0,2,0,0,5,5,7,,,,,,,0.0014554999652318656,190.07410470797913,190.07410470797913,191.07405049999943,191.34024970798055,191.57337975001428,191.57337975001428,191.57337975001428,193.07347624999238,193.07347624999238,193.07347624999238,193.07347624999238,194.07333491701866,3.998582666972652,200002,004,2023-03-16_15h59.42.722,DMS_BEST_eyetracking_DAN_base_12-36_looped_10minWORKING,2022.2.4,None,
24,PRED,12,0.7590748610151454,2,images/picture_3.png,images/picture_1.png,0,"[11.733433509789464, 11.733433509789462]",11.733433509789464,11.733433509789462,images/picture_2.png,1,"[-11.733433509789462, 11.733433509789464]",-11.733433509789462,11.733433509789464,images/picture_3.png,2,"[-11.733433509789466, -11.733433509789462]",-11.733433509789464,-11.733433509789462,0,1,1,0.7590748610151454,1.7590748610151454,1.2409251389848546,3,1,1.5090748610151454,0,2,0,2,0,0,6,6,6,,,,,,,,,,,,,,,,,,,,,200002,004,2023-03-16_15h59.42.722,DMS_BEST_eyetracking_DAN_base_12-36_looped_10minWORKING,2022.2.4,None,
24,PRED,12,0.7590748610151454,2,images/picture_3.png,images/picture_1.png,0,"[11.733433509789464, 11.733433509789462]",11.733433509789464,11.733433509789462,images/picture_2.png,1,"[-11.733433509789462, 11.733433509789464]",-11.733433509789462,11.733433509789464,images/picture_3.png,2,"[-11.733433509789466, -11.733433509789462]",-11.733433509789464,-11.733433509789462,0,1,1,0.7590748610151454,1.7590748610151454,1.2409251389848546,3,1,1.5090748610151454,0,2,0,2,0,0,6,6,6,,,,,,,0.0015135830035433173,194.07333491701866,194.07333491701866,195.07419733301504,195.59258075000253,195.8259060420096,195.8259060420096,195.8259060420096,197.07369400002062,197.07369400002062,197.07369400002062,197.07369400002062,198.0734339170158,3.9989032499725,200002,004,2023-03-16_15h59.42.722,DMS_BEST_eyetracking_DAN_base_12-36_looped_10minWORKING,2022.2.4,None,
22,PRED,12,0.8710914840952257,2,images/picture_3.png,images/picture_1.png,0,"[-11.733433509789462, 11.733433509789464]",-11.733433509789462,11.733433509789464,images/picture_2.png,1,"[-11.733433509789466, -11.733433509789462]",-11.733433509789464,-11.733433509789462,images/picture_3.png,2,"[11.733433509789464, 11.733433509789462]",11.733433509789464,11.733433509789462,0,1,1,0.8710914840952257,1.8710914840952255,1.1289085159047745,3,1,1.6210914840952255,0,2,0,2,0,0,7,7,4,,,,,,,,,,,,,,,,,,,,,200002,004,2023-03-16_15h59.42.722,DMS_BEST_eyetracking_DAN_base_12-36_looped_10minWORKING,2022.2.4,None,
22,PRED,12,0.8710914840952257,2,images/picture_3.png,images/picture_1.png,0,"[-11.733433509789462, 11.733433509789464]",-11.733433509789462,11.733433509789464,images/picture_2.png,1,"[-11.733433509789466, -11.733433509789462]",-11.733433509789464,-11.733433509789462,images/picture_3.png,2,"[11.733433509789464, 11.733433509789462]",11.733433509789464,11.733433509789462,0,1,1,0.8710914840952257,1.8710914840952255,1.1289085159047745,3,1,1.6210914840952255,0,2,0,2,0,0,7,7,4,,,,,,,0.0015505829942412674,198.0734339170158,198.0734339170158,199.0734269579989,199.70697408297565,199.94049070798792,199.94049070798792,199.94049070798792,201.07352541701403,201.07352541701403,201.07352541701403,201.07352541701403,202.07330008299323,3.9967301249853335,200002,004,2023-03-16_15h59.42.722,DMS_BEST_eyetracking_DAN_base_12-36_looped_10minWORKING,2022.2.4,None,
19,PRED,12,0.543813965954587,2,images/picture_3.png,images/picture_1.png,0,"[-11.733433509789462, 11.733433509789464]",-11.733433509789462,11.733433509789464,images/picture_2.png,1,"[11.733433509789462, -11.733433509789466]",11.733433509789462,-11.733433509789464,images/picture_3.png,2,"[-11.733433509789466, -11.733433509789462]",-11.733433509789464,-11.733433509789462,0,1,1,0.543813965954587,1.5438139659545869,1.4561860340454131,3,1,1.2938139659545869,0,2,0,2,0,0,8,8,1,,,,,,,,,,,,,,,,,,,,,200002,004,2023-03-16_15h59.42.722,DMS_BEST_eyetracking_DAN_base_12-36_looped_10minWORKING,2022.2.4,None,
19,PRED,12,0.543813965954587,2,images/picture_3.png,images/picture_1.png,0,"[-11.733433509789462, 11.733433509789464]",-11.733433509789462,11.733433509789464,images/picture_2.png,1,"[11.733433509789462, -11.733433509789466]",11.733433509789462,-11.733433509789464,images/picture_3.png,2,"[-11.733433509789466, -11.733433509789462]",-11.733433509789464,-11.733433509789462,0,1,1,0.543813965954587,1.5438139659545869,1.4561860340454131,3,1,1.2938139659545869,0,2,0,2,0,0,8,8,1,,,,,,,0.001487665984313935,202.07330008299323,202.07330008299323,203.0744434170192,203.37389124999754,203.60696833301336,203.60696833301336,203.60696833301336,205.07351637497777,205.07351637497777,205.07351637497777,205.07351637497777,206.10366029199213,3.997263583005406,200002,004,2023-03-16_15h59.42.722,DMS_BEST_eyetracking_DAN_base_12-36_looped_10minWORKING,2022.2.4,None,
,,,,,,,,,,,,,,,,,,,,,,,,,,,,,,,2,0,2,0,,,,,,,,,206.10366029199213,218.12568791699596,,,,,,,,,,,,,,,200002,004,2023-03-16_15h59.42.722,DMS_BEST_eyetracking_DAN_base_12-36_looped_10minWORKING,2022.2.4,None,
34,UNPRED,12,0.9813198596189432,1,images/picture_2.png,images/picture_1.png,0,"[-11.733433509789466, -11.733433509789462]",-11.733433509789464,-11.733433509789462,images/picture_2.png,1,"[11.733433509789462, -11.733433509789466]",11.733433509789462,-11.733433509789464,images/picture_3.png,2,"[11.733433509789464, 11.733433509789462]",11.733433509789464,11.733433509789462,0,1,1,0.9813198596189432,1.9813198596189432,1.0186801403810568,3,1,1.7313198596189432,0,3,0,3,0,0,0,0,7,,,,,,,,,,,,,,,,,,,,,200002,004,2023-03-16_15h59.42.722,DMS_BEST_eyetracking_DAN_base_12-36_looped_10minWORKING,2022.2.4,None,
34,UNPRED,12,0.9813198596189432,1,images/picture_2.png,images/picture_1.png,0,"[-11.733433509789466, -11.733433509789462]",-11.733433509789464,-11.733433509789462,images/picture_2.png,1,"[11.733433509789462, -11.733433509789466]",11.733433509789462,-11.733433509789464,images/picture_3.png,2,"[11.733433509789464, 11.733433509789462]",11.733433509789464,11.733433509789462,0,1,1,0.9813198596189432,1.9813198596189432,1.0186801403810568,3,1,1.7313198596189432,0,3,0,3,0,0,0,0,7,,,,,,,0.002720333985053003,218.12568791699596,218.12568791699596,219.14030137500959,219.85932008299278,220.09229875000892,220.09229875000892,220.09229875000892,221.10846704198048,221.10846704198048,221.10846704198048,221.10846704198048,222.10685733298305,4.022080084017944,200002,004,2023-03-16_15h59.42.722,DMS_BEST_eyetracking_DAN_base_12-36_looped_10minWORKING,2022.2.4,None,
28,UNPRED,12,0.696213602974828,1,images/picture_2.png,images/picture_1.png,0,"[-11.733433509789462, 11.733433509789464]",-11.733433509789462,11.733433509789464,images/picture_2.png,1,"[-11.733433509789466, -11.733433509789462]",-11.733433509789464,-11.733433509789462,images/picture_3.png,2,"[11.733433509789462, -11.733433509789466]",11.733433509789462,-11.733433509789464,0,1,1,0.696213602974828,1.6962136029748283,1.3037863970251722,3,1,1.4462136029748283,0,3,0,3,0,0,1,1,1,,,,,,,,,,,,,,,,,,,,,200002,004,2023-03-16_15h59.42.722,DMS_BEST_eyetracking_DAN_base_12-36_looped_10minWORKING,2022.2.4,None,
28,UNPRED,12,0.696213602974828,1,images/picture_2.png,images/picture_1.png,0,"[-11.733433509789462, 11.733433509789464]",-11.733433509789462,11.733433509789464,images/picture_2.png,1,"[-11.733433509789466, -11.733433509789462]",-11.733433509789464,-11.733433509789462,images/picture_3.png,2,"[11.733433509789462, -11.733433509789466]",11.733433509789462,-11.733433509789464,0,1,1,0.696213602974828,1.6962136029748283,1.3037863970251722,3,1,1.4462136029748283,0,3,0,3,0,0,1,1,1,,,,,,,0.0019176670466549695,222.1401841249899,222.1401841249899,223.14012662501773,223.5928181670024,223.82661816698965,223.82661816698965,223.82661816698965,225.14097945799585,225.14097945799585,225.14097945799585,225.14097945799585,226.14020195801277,3.999078333028592,200002,004,2023-03-16_15h59.42.722,DMS_BEST_eyetracking_DAN_base_12-36_looped_10minWORKING,2022.2.4,None,
30,UNPRED,12,1.0384560439774382,0,images/picture_1.png,images/picture_1.png,0,"[11.733433509789462, -11.733433509789466]",11.733433509789462,-11.733433509789464,images/picture_2.png,1,"[-11.733433509789462, 11.733433509789464]",-11.733433509789462,11.733433509789464,images/picture_3.png,2,"[11.733433509789464, 11.733433509789462]",11.733433509789464,11.733433509789462,0,1,1,1.0384560439774382,2.038456043977438,0.9615439560225618,3,1,1.7884560439774382,0,3,0,3,0,0,2,2,3,,,,,,,,,,,,,,,,,,,,,200002,004,2023-03-16_15h59.42.722,DMS_BEST_eyetracking_DAN_base_12-36_looped_10minWORKING,2022.2.4,None,
30,UNPRED,12,1.0384560439774382,0,images/picture_1.png,images/picture_1.png,0,"[11.733433509789462, -11.733433509789466]",11.733433509789462,-11.733433509789464,images/picture_2.png,1,"[-11.733433509789462, 11.733433509789464]",-11.733433509789462,11.733433509789464,images/picture_3.png,2,"[11.733433509789464, 11.733433509789462]",11.733433509789464,11.733433509789462,0,1,1,1.0384560439774382,2.038456043977438,0.9615439560225618,3,1,1.7884560439774382,0,3,0,3,0,0,2,2,3,,,,,,,0.00243237498216331,226.14020195801277,226.14020195801277,227.1403425419703,227.94056429201737,228.17367566697067,228.17367566697067,228.17367566697067,229.14011249999749,229.14011249999749,229.14011249999749,229.14011249999749,230.13984037499176,3.9987685829983093,200002,004,2023-03-16_15h59.42.722,DMS_BEST_eyetracking_DAN_base_12-36_looped_10minWORKING,2022.2.4,None,
27,UNPRED,12,1.0064938496451008,2,images/picture_3.png,images/picture_1.png,0,"[-11.733433509789466, -11.733433509789462]",-11.733433509789464,-11.733433509789462,images/picture_2.png,1,"[11.733433509789462, -11.733433509789466]",11.733433509789462,-11.733433509789464,images/picture_3.png,2,"[-11.733433509789462, 11.733433509789464]",-11.733433509789462,11.733433509789464,0,1,1,1.0064938496451008,2.006493849645101,0.9935061503548992,3,1,1.7564938496451008,0,3,0,3,0,0,3,3,0,,,,,,,,,,,,,,,,,,,,,200002,004,2023-03-16_15h59.42.722,DMS_BEST_eyetracking_DAN_base_12-36_looped_10minWORKING,2022.2.4,None,
27,UNPRED,12,1.0064938496451008,2,images/picture_3.png,images/picture_1.png,0,"[-11.733433509789466, -11.733433509789462]",-11.733433509789464,-11.733433509789462,images/picture_2.png,1,"[11.733433509789462, -11.733433509789466]",11.733433509789462,-11.733433509789464,images/picture_3.png,2,"[-11.733433509789462, 11.733433509789464]",-11.733433509789462,11.733433509789464,0,1,1,1.0064938496451008,2.006493849645101,0.9935061503548992,3,1,1.7564938496451008,0,3,0,3,0,0,3,3,0,,,,,,,0.0021347079891711473,230.13984037499176,230.13984037499176,231.14012549998006,231.90689874999225,232.1400815420202,232.1400815420202,232.1400815420202,233.14005749998614,233.14005749998614,233.14005749998614,233.14005749998614,234.1403164169751,3.996788042015396,200002,004,2023-03-16_15h59.42.722,DMS_BEST_eyetracking_DAN_base_12-36_looped_10minWORKING,2022.2.4,None,
29,UNPRED,12,1.1476796316442668,0,images/picture_1.png,images/picture_1.png,0,"[11.733433509789464, 11.733433509789462]",11.733433509789464,11.733433509789462,images/picture_2.png,1,"[-11.733433509789462, 11.733433509789464]",-11.733433509789462,11.733433509789464,images/picture_3.png,2,"[11.733433509789462, -11.733433509789466]",11.733433509789462,-11.733433509789464,0,1,1,1.1476796316442668,2.147679631644267,0.8523203683557332,3,1,1.8976796316442668,0,3,0,3,0,0,4,4,2,,,,,,,,,,,,,,,,,,,,,200002,004,2023-03-16_15h59.42.722,DMS_BEST_eyetracking_DAN_base_12-36_looped_10minWORKING,2022.2.4,None,
29,UNPRED,12,1.1476796316442668,0,images/picture_1.png,images/picture_1.png,0,"[11.733433509789464, 11.733433509789462]",11.733433509789464,11.733433509789462,images/picture_2.png,1,"[-11.733433509789462, 11.733433509789464]",-11.733433509789462,11.733433509789464,images/picture_3.png,2,"[11.733433509789462, -11.733433509789466]",11.733433509789462,-11.733433509789464,0,1,1,1.1476796316442668,2.147679631644267,0.8523203683557332,3,1,1.8976796316442668,0,3,0,3,0,0,4,4,2,,,,,,,0.0022429159726016223,234.1403164169751,234.1403164169751,235.14075650001178,236.04051658301614,236.27348520798841,236.27348520798841,236.27348520798841,237.14069483301137,237.14069483301137,237.14069483301137,237.14069483301137,238.14027616701787,3.998451457999181,200002,004,2023-03-16_15h59.42.722,DMS_BEST_eyetracking_DAN_base_12-36_looped_10minWORKING,2022.2.4,None,
32,UNPRED,12,0.5500002489919836,2,images/picture_3.png,images/picture_1.png,0,"[11.733433509789462, -11.733433509789466]",11.733433509789462,-11.733433509789464,images/picture_2.png,1,"[-11.733433509789462, 11.733433509789464]",-11.733433509789462,11.733433509789464,images/picture_3.png,2,"[11.733433509789464, 11.733433509789462]",11.733433509789464,11.733433509789462,0,1,1,0.5500002489919836,1.5500002489919835,1.4499997510080165,3,1,1.3000002489919835,0,3,0,3,0,0,5,5,5,,,,,,,,,,,,,,,,,,,,,200002,004,2023-03-16_15h59.42.722,DMS_BEST_eyetracking_DAN_base_12-36_looped_10minWORKING,2022.2.4,None,
32,UNPRED,12,0.5500002489919836,2,images/picture_3.png,images/picture_1.png,0,"[11.733433509789462, -11.733433509789466]",11.733433509789462,-11.733433509789464,images/picture_2.png,1,"[-11.733433509789462, 11.733433509789464]",-11.733433509789462,11.733433509789464,images/picture_3.png,2,"[11.733433509789464, 11.733433509789462]",11.733433509789464,11.733433509789462,0,1,1,0.5500002489919836,1.5500002489919835,1.4499997510080165,3,1,1.3000002489919835,0,3,0,3,0,0,5,5,5,,,,,,,0.0020530420006252825,238.14027616701787,238.14027616701787,239.14138670801185,239.44042212498607,239.69258154201088,239.69258154201088,239.69258154201088,241.14004662499065,241.14004662499065,241.14004662499065,241.14004662499065,242.13960424996912,3.9980717090074904,200002,004,2023-03-16_15h59.42.722,DMS_BEST_eyetracking_DAN_base_12-36_looped_10minWORKING,2022.2.4,None,
33,UNPRED,12,1.1488748042779278,1,images/picture_2.png,images/picture_1.png,0,"[-11.733433509789466, -11.733433509789462]",-11.733433509789464,-11.733433509789462,images/picture_2.png,1,"[11.733433509789464, 11.733433509789462]",11.733433509789464,11.733433509789462,images/picture_3.png,2,"[11.733433509789462, -11.733433509789466]",11.733433509789462,-11.733433509789464,0,1,1,1.1488748042779278,2.148874804277928,0.8511251957220722,3,1,1.8988748042779282,0,3,0,3,0,0,6,6,6,,,,,,,,,,,,,,,,,,,,,200002,004,2023-03-16_15h59.42.722,DMS_BEST_eyetracking_DAN_base_12-36_looped_10minWORKING,2022.2.4,None,
33,UNPRED,12,1.1488748042779278,1,images/picture_2.png,images/picture_1.png,0,"[-11.733433509789466, -11.733433509789462]",-11.733433509789464,-11.733433509789462,images/picture_2.png,1,"[11.733433509789464, 11.733433509789462]",11.733433509789464,11.733433509789462,images/picture_3.png,2,"[11.733433509789462, -11.733433509789466]",11.733433509789462,-11.733433509789464,0,1,1,1.1488748042779278,2.148874804277928,0.8511251957220722,3,1,1.8988748042779282,0,3,0,3,0,0,6,6,6,,,,,,,0.002557291998527944,242.13960424996912,242.13960424996912,243.14032162498916,244.0405350420042,244.2927308329963,244.2927308329963,244.2927308329963,245.15903937496478,245.15903937496478,245.15903937496478,245.13991899997927,246.13987662497675,3.9970522080548108,200002,004,2023-03-16_15h59.42.722,DMS_BEST_eyetracking_DAN_base_12-36_looped_10minWORKING,2022.2.4,None,
35,UNPRED,12,1.0379120530897752,1,images/picture_2.png,images/picture_1.png,0,"[-11.733433509789462, 11.733433509789464]",-11.733433509789462,11.733433509789464,images/picture_2.png,1,"[11.733433509789464, 11.733433509789462]",11.733433509789464,11.733433509789462,images/picture_3.png,2,"[-11.733433509789466, -11.733433509789462]",-11.733433509789464,-11.733433509789462,0,1,1,1.0379120530897752,2.0379120530897747,0.9620879469102248,3,1,1.7879120530897752,0,3,0,3,0,0,7,7,8,,,,,,,,,,,,,,,,,,,,,200002,004,2023-03-16_15h59.42.722,DMS_BEST_eyetracking_DAN_base_12-36_looped_10minWORKING,2022.2.4,None,
35,UNPRED,12,1.0379120530897752,1,images/picture_2.png,images/picture_1.png,0,"[-11.733433509789462, 11.733433509789464]",-11.733433509789462,11.733433509789464,images/picture_2.png,1,"[11.733433509789464, 11.733433509789462]",11.733433509789464,11.733433509789462,images/picture_3.png,2,"[-11.733433509789466, -11.733433509789462]",-11.733433509789464,-11.733433509789462,0,1,1,1.0379120530897752,2.0379120530897747,0.9620879469102248,3,1,1.7879120530897752,0,3,0,3,0,0,7,7,8,,,,,,,0.0019069579429924488,246.13987662497675,246.13987662497675,247.14007945801131,247.94013674999587,248.17380454199156,248.17380454199156,248.17380454199156,249.1401562920073,249.1401562920073,249.1401562920073,249.1401562920073,250.13944970798912,3.998408874962479,200002,004,2023-03-16_15h59.42.722,DMS_BEST_eyetracking_DAN_base_12-36_looped_10minWORKING,2022.2.4,None,
31,UNPRED,12,0.766105540195466,1,images/picture_2.png,images/picture_1.png,0,"[11.733433509789464, 11.733433509789462]",11.733433509789464,11.733433509789462,images/picture_2.png,1,"[-11.733433509789466, -11.733433509789462]",-11.733433509789464,-11.733433509789462,images/picture_3.png,2,"[-11.733433509789462, 11.733433509789464]",-11.733433509789462,11.733433509789464,0,1,1,0.766105540195466,1.7661055401954657,1.2338944598045343,3,1,1.5161055401954657,0,3,0,3,0,0,8,8,4,,,,,,,,,,,,,,,,,,,,,200002,004,2023-03-16_15h59.42.722,DMS_BEST_eyetracking_DAN_base_12-36_looped_10minWORKING,2022.2.4,None,
31,UNPRED,12,0.766105540195466,1,images/picture_2.png,images/picture_1.png,0,"[11.733433509789464, 11.733433509789462]",11.733433509789464,11.733433509789462,images/picture_2.png,1,"[-11.733433509789466, -11.733433509789462]",-11.733433509789464,-11.733433509789462,images/picture_3.png,2,"[-11.733433509789462, 11.733433509789464]",-11.733433509789462,11.733433509789464,0,1,1,0.766105540195466,1.7661055401954657,1.2338944598045343,3,1,1.5161055401954657,0,3,0,3,0,0,8,8,4,,,,,,,0.002025666006375104,250.13944970798912,250.13944970798912,251.13986933301203,251.65905962500256,251.90665837499546,251.90665837499546,251.90665837499546,253.13984616700327,253.13984616700327,253.13984616700327,253.13984616700327,254.17865320801502,3.99679158302024,200002,004,2023-03-16_15h59.42.722,DMS_BEST_eyetracking_DAN_base_12-36_looped_10minWORKING,2022.2.4,None,
,,,,,,,,,,,,,,,,,,,,,,,,,,,,,,,3,0,3,0,,,,,,,,,254.17865320801502,266.194556500006,,,,,,,,,,,,,,,200002,004,2023-03-16_15h59.42.722,DMS_BEST_eyetracking_DAN_base_12-36_looped_10minWORKING,2022.2.4,None,
39,PRED,12,0.9046678851517552,1,images/picture_2.png,images/picture_1.png,0,"[-11.733433509789462, 11.733433509789464]",-11.733433509789462,11.733433509789464,images/picture_2.png,1,"[-11.733433509789466, -11.733433509789462]",-11.733433509789464,-11.733433509789462,images/picture_3.png,2,"[11.733433509789462, -11.733433509789466]",11.733433509789462,-11.733433509789464,0,1,1,0.9046678851517552,1.9046678851517556,1.0953321148482449,3,1,1.6546678851517551,0,4,0,4,0,0,0,0,3,,,,,,,,,,,,,,,,,,,,,200002,004,2023-03-16_15h59.42.722,DMS_BEST_eyetracking_DAN_base_12-36_looped_10minWORKING,2022.2.4,None,
39,PRED,12,0.9046678851517552,1,images/picture_2.png,images/picture_1.png,0,"[-11.733433509789462, 11.733433509789464]",-11.733433509789462,11.733433509789464,images/picture_2.png,1,"[-11.733433509789466, -11.733433509789462]",-11.733433509789464,-11.733433509789462,images/picture_3.png,2,"[11.733433509789462, -11.733433509789466]",11.733433509789462,-11.733433509789464,0,1,1,0.9046678851517552,1.9046678851517556,1.0953321148482449,3,1,1.6546678851517551,0,4,0,4,0,0,0,0,3,,,,,,,0.002155834052246064,266.194556500006,266.194556500006,267.20658908301266,267.85994604200823,268.09212899999693,268.09212899999693,268.09212899999693,269.192152625008,269.192152625008,269.192152625008,269.192152625008,270.2063832919812,4.006622959044762,200002,004,2023-03-16_15h59.42.722,DMS_BEST_eyetracking_DAN_base_12-36_looped_10minWORKING,2022.2.4,None,
40,PRED,12,0.6775630108129536,1,images/picture_2.png,images/picture_1.png,0,"[11.733433509789464, 11.733433509789462]",11.733433509789464,11.733433509789462,images/picture_2.png,1,"[-11.733433509789466, -11.733433509789462]",-11.733433509789464,-11.733433509789462,images/picture_3.png,2,"[-11.733433509789462, 11.733433509789464]",-11.733433509789462,11.733433509789464,0,1,1,0.6775630108129536,1.6775630108129536,1.3224369891870464,3,1,1.4275630108129536,0,4,0,4,0,0,1,1,4,,,,,,,,,,,,,,,,,,,,,200002,004,2023-03-16_15h59.42.722,DMS_BEST_eyetracking_DAN_base_12-36_looped_10minWORKING,2022.2.4,None,
40,PRED,12,0.6775630108129536,1,images/picture_2.png,images/picture_1.png,0,"[11.733433509789464, 11.733433509789462]",11.733433509789464,11.733433509789462,images/picture_2.png,1,"[-11.733433509789466, -11.733433509789462]",-11.733433509789464,-11.733433509789462,images/picture_3.png,2,"[-11.733433509789462, 11.733433509789464]",-11.733433509789462,11.733433509789464,0,1,1,0.6775630108129536,1.6775630108129536,1.3224369891870464,3,1,1.4275630108129536,0,4,0,4,0,0,1,1,4,,,,,,,0.0018884580349549651,270.2063832919812,270.2063832919812,271.20648533297936,271.63992879202124,271.87305129197193,271.87305129197193,271.87305129197193,273.20658779196674,273.20658779196674,273.20658779196674,273.20658779196674,274.2060010419809,3.9985192909953184,200002,004,2023-03-16_15h59.42.722,DMS_BEST_eyetracking_DAN_base_12-36_looped_10minWORKING,2022.2.4,None,
43,PRED,12,0.5874748080688994,1,images/picture_2.png,images/picture_1.png,0,"[11.733433509789464, 11.733433509789462]",11.733433509789464,11.733433509789462,images/picture_2.png,1,"[-11.733433509789462, 11.733433509789464]",-11.733433509789462,11.733433509789464,images/picture_3.png,2,"[-11.733433509789466, -11.733433509789462]",-11.733433509789464,-11.733433509789462,0,1,1,0.5874748080688994,1.5874748080688994,1.4125251919311006,3,1,1.3374748080688994,0,4,0,4,0,0,2,2,7,,,,,,,,,,,,,,,,,,,,,200002,004,2023-03-16_15h59.42.722,DMS_BEST_eyetracking_DAN_base_12-36_looped_10minWORKING,2022.2.4,None,
43,PRED,12,0.5874748080688994,1,images/picture_2.png,images/picture_1.png,0,"[11.733433509789464, 11.733433509789462]",11.733433509789464,11.733433509789462,images/picture_2.png,1,"[-11.733433509789462, 11.733433509789464]",-11.733433509789462,11.733433509789464,images/picture_3.png,2,"[-11.733433509789466, -11.733433509789462]",-11.733433509789464,-11.733433509789462,0,1,1,0.5874748080688994,1.5874748080688994,1.4125251919311006,3,1,1.3374748080688994,0,4,0,4,0,0,2,2,7,,,,,,,0.002048291964456439,274.2060010419809,274.2060010419809,275.2063507079729,275.5590217499994,275.7920812079683,275.7920812079683,275.7920812079683,277.20631920796586,277.20631920796586,277.20631920796586,277.20631920796586,278.20593749999534,3.997216874966398,200002,004,2023-03-16_15h59.42.722,DMS_BEST_eyetracking_DAN_base_12-36_looped_10minWORKING,2022.2.4,None,
41,PRED,12,0.8530892008280839,1,images/picture_2.png,images/picture_1.png,0,"[-11.733433509789466, -11.733433509789462]",-11.733433509789464,-11.733433509789462,images/picture_2.png,1,"[11.733433509789462, -11.733433509789466]",11.733433509789462,-11.733433509789464,images/picture_3.png,2,"[-11.733433509789462, 11.733433509789464]",-11.733433509789462,11.733433509789464,0,1,1,0.8530892008280839,1.8530892008280841,1.1469107991719159,3,1,1.6030892008280841,0,4,0,4,0,0,3,3,5,,,,,,,,,,,,,,,,,,,,,200002,004,2023-03-16_15h59.42.722,DMS_BEST_eyetracking_DAN_base_12-36_looped_10minWORKING,2022.2.4,None,
41,PRED,12,0.8530892008280839,1,images/picture_2.png,images/picture_1.png,0,"[-11.733433509789466, -11.733433509789462]",-11.733433509789464,-11.733433509789462,images/picture_2.png,1,"[11.733433509789462, -11.733433509789466]",11.733433509789462,-11.733433509789464,images/picture_3.png,2,"[-11.733433509789462, 11.733433509789464]",-11.733433509789462,11.733433509789464,0,1,1,0.8530892008280839,1.8530892008280841,1.1469107991719159,3,1,1.6030892008280841,0,4,0,4,0,0,3,3,5,,,,,,,0.002052791998721659,278.20593749999534,278.20593749999534,279.20659533300204,279.8065087500145,280.05956970801344,280.05956970801344,280.05956970801344,281.20620766701177,281.20620766701177,281.20620766701177,281.20620766701177,282.20627799996873,3.996814500016626,200002,004,2023-03-16_15h59.42.722,DMS_BEST_eyetracking_DAN_base_12-36_looped_10minWORKING,2022.2.4,None,
38,PRED,12,0.6346801391495185,1,images/picture_2.png,images/picture_1.png,0,"[11.733433509789464, 11.733433509789462]",11.733433509789464,11.733433509789462,images/picture_2.png,1,"[11.733433509789462, -11.733433509789466]",11.733433509789462,-11.733433509789464,images/picture_3.png,2,"[-11.733433509789462, 11.733433509789464]",-11.733433509789462,11.733433509789464,0,1,1,0.6346801391495185,1.6346801391495185,1.3653198608504815,3,1,1.3846801391495185,0,4,0,4,0,0,4,4,2,,,,,,,,,,,,,,,,,,,,,200002,004,2023-03-16_15h59.42.722,DMS_BEST_eyetracking_DAN_base_12-36_looped_10minWORKING,2022.2.4,None,
38,PRED,12,0.6346801391495185,1,images/picture_2.png,images/picture_1.png,0,"[11.733433509789464, 11.733433509789462]",11.733433509789464,11.733433509789462,images/picture_2.png,1,"[11.733433509789462, -11.733433509789466]",11.733433509789462,-11.733433509789464,images/picture_3.png,2,"[-11.733433509789462, 11.733433509789464]",-11.733433509789462,11.733433509789464,0,1,1,0.6346801391495185,1.6346801391495185,1.3653198608504815,3,1,1.3846801391495185,0,4,0,4,0,0,4,4,2,,,,,,,0.0018965829513035715,282.20627799996873,282.20627799996873,283.20641708298353,283.6064749999787,283.8395428750082,283.8395428750082,283.8395428750082,285.2064883330022,285.2064883330022,285.2064883330022,285.2064883330022,286.20590125001036,3.9990475829690695,200002,004,2023-03-16_15h59.42.722,DMS_BEST_eyetracking_DAN_base_12-36_looped_10minWORKING,2022.2.4,None,
42,PRED,12,0.9897944787200575,1,images/picture_2.png,images/picture_1.png,0,"[-11.733433509789462, 11.733433509789464]",-11.733433509789462,11.733433509789464,images/picture_2.png,1,"[-11.733433509789466, -11.733433509789462]",-11.733433509789464,-11.733433509789462,images/picture_3.png,2,"[11.733433509789462, -11.733433509789466]",11.733433509789462,-11.733433509789464,0,1,1,0.9897944787200575,1.9897944787200577,1.0102055212799423,3,1,1.7397944787200577,0,4,0,4,0,0,5,5,6,,,,,,,,,,,,,,,,,,,,,200002,004,2023-03-16_15h59.42.722,DMS_BEST_eyetracking_DAN_base_12-36_looped_10minWORKING,2022.2.4,None,
42,PRED,12,0.9897944787200575,1,images/picture_2.png,images/picture_1.png,0,"[-11.733433509789462, 11.733433509789464]",-11.733433509789462,11.733433509789464,images/picture_2.png,1,"[-11.733433509789466, -11.733433509789462]",-11.733433509789464,-11.733433509789462,images/picture_3.png,2,"[11.733433509789462, -11.733433509789466]",11.733433509789462,-11.733433509789464,0,1,1,0.9897944787200575,1.9897944787200577,1.0102055212799423,3,1,1.7397944787200577,0,4,0,4,0,0,5,5,6,,,,,,,0.0020988750038668513,286.20590125001036,286.20590125001036,287.20621099998243,287.9591768750106,288.191757374967,288.191757374967,288.191757374967,289.2063077079947,289.2063077079947,289.2063077079947,289.2063077079947,290.2063707499765,3.9964285410242155,200002,004,2023-03-16_15h59.42.722,DMS_BEST_eyetracking_DAN_base_12-36_looped_10minWORKING,2022.2.4,None,
36,PRED,12,1.0925040655882248,1,images/picture_2.png,images/picture_1.png,0,"[11.733433509789462, -11.733433509789466]",11.733433509789462,-11.733433509789464,images/picture_2.png,1,"[-11.733433509789466, -11.733433509789462]",-11.733433509789464,-11.733433509789462,images/picture_3.png,2,"[11.733433509789464, 11.733433509789462]",11.733433509789464,11.733433509789462,0,1,1,1.0925040655882248,2.0925040655882245,0.9074959344117752,3,1,1.8425040655882243,0,4,0,4,0,0,6,6,0,,,,,,,,,,,,,,,,,,,,,200002,004,2023-03-16_15h59.42.722,DMS_BEST_eyetracking_DAN_base_12-36_looped_10minWORKING,2022.2.4,None,
36,PRED,12,1.0925040655882248,1,images/picture_2.png,images/picture_1.png,0,"[11.733433509789462, -11.733433509789466]",11.733433509789462,-11.733433509789464,images/picture_2.png,1,"[-11.733433509789466, -11.733433509789462]",-11.733433509789464,-11.733433509789462,images/picture_3.png,2,"[11.733433509789464, 11.733433509789462]",11.733433509789464,11.733433509789462,0,1,1,1.0925040655882248,2.0925040655882245,0.9074959344117752,3,1,1.8425040655882243,0,4,0,4,0,0,6,6,0,,,,,,,0.001964416995178908,290.2063707499765,290.2063707499765,291.20650754199596,292.0587837920175,292.29165616701357,292.29165616701357,292.29165616701357,293.2062143330113,293.2062143330113,293.2062143330113,293.2062143330113,294.2063107920112,3.9983898749924265,200002,004,2023-03-16_15h59.42.722,DMS_BEST_eyetracking_DAN_base_12-36_looped_10minWORKING,2022.2.4,None,
44,PRED,12,0.5355972377340246,1,images/picture_2.png,images/picture_1.png,0,"[11.733433509789462, -11.733433509789466]",11.733433509789462,-11.733433509789464,images/picture_2.png,1,"[-11.733433509789462, 11.733433509789464]",-11.733433509789462,11.733433509789464,images/picture_3.png,2,"[-11.733433509789466, -11.733433509789462]",-11.733433509789464,-11.733433509789462,0,1,1,0.5355972377340246,1.5355972377340246,1.4644027622659754,3,1,1.2855972377340246,0,4,0,4,0,0,7,7,8,,,,,,,,,,,,,,,,,,,,,200002,004,2023-03-16_15h59.42.722,DMS_BEST_eyetracking_DAN_base_12-36_looped_10minWORKING,2022.2.4,None,
44,PRED,12,0.5355972377340246,1,images/picture_2.png,images/picture_1.png,0,"[11.733433509789462, -11.733433509789466]",11.733433509789462,-11.733433509789464,images/picture_2.png,1,"[-11.733433509789462, 11.733433509789464]",-11.733433509789462,11.733433509789464,images/picture_3.png,2,"[-11.733433509789466, -11.733433509789462]",-11.733433509789464,-11.733433509789462,0,1,1,0.5355972377340246,1.5355972377340246,1.4644027622659754,3,1,1.2855972377340246,0,4,0,4,0,0,7,7,8,,,,,,,0.0019493750296533108,294.2063107920112,294.2063107920112,295.2062065419741,295.49377291701967,295.73954450001474,295.73954450001474,295.73954450001474,297.20635420799954,297.20635420799954,297.20635420799954,297.20635420799954,298.2060740829911,3.9982569999992847,200002,004,2023-03-16_15h59.42.722,DMS_BEST_eyetracking_DAN_base_12-36_looped_10minWORKING,2022.2.4,None,
37,PRED,12,0.8352670668321214,1,images/picture_2.png,images/picture_1.png,0,"[11.733433509789464, 11.733433509789462]",11.733433509789464,11.733433509789462,images/picture_2.png,1,"[-11.733433509789462, 11.733433509789464]",-11.733433509789462,11.733433509789464,images/picture_3.png,2,"[11.733433509789462, -11.733433509789466]",11.733433509789462,-11.733433509789464,0,1,1,0.8352670668321214,1.8352670668321212,1.1647329331678786,3,1,1.5852670668321214,0,4,0,4,0,0,8,8,1,,,,,,,,,,,,,,,,,,,,,200002,004,2023-03-16_15h59.42.722,DMS_BEST_eyetracking_DAN_base_12-36_looped_10minWORKING,2022.2.4,None,
37,PRED,12,0.8352670668321214,1,images/picture_2.png,images/picture_1.png,0,"[11.733433509789464, 11.733433509789462]",11.733433509789464,11.733433509789462,images/picture_2.png,1,"[-11.733433509789462, 11.733433509789464]",-11.733433509789462,11.733433509789464,images/picture_3.png,2,"[11.733433509789462, -11.733433509789466]",11.733433509789462,-11.733433509789464,0,1,1,0.8352670668321214,1.8352670668321212,1.1647329331678786,3,1,1.5852670668321214,0,4,0,4,0,0,8,8,1,,,,,,,0.002164415956940502,298.2060740829911,298.2060740829911,299.2061422499828,299.8063934579841,300.03941283299355,300.03941283299355,300.03941283299355,301.20635587500874,301.20635587500874,301.20635587500874,301.20635587500874,302.2537124999799,3.9981700829812326,200002,004,2023-03-16_15h59.42.722,DMS_BEST_eyetracking_DAN_base_12-36_looped_10minWORKING,2022.2.4,None,
,,,,,,,,,,,,,,,,,,,,,,,,,,,,,,,4,0,4,0,,,,,,,,,302.2537124999799,314.25946033297805,,,,,,,,,,,,,,,200002,004,2023-03-16_15h59.42.722,DMS_BEST_eyetracking_DAN_base_12-36_looped_10minWORKING,2022.2.4,None,
51,UNPRED,12,0.7215852711905975,2,images/picture_3.png,images/picture_1.png,0,"[-11.733433509789462, 11.733433509789464]",-11.733433509789462,11.733433509789464,images/picture_2.png,1,"[11.733433509789462, -11.733433509789466]",11.733433509789462,-11.733433509789464,images/picture_3.png,2,"[-11.733433509789466, -11.733433509789462]",-11.733433509789464,-11.733433509789462,0,1,1,0.7215852711905975,1.7215852711905977,1.2784147288094023,3,1,1.4715852711905977,0,5,0,5,0,0,0,0,6,,,,,,,,,,,,,,,,,,,,,200002,004,2023-03-16_15h59.42.722,DMS_BEST_eyetracking_DAN_base_12-36_looped_10minWORKING,2022.2.4,None,
51,UNPRED,12,0.7215852711905975,2,images/picture_3.png,images/picture_1.png,0,"[-11.733433509789462, 11.733433509789464]",-11.733433509789462,11.733433509789464,images/picture_2.png,1,"[11.733433509789462, -11.733433509789466]",11.733433509789462,-11.733433509789464,images/picture_3.png,2,"[-11.733433509789466, -11.733433509789462]",-11.733433509789464,-11.733433509789462,0,1,1,0.7215852711905975,1.7215852711905977,1.2784147288094023,3,1,1.4715852711905977,0,5,0,5,0,0,0,0,6,,,,,,,0.0017582910368219018,314.25946033297805,314.25946033297805,315.272758874984,315.73942191700917,315.97277266700985,315.97277266700985,315.97277266700985,317.25834029196994,317.25834029196994,317.25834029196994,317.25834029196994,318.27243687497685,4.0078675410477445,200002,004,2023-03-16_15h59.42.722,DMS_BEST_eyetracking_DAN_base_12-36_looped_10minWORKING,2022.2.4,None,
52,UNPRED,12,0.6040622859329635,1,images/picture_2.png,images/picture_1.png,0,"[11.733433509789464, 11.733433509789462]",11.733433509789464,11.733433509789462,images/picture_2.png,1,"[-11.733433509789466, -11.733433509789462]",-11.733433509789464,-11.733433509789462,images/picture_3.png,2,"[-11.733433509789462, 11.733433509789464]",-11.733433509789462,11.733433509789464,0,1,1,0.6040622859329635,1.6040622859329634,1.3959377140670366,3,1,1.3540622859329634,0,5,0,5,0,0,1,1,7,,,,,,,,,,,,,,,,,,,,,200002,004,2023-03-16_15h59.42.722,DMS_BEST_eyetracking_DAN_base_12-36_looped_10minWORKING,2022.2.4,None,
52,UNPRED,12,0.6040622859329635,1,images/picture_2.png,images/picture_1.png,0,"[11.733433509789464, 11.733433509789462]",11.733433509789464,11.733433509789462,images/picture_2.png,1,"[-11.733433509789466, -11.733433509789462]",-11.733433509789464,-11.733433509789462,images/picture_3.png,2,"[-11.733433509789462, 11.733433509789464]",-11.733433509789462,11.733433509789464,0,1,1,0.6040622859329635,1.6040622859329634,1.3959377140670366,3,1,1.3540622859329634,0,5,0,5,0,0,1,1,7,,,,,,,0.0020703329937532544,318.27243687497685,318.27243687497685,319.2726733330055,319.63987520796945,319.8728326249984,319.8728326249984,319.8728326249984,321.2730558749754,321.2730558749754,321.2730558749754,321.2730558749754,322.27259970799787,3.9966041250154376,200002,004,2023-03-16_15h59.42.722,DMS_BEST_eyetracking_DAN_base_12-36_looped_10minWORKING,2022.2.4,None,
45,UNPRED,12,0.6593843013768128,2,images/picture_3.png,images/picture_1.png,0,"[11.733433509789464, 11.733433509789462]",11.733433509789464,11.733433509789462,images/picture_2.png,1,"[-11.733433509789466, -11.733433509789462]",-11.733433509789464,-11.733433509789462,images/picture_3.png,2,"[11.733433509789462, -11.733433509789466]",11.733433509789462,-11.733433509789464,0,1,1,0.6593843013768128,1.6593843013768128,1.3406156986231872,3,1,1.4093843013768128,0,5,0,5,0,0,2,2,0,,,,,,,,,,,,,,,,,,,,,200002,004,2023-03-16_15h59.42.722,DMS_BEST_eyetracking_DAN_base_12-36_looped_10minWORKING,2022.2.4,None,
45,UNPRED,12,0.6593843013768128,2,images/picture_3.png,images/picture_1.png,0,"[11.733433509789464, 11.733433509789462]",11.733433509789464,11.733433509789462,images/picture_2.png,1,"[-11.733433509789466, -11.733433509789462]",-11.733433509789464,-11.733433509789462,images/picture_3.png,2,"[11.733433509789462, -11.733433509789466]",11.733433509789462,-11.733433509789464,0,1,1,0.6593843013768128,1.6593843013768128,1.3406156986231872,3,1,1.4093843013768128,0,5,0,5,0,0,2,2,0,,,,,,,0.0013790830271318555,322.27259970799787,322.27259970799787,323.27393337502144,323.69206849997863,323.9259794999962,323.9259794999962,323.9259794999962,325.27263474999927,325.27263474999927,325.27263474999927,325.27263474999927,326.27176191698527,3.998422583041247,200002,004,2023-03-16_15h59.42.722,DMS_BEST_eyetracking_DAN_base_12-36_looped_10minWORKING,2022.2.4,None,
50,UNPRED,12,1.1080713245817098,0,images/picture_1.png,images/picture_1.png,0,"[-11.733433509789462, 11.733433509789464]",-11.733433509789462,11.733433509789464,images/picture_2.png,1,"[11.733433509789462, -11.733433509789466]",11.733433509789462,-11.733433509789464,images/picture_3.png,2,"[11.733433509789464, 11.733433509789462]",11.733433509789464,11.733433509789462,0,1,1,1.1080713245817098,2.1080713245817098,0.8919286754182902,3,1,1.8580713245817095,0,5,0,5,0,0,3,3,5,,,,,,,,,,,,,,,,,,,,,200002,004,2023-03-16_15h59.42.722,DMS_BEST_eyetracking_DAN_base_12-36_looped_10minWORKING,2022.2.4,None,
50,UNPRED,12,1.1080713245817098,0,images/picture_1.png,images/picture_1.png,0,"[-11.733433509789462, 11.733433509789464]",-11.733433509789462,11.733433509789464,images/picture_2.png,1,"[11.733433509789462, -11.733433509789466]",11.733433509789462,-11.733433509789464,images/picture_3.png,2,"[11.733433509789464, 11.733433509789462]",11.733433509789464,11.733433509789462,0,1,1,1.1080713245817098,2.1080713245817098,0.8919286754182902,3,1,1.8580713245817095,0,5,0,5,0,0,3,3,5,,,,,,,0.003443958004936576,326.27176191698527,326.27176191698527,327.27272179198917,328.1403258750215,328.37264287500875,328.37264287500875,328.37264287500875,329.27270708297146,329.27270708297146,329.27270708297146,329.27270708297146,330.2725554580102,3.9971016669878736,200002,004,2023-03-16_15h59.42.722,DMS_BEST_eyetracking_DAN_base_12-36_looped_10minWORKING,2022.2.4,None,
47,UNPRED,12,0.9428921513468884,2,images/picture_3.png,images/picture_1.png,0,"[-11.733433509789466, -11.733433509789462]",-11.733433509789464,-11.733433509789462,images/picture_2.png,1,"[11.733433509789462, -11.733433509789466]",11.733433509789462,-11.733433509789464,images/picture_3.png,2,"[-11.733433509789462, 11.733433509789464]",-11.733433509789462,11.733433509789464,0,1,1,0.9428921513468884,1.9428921513468884,1.0571078486531116,3,1,1.6928921513468884,0,5,0,5,0,0,4,4,2,,,,,,,,,,,,,,,,,,,,,200002,004,2023-03-16_15h59.42.722,DMS_BEST_eyetracking_DAN_base_12-36_looped_10minWORKING,2022.2.4,None,
47,UNPRED,12,0.9428921513468884,2,images/picture_3.png,images/picture_1.png,0,"[-11.733433509789466, -11.733433509789462]",-11.733433509789464,-11.733433509789462,images/picture_2.png,1,"[11.733433509789462, -11.733433509789466]",11.733433509789462,-11.733433509789464,images/picture_3.png,2,"[-11.733433509789462, 11.733433509789464]",-11.733433509789462,11.733433509789464,0,1,1,0.9428921513468884,1.9428921513468884,1.0571078486531116,3,1,1.6928921513468884,0,5,0,5,0,0,4,4,2,,,,,,,0.0017639999859966338,330.2725554580102,330.2725554580102,331.27259333297843,331.97265037498437,332.2059807080077,332.2059807080077,332.2059807080077,333.27293145802105,333.27293145802105,333.27293145802105,333.27293145802105,334.27301025000634,3.9986939579830505,200002,004,2023-03-16_15h59.42.722,DMS_BEST_eyetracking_DAN_base_12-36_looped_10minWORKING,2022.2.4,None,
49,UNPRED,12,0.8588537292808762,0,images/picture_1.png,images/picture_1.png,0,"[-11.733433509789462, 11.733433509789464]",-11.733433509789462,11.733433509789464,images/picture_2.png,1,"[11.733433509789462, -11.733433509789466]",11.733433509789462,-11.733433509789464,images/picture_3.png,2,"[11.733433509789464, 11.733433509789462]",11.733433509789464,11.733433509789462,0,1,1,0.8588537292808762,1.858853729280876,1.1411462707191238,3,1,1.6088537292808762,0,5,0,5,0,0,5,5,4,,,,,,,,,,,,,,,,,,,,,200002,004,2023-03-16_15h59.42.722,DMS_BEST_eyetracking_DAN_base_12-36_looped_10minWORKING,2022.2.4,None,
49,UNPRED,12,0.8588537292808762,0,images/picture_1.png,images/picture_1.png,0,"[-11.733433509789462, 11.733433509789464]",-11.733433509789462,11.733433509789464,images/picture_2.png,1,"[11.733433509789462, -11.733433509789466]",11.733433509789462,-11.733433509789464,images/picture_3.png,2,"[11.733433509789464, 11.733433509789462]",11.733433509789464,11.733433509789462,0,1,1,0.8588537292808762,1.858853729280876,1.1411462707191238,3,1,1.6088537292808762,0,5,0,5,0,0,5,5,4,,,,,,,0.002034125034697354,334.27301025000634,334.27301025000634,335.2726067500189,335.89193516701926,336.1246666670195,336.1246666670195,336.1246666670195,337.2736425829935,337.2736425829935,337.2736425829935,337.2736425829935,338.272588916996,3.998110541026108,200002,004,2023-03-16_15h59.42.722,DMS_BEST_eyetracking_DAN_base_12-36_looped_10minWORKING,2022.2.4,None,
46,UNPRED,12,0.6437869330097139,2,images/picture_3.png,images/picture_1.png,0,"[11.733433509789462, -11.733433509789466]",11.733433509789462,-11.733433509789464,images/picture_2.png,1,"[11.733433509789464, 11.733433509789462]",11.733433509789464,11.733433509789462,images/picture_3.png,2,"[-11.733433509789466, -11.733433509789462]",-11.733433509789464,-11.733433509789462,0,1,1,0.6437869330097139,1.6437869330097141,1.3562130669902859,3,1,1.3937869330097141,0,5,0,5,0,0,6,6,1,,,,,,,,,,,,,,,,,,,,,200002,004,2023-03-16_15h59.42.722,DMS_BEST_eyetracking_DAN_base_12-36_looped_10minWORKING,2022.2.4,None,
46,UNPRED,12,0.6437869330097139,2,images/picture_3.png,images/picture_1.png,0,"[11.733433509789462, -11.733433509789466]",11.733433509789462,-11.733433509789464,images/picture_2.png,1,"[11.733433509789464, 11.733433509789462]",11.733433509789464,11.733433509789462,images/picture_3.png,2,"[-11.733433509789466, -11.733433509789462]",-11.733433509789464,-11.733433509789462,0,1,1,0.6437869330097139,1.6437869330097141,1.3562130669902859,3,1,1.3937869330097141,0,5,0,5,0,0,6,6,1,,,,,,,0.0017701250035315752,338.272588916996,338.272588916996,339.27238004200626,339.67244487500284,339.9058222079766,339.9058222079766,339.9058222079766,341.27252250001766,341.27252250001766,341.27252250001766,341.27252250001766,342.2720552079845,3.9983713339897804,200002,004,2023-03-16_15h59.42.722,DMS_BEST_eyetracking_DAN_base_12-36_looped_10minWORKING,2022.2.4,None,
53,UNPRED,12,0.6314418365859129,2,images/picture_3.png,images/picture_1.png,0,"[11.733433509789462, -11.733433509789466]",11.733433509789462,-11.733433509789464,images/picture_2.png,1,"[-11.733433509789462, 11.733433509789464]",-11.733433509789462,11.733433509789464,images/picture_3.png,2,"[11.733433509789464, 11.733433509789462]",11.733433509789464,11.733433509789462,0,1,1,0.6314418365859129,1.6314418365859131,1.3685581634140869,3,1,1.3814418365859131,0,5,0,5,0,0,7,7,8,,,,,,,,,,,,,,,,,,,,,200002,004,2023-03-16_15h59.42.722,DMS_BEST_eyetracking_DAN_base_12-36_looped_10minWORKING,2022.2.4,None,
53,UNPRED,12,0.6314418365859129,2,images/picture_3.png,images/picture_1.png,0,"[11.733433509789462, -11.733433509789466]",11.733433509789462,-11.733433509789464,images/picture_2.png,1,"[-11.733433509789462, 11.733433509789464]",-11.733433509789462,11.733433509789464,images/picture_3.png,2,"[11.733433509789464, 11.733433509789462]",11.733433509789464,11.733433509789462,0,1,1,0.6314418365859129,1.6314418365859131,1.3685581634140869,3,1,1.3814418365859131,0,5,0,5,0,0,7,7,8,,,,,,,0.0015513329999521375,342.2720552079845,342.2720552079845,343.2723587079672,343.65836970799137,343.905949625012,343.905949625012,343.905949625012,345.27251645800425,345.27251645800425,345.27251645800425,345.27251645800425,346.27220399997896,3.9968228329671547,200002,004,2023-03-16_15h59.42.722,DMS_BEST_eyetracking_DAN_base_12-36_looped_10minWORKING,2022.2.4,None,
48,UNPRED,12,1.1919087234200252,2,images/picture_3.png,images/picture_1.png,0,"[-11.733433509789466, -11.733433509789462]",-11.733433509789464,-11.733433509789462,images/picture_2.png,1,"[11.733433509789464, 11.733433509789462]",11.733433509789464,11.733433509789462,images/picture_3.png,2,"[11.733433509789462, -11.733433509789466]",11.733433509789462,-11.733433509789464,0,1,1,1.1919087234200252,2.191908723420025,0.8080912765799748,3,1,1.9419087234200247,0,5,0,5,0,0,8,8,3,,,,,,,,,,,,,,,,,,,,,200002,004,2023-03-16_15h59.42.722,DMS_BEST_eyetracking_DAN_base_12-36_looped_10minWORKING,2022.2.4,None,
48,UNPRED,12,1.1919087234200252,2,images/picture_3.png,images/picture_1.png,0,"[-11.733433509789466, -11.733433509789462]",-11.733433509789464,-11.733433509789462,images/picture_2.png,1,"[11.733433509789464, 11.733433509789462]",11.733433509789464,11.733433509789462,images/picture_3.png,2,"[11.733433509789462, -11.733433509789466]",11.733433509789462,-11.733433509789464,0,1,1,1.1919087234200252,2.191908723420025,0.8080912765799748,3,1,1.9419087234200247,0,5,0,5,0,0,8,8,3,,,,,,,0.0016318749985657632,346.27220399997896,346.27220399997896,347.2722116250079,348.22548183298204,348.4578564169933,348.4578564169933,348.4578564169933,349.2722422920051,349.2722422920051,349.2722422920051,349.2722422920051,350.3252349169925,3.9977661250159144,200002,004,2023-03-16_15h59.42.722,DMS_BEST_eyetracking_DAN_base_12-36_looped_10minWORKING,2022.2.4,None,
,,,,,,,,,,,,,,,,,,,,,,,,,,,,,,,5,0,5,0,,,,,,,,,350.3252349169925,362.3573345000041,,,,,,,,,,,,,,,200002,004,2023-03-16_15h59.42.722,DMS_BEST_eyetracking_DAN_base_12-36_looped_10minWORKING,2022.2.4,None,
59,PRED,12,0.9807412167493992,0,images/picture_1.png,images/picture_1.png,0,"[11.733433509789462, -11.733433509789466]",11.733433509789462,-11.733433509789464,images/picture_2.png,1,"[-11.733433509789466, -11.733433509789462]",-11.733433509789464,-11.733433509789462,images/picture_3.png,2,"[-11.733433509789462, 11.733433509789464]",-11.733433509789462,11.733433509789464,0,1,1,0.9807412167493992,1.9807412167493994,1.019258783250601,3,1,1.7307412167493994,0,6,0,6,0,0,0,0,5,,,,,,,,,,,,,,,,,,,,,200002,004,2023-03-16_15h59.42.722,DMS_BEST_eyetracking_DAN_base_12-36_looped_10minWORKING,2022.2.4,None,
59,PRED,12,0.9807412167493992,0,images/picture_1.png,images/picture_1.png,0,"[11.733433509789462, -11.733433509789466]",11.733433509789462,-11.733433509789464,images/picture_2.png,1,"[-11.733433509789466, -11.733433509789462]",-11.733433509789464,-11.733433509789462,images/picture_3.png,2,"[-11.733433509789462, 11.733433509789464]",-11.733433509789462,11.733433509789464,0,1,1,0.9807412167493992,1.9807412167493994,1.019258783250601,3,1,1.7307412167493994,0,6,0,6,0,0,0,0,5,,,,,,,0.002269792021252215,362.3573345000041,362.3573345000041,363.3720421670005,364.0918495419901,364.32441020797705,364.32441020797705,364.32441020797705,365.3579065829981,365.3579065829981,365.3579065829981,365.3390947919688,366.33891350001795,4.0234883750090376,200002,004,2023-03-16_15h59.42.722,DMS_BEST_eyetracking_DAN_base_12-36_looped_10minWORKING,2022.2.4,None,
54,PRED,12,0.9667883929532024,0,images/picture_1.png,images/picture_1.png,0,"[-11.733433509789462, 11.733433509789464]",-11.733433509789462,11.733433509789464,images/picture_2.png,1,"[-11.733433509789466, -11.733433509789462]",-11.733433509789464,-11.733433509789462,images/picture_3.png,2,"[11.733433509789464, 11.733433509789462]",11.733433509789464,11.733433509789462,0,1,1,0.9667883929532024,1.9667883929532024,1.0332116070467976,3,1,1.7167883929532024,0,6,0,6,0,0,1,1,0,,,,,,,,,,,,,,,,,,,,,200002,004,2023-03-16_15h59.42.722,DMS_BEST_eyetracking_DAN_base_12-36_looped_10minWORKING,2022.2.4,None,
54,PRED,12,0.9667883929532024,0,images/picture_1.png,images/picture_1.png,0,"[-11.733433509789462, 11.733433509789464]",-11.733433509789462,11.733433509789464,images/picture_2.png,1,"[-11.733433509789466, -11.733433509789462]",-11.733433509789464,-11.733433509789462,images/picture_3.png,2,"[11.733433509789464, 11.733433509789462]",11.733433509789464,11.733433509789462,0,1,1,0.9667883929532024,1.9667883929532024,1.0332116070467976,3,1,1.7167883929532024,0,6,0,6,0,0,1,1,0,,,,,,,0.0015020829741843045,366.3721435419866,366.3721435419866,367.3720715420204,368.0910921249888,368.3386612079921,368.3386612079921,368.3386612079921,369.37200395797845,369.37200395797845,369.37200395797845,369.37200395797845,370.37195095798234,3.998579500010237,200002,004,2023-03-16_15h59.42.722,DMS_BEST_eyetracking_DAN_base_12-36_looped_10minWORKING,2022.2.4,None,
61,PRED,12,1.1579277506406846,0,images/picture_1.png,images/picture_1.png,0,"[-11.733433509789466, -11.733433509789462]",-11.733433509789464,-11.733433509789462,images/picture_2.png,1,"[-11.733433509789462, 11.733433509789464]",-11.733433509789462,11.733433509789464,images/picture_3.png,2,"[11.733433509789464, 11.733433509789462]",11.733433509789464,11.733433509789462,0,1,1,1.1579277506406846,2.1579277506406846,0.8420722493593154,3,1,1.9079277506406849,0,6,0,6,0,0,2,2,7,,,,,,,,,,,,,,,,,,,,,200002,004,2023-03-16_15h59.42.722,DMS_BEST_eyetracking_DAN_base_12-36_looped_10minWORKING,2022.2.4,None,
61,PRED,12,1.1579277506406846,0,images/picture_1.png,images/picture_1.png,0,"[-11.733433509789466, -11.733433509789462]",-11.733433509789464,-11.733433509789462,images/picture_2.png,1,"[-11.733433509789462, 11.733433509789464]",-11.733433509789462,11.733433509789464,images/picture_3.png,2,"[11.733433509789464, 11.733433509789462]",11.733433509789464,11.733433509789462,0,1,1,1.1579277506406846,2.1579277506406846,0.8420722493593154,3,1,1.9079277506406849,0,6,0,6,0,0,2,2,7,,,,,,,0.0014931249897927046,370.37195095798234,370.37195095798234,371.3720299999695,372.2917025000206,372.52421008300735,372.52421008300735,372.52421008300735,373.37195529200835,373.37195529200835,373.37195529200835,373.37195529200835,374.3731315420009,3.9977611250360496,200002,004,2023-03-16_15h59.42.722,DMS_BEST_eyetracking_DAN_base_12-36_looped_10minWORKING,2022.2.4,None,
62,PRED,12,0.6410105361690626,0,images/picture_1.png,images/picture_1.png,0,"[11.733433509789462, -11.733433509789466]",11.733433509789462,-11.733433509789464,images/picture_2.png,1,"[-11.733433509789466, -11.733433509789462]",-11.733433509789464,-11.733433509789462,images/picture_3.png,2,"[-11.733433509789462, 11.733433509789464]",-11.733433509789462,11.733433509789464,0,1,1,0.6410105361690626,1.6410105361690626,1.3589894638309374,3,1,1.3910105361690626,0,6,0,6,0,0,3,3,8,,,,,,,,,,,,,,,,,,,,,200002,004,2023-03-16_15h59.42.722,DMS_BEST_eyetracking_DAN_base_12-36_looped_10minWORKING,2022.2.4,None,
62,PRED,12,0.6410105361690626,0,images/picture_1.png,images/picture_1.png,0,"[11.733433509789462, -11.733433509789466]",11.733433509789462,-11.733433509789464,images/picture_2.png,1,"[-11.733433509789466, -11.733433509789462]",-11.733433509789464,-11.733433509789462,images/picture_3.png,2,"[-11.733433509789462, 11.733433509789464]",-11.733433509789462,11.733433509789464,0,1,1,0.6410105361690626,1.6410105361690626,1.3589894638309374,3,1,1.3910105361690626,0,6,0,6,0,0,3,3,8,,,,,,,0.0015731249586679041,374.3731315420009,374.3731315420009,375.37198504200205,375.77215708297445,376.0055522079929,376.0055522079929,376.0055522079929,377.3719102080213,377.3719102080213,377.3719102080213,377.3719102080213,378.37185258301906,3.997749041998759,200002,004,2023-03-16_15h59.42.722,DMS_BEST_eyetracking_DAN_base_12-36_looped_10minWORKING,2022.2.4,None,
56,PRED,12,0.8648001097825626,0,images/picture_1.png,images/picture_1.png,0,"[11.733433509789462, -11.733433509789466]",11.733433509789462,-11.733433509789464,images/picture_2.png,1,"[11.733433509789464, 11.733433509789462]",11.733433509789464,11.733433509789462,images/picture_3.png,2,"[-11.733433509789466, -11.733433509789462]",-11.733433509789464,-11.733433509789462,0,1,1,0.8648001097825626,1.8648001097825624,1.1351998902174374,3,1,1.6148001097825626,0,6,0,6,0,0,4,4,2,,,,,,,,,,,,,,,,,,,,,200002,004,2023-03-16_15h59.42.722,DMS_BEST_eyetracking_DAN_base_12-36_looped_10minWORKING,2022.2.4,None,
56,PRED,12,0.8648001097825626,0,images/picture_1.png,images/picture_1.png,0,"[11.733433509789462, -11.733433509789466]",11.733433509789462,-11.733433509789464,images/picture_2.png,1,"[11.733433509789464, 11.733433509789462]",11.733433509789464,11.733433509789462,images/picture_3.png,2,"[-11.733433509789466, -11.733433509789462]",-11.733433509789464,-11.733433509789462,0,1,1,0.8648001097825626,1.8648001097825624,1.1351998902174374,3,1,1.6148001097825626,0,6,0,6,0,0,4,4,2,,,,,,,0.0014012500178068876,378.37185258301906,378.37185258301906,379.37194662500406,379.99104712501867,380.2386225829832,380.2386225829832,380.2386225829832,381.37211087497417,381.37211087497417,381.37211087497417,381.37211087497417,382.37179304199526,3.9980987080489285,200002,004,2023-03-16_15h59.42.722,DMS_BEST_eyetracking_DAN_base_12-36_looped_10minWORKING,2022.2.4,None,
60,PRED,12,0.5078593941573196,0,images/picture_1.png,images/picture_1.png,0,"[-11.733433509789462, 11.733433509789464]",-11.733433509789462,11.733433509789464,images/picture_2.png,1,"[11.733433509789462, -11.733433509789466]",11.733433509789462,-11.733433509789464,images/picture_3.png,2,"[11.733433509789464, 11.733433509789462]",11.733433509789464,11.733433509789462,0,1,1,0.5078593941573196,1.5078593941573195,1.4921406058426805,3,1,1.2578593941573195,0,6,0,6,0,0,5,5,6,,,,,,,,,,,,,,,,,,,,,200002,004,2023-03-16_15h59.42.722,DMS_BEST_eyetracking_DAN_base_12-36_looped_10minWORKING,2022.2.4,None,
60,PRED,12,0.5078593941573196,0,images/picture_1.png,images/picture_1.png,0,"[-11.733433509789462, 11.733433509789464]",-11.733433509789462,11.733433509789464,images/picture_2.png,1,"[11.733433509789462, -11.733433509789466]",11.733433509789462,-11.733433509789464,images/picture_3.png,2,"[11.733433509789464, 11.733433509789462]",11.733433509789464,11.733433509789462,0,1,1,0.5078593941573196,1.5078593941573195,1.4921406058426805,3,1,1.2578593941573195,0,6,0,6,0,0,5,5,6,,,,,,,0.0013480420457199216,382.37179304199526,382.37179304199526,383.37188008299563,383.63915879197884,383.8718531249906,383.8718531249906,383.8718531249906,385.37197158299387,385.37197158299387,385.37197158299387,385.37197158299387,386.3719943750184,3.998778500012122,200002,004,2023-03-16_15h59.42.722,DMS_BEST_eyetracking_DAN_base_12-36_looped_10minWORKING,2022.2.4,None,
58,PRED,12,1.1355599812165478,0,images/picture_1.png,images/picture_1.png,0,"[-11.733433509789462, 11.733433509789464]",-11.733433509789462,11.733433509789464,images/picture_2.png,1,"[11.733433509789464, 11.733433509789462]",11.733433509789464,11.733433509789462,images/picture_3.png,2,"[-11.733433509789466, -11.733433509789462]",-11.733433509789464,-11.733433509789462,0,1,1,1.1355599812165478,2.135559981216548,0.8644400187834522,3,1,1.885559981216548,0,6,0,6,0,0,6,6,4,,,,,,,,,,,,,,,,,,,,,200002,004,2023-03-16_15h59.42.722,DMS_BEST_eyetracking_DAN_base_12-36_looped_10minWORKING,2022.2.4,None,
58,PRED,12,1.1355599812165478,0,images/picture_1.png,images/picture_1.png,0,"[-11.733433509789462, 11.733433509789464]",-11.733433509789462,11.733433509789464,images/picture_2.png,1,"[11.733433509789464, 11.733433509789462]",11.733433509789464,11.733433509789462,images/picture_3.png,2,"[-11.733433509789466, -11.733433509789462]",-11.733433509789464,-11.733433509789462,0,1,1,1.1355599812165478,2.135559981216548,0.8644400187834522,3,1,1.885559981216548,0,6,0,6,0,0,6,6,4,,,,,,,0.001460874977055937,386.3719943750184,386.3719943750184,387.37250195798697,388.26312637497904,388.5060095000081,388.5060095000081,388.5060095000081,389.3718236669665,389.3718236669665,389.3718236669665,389.3718236669665,390.3717375419801,3.9981254169833846,200002,004,2023-03-16_15h59.42.722,DMS_BEST_eyetracking_DAN_base_12-36_looped_10minWORKING,2022.2.4,None,
57,PRED,12,0.9311223917301356,0,images/picture_1.png,images/picture_1.png,0,"[11.733433509789464, 11.733433509789462]",11.733433509789464,11.733433509789462,images/picture_2.png,1,"[11.733433509789462, -11.733433509789466]",11.733433509789462,-11.733433509789464,images/picture_3.png,2,"[-11.733433509789462, 11.733433509789464]",-11.733433509789462,11.733433509789464,0,1,1,0.9311223917301356,1.931122391730136,1.0688776082698643,3,1,1.6811223917301357,0,6,0,6,0,0,7,7,3,,,,,,,,,,,,,,,,,,,,,200002,004,2023-03-16_15h59.42.722,DMS_BEST_eyetracking_DAN_base_12-36_looped_10minWORKING,2022.2.4,None,
57,PRED,12,0.9311223917301356,0,images/picture_1.png,images/picture_1.png,0,"[11.733433509789464, 11.733433509789462]",11.733433509789464,11.733433509789462,images/picture_2.png,1,"[11.733433509789462, -11.733433509789466]",11.733433509789462,-11.733433509789464,images/picture_3.png,2,"[-11.733433509789462, 11.733433509789464]",-11.733433509789462,11.733433509789464,0,1,1,0.9311223917301356,1.931122391730136,1.0688776082698643,3,1,1.6811223917301357,0,6,0,6,0,0,7,7,3,,,,,,,0.0013876669690944254,390.3717375419801,390.3717375419801,391.371779832989,392.057685207983,392.30501462501707,392.30501462501707,392.30501462501707,393.37200366699835,393.37200366699835,393.37200366699835,393.37200366699835,394.3716652080184,3.9983259169966914,200002,004,2023-03-16_15h59.42.722,DMS_BEST_eyetracking_DAN_base_12-36_looped_10minWORKING,2022.2.4,None,
55,PRED,12,0.6412938469538939,0,images/picture_1.png,images/picture_1.png,0,"[11.733433509789464, 11.733433509789462]",11.733433509789464,11.733433509789462,images/picture_2.png,1,"[-11.733433509789466, -11.733433509789462]",-11.733433509789464,-11.733433509789462,images/picture_3.png,2,"[11.733433509789462, -11.733433509789466]",11.733433509789462,-11.733433509789464,0,1,1,0.6412938469538939,1.6412938469538938,1.3587061530461062,3,1,1.3912938469538938,0,6,0,6,0,0,8,8,1,,,,,,,,,,,,,,,,,,,,,200002,004,2023-03-16_15h59.42.722,DMS_BEST_eyetracking_DAN_base_12-36_looped_10minWORKING,2022.2.4,None,
55,PRED,12,0.6412938469538939,0,images/picture_1.png,images/picture_1.png,0,"[11.733433509789464, 11.733433509789462]",11.733433509789464,11.733433509789462,images/picture_2.png,1,"[-11.733433509789466, -11.733433509789462]",-11.733433509789464,-11.733433509789462,images/picture_3.png,2,"[11.733433509789462, -11.733433509789466]",11.733433509789462,-11.733433509789464,0,1,1,0.6412938469538939,1.6412938469538938,1.3587061530461062,3,1,1.3912938469538938,0,6,0,6,0,0,8,8,1,,,,,,,0.0015279580256901681,394.3716652080184,394.3716652080184,395.3718033329933,395.77176166698337,396.0051722920034,396.0051722920034,396.0051722920034,397.3718707499793,397.3718707499793,397.3718707499793,397.3718707499793,398.4361149999895,3.99731512501603,200002,004,2023-03-16_15h59.42.722,DMS_BEST_eyetracking_DAN_base_12-36_looped_10minWORKING,2022.2.4,None,
,,,,,,,,,,,,,,,,,,,,,,,,,,,,,,,6,0,6,0,,,,,,,,,398.4361149999895,410.4576233329717,,,,,,,,,,,,,,,200002,004,2023-03-16_15h59.42.722,DMS_BEST_eyetracking_DAN_base_12-36_looped_10minWORKING,2022.2.4,None,
68,UNPRED,12,1.0818679573714065,2,images/picture_3.png,images/picture_1.png,0,"[-11.733433509789466, -11.733433509789462]",-11.733433509789464,-11.733433509789462,images/picture_2.png,1,"[11.733433509789462, -11.733433509789466]",11.733433509789462,-11.733433509789464,images/picture_3.png,2,"[11.733433509789464, 11.733433509789462]",11.733433509789464,11.733433509789462,0,1,1,1.0818679573714065,2.081867957371406,0.9181320426285936,3,1,1.831867957371406,0,7,0,7,0,0,0,0,5,,,,,,,,,,,,,,,,,,,,,200002,004,2023-03-16_15h59.42.722,DMS_BEST_eyetracking_DAN_base_12-36_looped_10minWORKING,2022.2.4,None,
68,UNPRED,12,1.0818679573714065,2,images/picture_3.png,images/picture_1.png,0,"[-11.733433509789466, -11.733433509789462]",-11.733433509789464,-11.733433509789462,images/picture_2.png,1,"[11.733433509789462, -11.733433509789466]",11.733433509789462,-11.733433509789464,images/picture_3.png,2,"[11.733433509789464, 11.733433509789462]",11.733433509789464,11.733433509789462,0,1,1,1.0818679573714065,2.081867957371406,0.9181320426285936,3,1,1.831867957371406,0,7,0,7,0,0,0,0,5,,,,,,,0.002386457985267043,410.4576233329717,410.4576233329717,411.4715847920161,412.3049726670142,412.5240753329708,412.5240753329708,412.5240753329708,413.45710108301137,413.45710108301137,413.45710108301137,413.43821116699837,414.4382922920049,4.018558958021458,200002,004,2023-03-16_15h59.42.722,DMS_BEST_eyetracking_DAN_base_12-36_looped_10minWORKING,2022.2.4,None,
63,UNPRED,12,1.0555222624743876,0,images/picture_1.png,images/picture_1.png,0,"[11.733433509789464, 11.733433509789462]",11.733433509789464,11.733433509789462,images/picture_2.png,1,"[-11.733433509789466, -11.733433509789462]",-11.733433509789464,-11.733433509789462,images/picture_3.png,2,"[11.733433509789462, -11.733433509789466]",11.733433509789462,-11.733433509789464,0,1,1,1.0555222624743876,2.0555222624743883,0.9444777375256124,3,1,1.805522262474388,0,7,0,7,0,0,1,1,0,,,,,,,,,,,,,,,,,,,,,200002,004,2023-03-16_15h59.42.722,DMS_BEST_eyetracking_DAN_base_12-36_looped_10minWORKING,2022.2.4,None,
63,UNPRED,12,1.0555222624743876,0,images/picture_1.png,images/picture_1.png,0,"[11.733433509789464, 11.733433509789462]",11.733433509789464,11.733433509789462,images/picture_2.png,1,"[-11.733433509789466, -11.733433509789462]",-11.733433509789464,-11.733433509789462,images/picture_3.png,2,"[11.733433509789462, -11.733433509789466]",11.733433509789462,-11.733433509789464,0,1,1,1.0555222624743876,2.0555222624743883,0.9444777375256124,3,1,1.805522262474388,0,7,0,7,0,0,1,1,0,,,,,,,0.0028373749810270965,414.4713925829856,414.4713925829856,415.4730491670198,416.29070329200476,416.52393149997806,416.52393149997806,416.52393149997806,417.471711457998,417.471711457998,417.471711457998,417.471711457998,418.4717671669787,3.9984273749869317,200002,004,2023-03-16_15h59.42.722,DMS_BEST_eyetracking_DAN_base_12-36_looped_10minWORKING,2022.2.4,None,
64,UNPRED,12,0.5558221297643702,2,images/picture_3.png,images/picture_1.png,0,"[11.733433509789464, 11.733433509789462]",11.733433509789464,11.733433509789462,images/picture_2.png,1,"[-11.733433509789466, -11.733433509789462]",-11.733433509789464,-11.733433509789462,images/picture_3.png,2,"[11.733433509789462, -11.733433509789466]",11.733433509789462,-11.733433509789464,0,1,1,0.5558221297643702,1.5558221297643702,1.4441778702356298,3,1,1.3058221297643702,0,7,0,7,0,0,2,2,1,,,,,,,,,,,,,,,,,,,,,200002,004,2023-03-16_15h59.42.722,DMS_BEST_eyetracking_DAN_base_12-36_looped_10minWORKING,2022.2.4,None,
64,UNPRED,12,0.5558221297643702,2,images/picture_3.png,images/picture_1.png,0,"[11.733433509789464, 11.733433509789462]",11.733433509789464,11.733433509789462,images/picture_2.png,1,"[-11.733433509789466, -11.733433509789462]",-11.733433509789464,-11.733433509789462,images/picture_3.png,2,"[11.733433509789462, -11.733433509789466]",11.733433509789462,-11.733433509789464,0,1,1,0.5558221297643702,1.5558221297643702,1.4441778702356298,3,1,1.3058221297643702,0,7,0,7,0,0,2,2,1,,,,,,,0.0022454160498455167,418.4717671669787,418.4717671669787,419.47155404201476,419.7907038750127,420.023774457979,420.023774457979,420.023774457979,421.47146479197545,421.47146479197545,421.47146479197545,421.47146479197545,422.47197116701864,3.9981136660207994,200002,004,2023-03-16_15h59.42.722,DMS_BEST_eyetracking_DAN_base_12-36_looped_10minWORKING,2022.2.4,None,
70,UNPRED,12,0.8264967147773231,2,images/picture_3.png,images/picture_1.png,0,"[11.733433509789464, 11.733433509789462]",11.733433509789464,11.733433509789462,images/picture_2.png,1,"[-11.733433509789462, 11.733433509789464]",-11.733433509789462,11.733433509789464,images/picture_3.png,2,"[-11.733433509789466, -11.733433509789462]",-11.733433509789464,-11.733433509789462,0,1,1,0.8264967147773231,1.8264967147773232,1.1735032852226768,3,1,1.5764967147773232,0,7,0,7,0,0,3,3,7,,,,,,,,,,,,,,,,,,,,,200002,004,2023-03-16_15h59.42.722,DMS_BEST_eyetracking_DAN_base_12-36_looped_10minWORKING,2022.2.4,None,
70,UNPRED,12,0.8264967147773231,2,images/picture_3.png,images/picture_1.png,0,"[11.733433509789464, 11.733433509789462]",11.733433509789464,11.733433509789462,images/picture_2.png,1,"[-11.733433509789462, 11.733433509789464]",-11.733433509789462,11.733433509789464,images/picture_3.png,2,"[-11.733433509789466, -11.733433509789462]",-11.733433509789464,-11.733433509789462,0,1,1,0.8264967147773231,1.8264967147773232,1.1735032852226768,3,1,1.5764967147773232,0,7,0,7,0,0,3,3,7,,,,,,,0.0013296250253915787,422.47197116701864,422.47197116701864,423.47151220799424,424.0574217920075,424.29036079201614,424.29036079201614,424.29036079201614,425.4723572920193,425.4723572920193,425.4723572920193,425.4723572920193,426.47128829197027,3.998311040981207,200002,004,2023-03-16_15h59.42.722,DMS_BEST_eyetracking_DAN_base_12-36_looped_10minWORKING,2022.2.4,None,
