trial_count,blockType,blockNum,delay_time,stimImage_i,stimImage,responseImage1,responseImage1_i,responseImage1_pos,responseImage1_X,responseImage1_Y,responseImage2,responseImage2_i,responseImage2_pos,responseImage2_X,responseImage2_Y,responseImage3,responseImage3_i,responseImage3_pos,responseImage3_X,responseImage3_Y,cue_onset,cue_dur,delay_onset,delay_dur,resp_onset,resp_dur,rest_onset,rest_dur,circle_dur,circle_onset,total_dur,cross_onset,cross_dur,delay_resp_period,blocks.thisRepN,blocks.thisTrialN,blocks.thisN,blocks.thisIndex,trials.thisRepN,trials.thisTrialN,trials.thisN,trials.thisIndex,key_resp.started,text.started,key_resp.keys,key_resp.rt,text_2.started,text_2.stopped,sample.started,Delay.started,sample.stopped,Delay.stopped,Response_1.started,Response_2.started,Response_3.started,Response_1.stopped,Response_2.stopped,Response_3.stopped,polygon.started,polygon.stopped,participant,session,date,expName,psychopyVersion,frameRate,
,,,,,,,,,,,,,,,,,,,,,,,,,,,,,,,,,,,,,,,,,,,41.287647917168215,41.287647917168215,t,53.36763100000098,,,,,,,,,,,,,,,200004,002,2023-03-31_10h48.56.598,DMS_et_12-36,2022.2.4,None,
3,PRED,12,0.7194223484910389,1,images/picture_2.png,images/picture_1.png,0,"[11.733433509789462, -11.733433509789466]",11.733433509789462,-11.733433509789464,images/picture_2.png,1,"[-11.733433509789462, 11.733433509789464]",-11.733433509789462,11.733433509789464,images/picture_3.png,2,"[11.733433509789464, 11.733433509789462]",11.733433509789464,11.733433509789462,0,1,1,0.7194223484910389,1.719422348491039,1.2805776515089609,3.0,1,1.469422348491039,0,4.0,3.0,1,2,0,0,0,0,0,0,0,3,,,,,95.17269475013018,107.20306050009094,107.20306050009094,107.20306050009094,108.20102820894681,108.68711366713978,108.9204589589499,108.9204589589499,108.9204589589499,110.20128562510945,110.20128562510945,110.20128562510945,110.20128562510945,111.20085941697471,200004,002,2023-03-31_10h48.56.598,DMS_et_12-36,2022.2.4,None,
1,PRED,12,0.7194223484910389,1,images/picture_2.png,images/picture_1.png,0,"[11.733433509789462, -11.733433509789466]",11.733433509789462,-11.733433509789464,images/picture_2.png,1,"[-11.733433509789462, 11.733433509789464]",-11.733433509789462,11.733433509789464,images/picture_3.png,2,"[11.733433509789464, 11.733433509789462]",11.733433509789464,11.733433509789462,0,1,1,0.7194223484910389,1.719422348491039,1.2805776515089609,3.0,1,1.469422348491039,0,4.0,3.0,1,2,0,0,0,0,0,1,1,1,,,,,,,111.20085941697471,111.20085941697471,112.20127404201776,112.66792187513784,112.92063216702081,112.92063216702081,112.92063216702081,114.20109058404341,114.20109058404341,114.20109058404341,114.20109058404341,115.20097412494943,200004,002,2023-03-31_10h48.56.598,DMS_et_12-36,2022.2.4,None,
0,PRED,12,0.7194223484910389,1,images/picture_2.png,images/picture_1.png,0,"[-11.733433509789466, -11.733433509789462]",-11.733433509789464,-11.733433509789462,images/picture_2.png,1,"[-11.733433509789462, 11.733433509789464]",-11.733433509789462,11.733433509789464,images/picture_3.png,2,"[11.733433509789464, 11.733433509789462]",11.733433509789464,11.733433509789462,0,1,1,0.7194223484910389,1.719422348491039,1.2805776515089609,3.0,1,1.469422348491039,0,4.0,3.0,1,2,0,0,0,0,0,2,2,0,,,,,,,115.20097412494943,115.20097412494943,116.20122475014068,116.66801679204218,116.92062712507322,116.92062712507322,116.92062712507322,118.20119912503287,118.20119912503287,118.20119912503287,118.20119912503287,119.20064633409493,200004,002,2023-03-31_10h48.56.598,DMS_et_12-36,2022.2.4,None,
6,PRED,12,0.7194223484910389,1,images/picture_2.png,images/picture_1.png,0,"[11.733433509789462, -11.733433509789466]",11.733433509789462,-11.733433509789464,images/picture_2.png,1,"[11.733433509789464, 11.733433509789462]",11.733433509789464,11.733433509789462,images/picture_3.png,2,"[-11.733433509789466, -11.733433509789462]",-11.733433509789464,-11.733433509789462,0,1,1,0.7194223484910389,1.719422348491039,1.2805776515089609,3.0,1,1.469422348491039,0,4.0,3.0,1,2,0,0,0,0,0,3,3,6,,,,,,,119.20064633409493,119.20064633409493,120.20115495915525,120.66799062513746,120.92051304201595,120.92051304201595,120.92051304201595,122.20126133412123,122.20126133412123,122.20126133412123,122.20126133412123,123.20056725014001,200004,002,2023-03-31_10h48.56.598,DMS_et_12-36,2022.2.4,None,
2,PRED,12,0.7194223484910389,1,images/picture_2.png,images/picture_1.png,0,"[-11.733433509789462, 11.733433509789464]",-11.733433509789462,11.733433509789464,images/picture_2.png,1,"[11.733433509789462, -11.733433509789466]",11.733433509789462,-11.733433509789464,images/picture_3.png,2,"[-11.733433509789466, -11.733433509789462]",-11.733433509789464,-11.733433509789462,0,1,1,0.7194223484910389,1.719422348491039,1.2805776515089609,3.0,1,1.469422348491039,0,4.0,3.0,1,2,0,0,0,0,0,4,4,2,,,,,,,123.20056725014001,123.20056725014001,124.20126050012186,124.6676792090293,124.91999624995515,124.91999624995515,124.91999624995515,126.20105979195796,126.20105979195796,126.20105979195796,126.20105979195796,127.20081612514332,200004,002,2023-03-31_10h48.56.598,DMS_et_12-36,2022.2.4,None,
8,PRED,12,0.7194223484910389,1,images/picture_2.png,images/picture_1.png,0,"[11.733433509789464, 11.733433509789462]",11.733433509789464,11.733433509789462,images/picture_2.png,1,"[-11.733433509789466, -11.733433509789462]",-11.733433509789464,-11.733433509789462,images/picture_3.png,2,"[11.733433509789462, -11.733433509789466]",11.733433509789462,-11.733433509789464,0,1,1,0.7194223484910389,1.719422348491039,1.2805776515089609,3.0,1,1.469422348491039,0,4.0,3.0,1,2,0,0,0,0,0,5,5,8,,,,,,,127.20081612514332,127.20081612514332,128.20128783397377,128.66798720904626,128.9204683341086,128.9204683341086,128.9204683341086,130.20124666695483,130.20124666695483,130.20124666695483,130.20124666695483,131.2008525840938,200004,002,2023-03-31_10h48.56.598,DMS_et_12-36,2022.2.4,None,
4,PRED,12,0.7194223484910389,1,images/picture_2.png,images/picture_1.png,0,"[11.733433509789464, 11.733433509789462]",11.733433509789464,11.733433509789462,images/picture_2.png,1,"[-11.733433509789462, 11.733433509789464]",-11.733433509789462,11.733433509789464,images/picture_3.png,2,"[11.733433509789462, -11.733433509789466]",11.733433509789462,-11.733433509789464,0,1,1,0.7194223484910389,1.719422348491039,1.2805776515089609,3.0,1,1.469422348491039,0,4.0,3.0,1,2,0,0,0,0,0,6,6,4,,,,,,,131.2008525840938,131.2008525840938,132.20100600016303,132.6679249999579,132.92076512495987,132.92076512495987,132.92076512495987,134.20083700004034,134.20083700004034,134.20083700004034,134.20083700004034,135.201053542085,200004,002,2023-03-31_10h48.56.598,DMS_et_12-36,2022.2.4,None,
7,PRED,12,0.7194223484910389,1,images/picture_2.png,images/picture_1.png,0,"[-11.733433509789462, 11.733433509789464]",-11.733433509789462,11.733433509789464,images/picture_2.png,1,"[11.733433509789464, 11.733433509789462]",11.733433509789464,11.733433509789462,images/picture_3.png,2,"[11.733433509789462, -11.733433509789466]",11.733433509789462,-11.733433509789464,0,1,1,0.7194223484910389,1.719422348491039,1.2805776515089609,3.0,1,1.469422348491039,0,4.0,3.0,1,2,0,0,0,0,0,7,7,7,,,,,,,135.201053542085,135.201053542085,136.20127645903267,136.66780995903537,136.92055383417755,136.92055383417755,136.92055383417755,138.201084041968,138.201084041968,138.201084041968,138.201084041968,139.20078387507237,200004,002,2023-03-31_10h48.56.598,DMS_et_12-36,2022.2.4,None,
5,PRED,12,0.7194223484910389,1,images/picture_2.png,images/picture_1.png,0,"[11.733433509789464, 11.733433509789462]",11.733433509789464,11.733433509789462,images/picture_2.png,1,"[-11.733433509789462, 11.733433509789464]",-11.733433509789462,11.733433509789464,images/picture_3.png,2,"[11.733433509789462, -11.733433509789466]",11.733433509789462,-11.733433509789464,0,1,1,0.7194223484910389,1.719422348491039,1.2805776515089609,3.0,1,1.469422348491039,0,4.0,3.0,1,2,0,0,0,0,0,8,8,5,,,,,,,139.20078387507237,139.20078387507237,140.20147545915097,140.66801970917732,140.92036479199305,140.92036479199305,140.92036479199305,142.20131041714922,142.20131041714922,142.20131041714922,142.20131041714922,143.22023724997416,200004,002,2023-03-31_10h48.56.598,DMS_et_12-36,2022.2.4,None,
,,,,,,,,,,,,,,,,,,,,,,,,,,,,,,,,,,,0,0,0,0,,,,,,,,,143.22023724997416,155.25340179214254,,,,,,,,,,,,,200004,002,2023-03-31_10h48.56.598,DMS_et_12-36,2022.2.4,None,
11,UNPRED,12,0.7194223484910389,2,images/picture_3.png,images/picture_1.png,0,"[-11.733433509789466, -11.733433509789462]",-11.733433509789464,-11.733433509789462,images/picture_2.png,1,"[-11.733433509789462, 11.733433509789464]",-11.733433509789462,11.733433509789464,images/picture_3.png,2,"[11.733433509789464, 11.733433509789462]",11.733433509789464,11.733433509789462,0,1,1,0.7194223484910389,1.719422348491039,1.2805776515089609,3.0,1,1.469422348491039,0,4.0,3.0,1,2,1,0,1,0,0,0,0,2,,,,,,,155.25340179214254,155.25340179214254,156.26797329215333,156.73480870900676,156.95433204201981,156.95433204201981,156.95433204201981,158.23476245906204,158.23476245906204,158.23476245906204,158.23476245906204,159.23421429214068,200004,002,2023-03-31_10h48.56.598,DMS_et_12-36,2022.2.4,None,
13,UNPRED,12,0.7194223484910389,1,images/picture_2.png,images/picture_1.png,0,"[-11.733433509789466, -11.733433509789462]",-11.733433509789464,-11.733433509789462,images/picture_2.png,1,"[-11.733433509789462, 11.733433509789464]",-11.733433509789462,11.733433509789464,images/picture_3.png,2,"[11.733433509789464, 11.733433509789462]",11.733433509789464,11.733433509789462,0,1,1,0.7194223484910389,1.719422348491039,1.2805776515089609,3.0,1,1.469422348491039,0,4.0,3.0,1,2,1,0,1,0,0,1,1,4,,,,,,,159.23421429214068,159.23421429214068,160.2347265421413,160.70131562510505,160.95371541706845,160.95371541706845,160.95371541706845,162.23500879202038,162.23500879202038,162.23500879202038,162.23500879202038,163.2341599999927,200004,002,2023-03-31_10h48.56.598,DMS_et_12-36,2022.2.4,None,
14,UNPRED,12,0.7194223484910389,1,images/picture_2.png,images/picture_1.png,0,"[-11.733433509789462, 11.733433509789464]",-11.733433509789462,11.733433509789464,images/picture_2.png,1,"[-11.733433509789466, -11.733433509789462]",-11.733433509789464,-11.733433509789462,images/picture_3.png,2,"[11.733433509789464, 11.733433509789462]",11.733433509789464,11.733433509789462,0,1,1,0.7194223484910389,1.719422348491039,1.2805776515089609,3.0,1,1.469422348491039,0,4.0,3.0,1,2,1,0,1,0,0,2,2,5,,,,,,,163.2341599999927,163.2341599999927,164.2347435420379,164.7014958341606,164.95401145913638,164.95401145913638,164.95401145913638,166.23451487510465,166.23451487510465,166.23451487510465,166.23451487510465,167.23412483395077,200004,002,2023-03-31_10h48.56.598,DMS_et_12-36,2022.2.4,None,
15,UNPRED,12,0.7194223484910389,0,images/picture_1.png,images/picture_1.png,0,"[11.733433509789462, -11.733433509789466]",11.733433509789462,-11.733433509789464,images/picture_2.png,1,"[-11.733433509789462, 11.733433509789464]",-11.733433509789462,11.733433509789464,images/picture_3.png,2,"[-11.733433509789466, -11.733433509789462]",-11.733433509789464,-11.733433509789462,0,1,1,0.7194223484910389,1.719422348491039,1.2805776515089609,3.0,1,1.469422348491039,0,4.0,3.0,1,2,1,0,1,0,0,3,3,6,,,,,,,167.23412483395077,167.23412483395077,168.23455879208632,168.70159225002863,168.95389462495223,168.95389462495223,168.95389462495223,170.23473712499253,170.23473712499253,170.23473712499253,170.23473712499253,171.2342260000296,200004,002,2023-03-31_10h48.56.598,DMS_et_12-36,2022.2.4,None,
12,UNPRED,12,0.7194223484910389,1,images/picture_2.png,images/picture_1.png,0,"[-11.733433509789466, -11.733433509789462]",-11.733433509789464,-11.733433509789462,images/picture_2.png,1,"[11.733433509789464, 11.733433509789462]",11.733433509789464,11.733433509789462,images/picture_3.png,2,"[11.733433509789462, -11.733433509789466]",11.733433509789462,-11.733433509789464,0,1,1,0.7194223484910389,1.719422348491039,1.2805776515089609,3.0,1,1.469422348491039,0,4.0,3.0,1,2,1,0,1,0,0,4,4,3,,,,,,,171.2342260000296,171.2342260000296,172.23473666701466,172.70146587514319,172.95420845900662,172.95420845900662,172.95420845900662,174.23504116712138,174.23504116712138,174.23504116712138,174.23504116712138,175.2530839999672,200004,002,2023-03-31_10h48.56.598,DMS_et_12-36,2022.2.4,None,
9,UNPRED,12,0.7194223484910389,2,images/picture_3.png,images/picture_1.png,0,"[-11.733433509789466, -11.733433509789462]",-11.733433509789464,-11.733433509789462,images/picture_2.png,1,"[11.733433509789462, -11.733433509789466]",11.733433509789462,-11.733433509789464,images/picture_3.png,2,"[11.733433509789464, 11.733433509789462]",11.733433509789464,11.733433509789462,0,1,1,0.7194223484910389,1.719422348491039,1.2805776515089609,3.0,1,1.469422348491039,0,4.0,3.0,1,2,1,0,1,0,0,5,5,0,,,,,,,175.2530839999672,175.2530839999672,176.26791012496687,176.73484666715376,176.9545269999653,176.9545269999653,176.9545269999653,178.23477700003423,178.23477700003423,178.23477700003423,178.23477700003423,179.23455504211597,200004,002,2023-03-31_10h48.56.598,DMS_et_12-36,2022.2.4,None,
17,UNPRED,12,0.7194223484910389,0,images/picture_1.png,images/picture_1.png,0,"[-11.733433509789462, 11.733433509789464]",-11.733433509789462,11.733433509789464,images/picture_2.png,1,"[11.733433509789464, 11.733433509789462]",11.733433509789464,11.733433509789462,images/picture_3.png,2,"[-11.733433509789466, -11.733433509789462]",-11.733433509789464,-11.733433509789462,0,1,1,0.7194223484910389,1.719422348491039,1.2805776515089609,3.0,1,1.469422348491039,0,4.0,3.0,1,2,1,0,1,0,0,6,6,8,,,,,,,179.23455504211597,179.23455504211597,180.23482445906848,180.7014997920487,180.9542084170971,180.9542084170971,180.9542084170971,182.23499333416112,182.23499333416112,182.23499333416112,182.23499333416112,183.2342685421463,200004,002,2023-03-31_10h48.56.598,DMS_et_12-36,2022.2.4,None,
16,UNPRED,12,0.7194223484910389,1,images/picture_2.png,images/picture_1.png,0,"[-11.733433509789462, 11.733433509789464]",-11.733433509789462,11.733433509789464,images/picture_2.png,1,"[11.733433509789462, -11.733433509789466]",11.733433509789462,-11.733433509789464,images/picture_3.png,2,"[-11.733433509789466, -11.733433509789462]",-11.733433509789464,-11.733433509789462,0,1,1,0.7194223484910389,1.719422348491039,1.2805776515089609,3.0,1,1.469422348491039,0,4.0,3.0,1,2,1,0,1,0,0,7,7,7,,,,,,,183.2342685421463,183.2342685421463,184.23473416711204,184.70132304215804,184.95423225010745,184.95423225010745,184.95423225010745,186.23446266702376,186.23446266702376,186.23446266702376,186.23446266702376,187.2339529171586,200004,002,2023-03-31_10h48.56.598,DMS_et_12-36,2022.2.4,None,
10,UNPRED,12,0.7194223484910389,0,images/picture_1.png,images/picture_1.png,0,"[-11.733433509789466, -11.733433509789462]",-11.733433509789464,-11.733433509789462,images/picture_2.png,1,"[11.733433509789464, 11.733433509789462]",11.733433509789464,11.733433509789462,images/picture_3.png,2,"[-11.733433509789462, 11.733433509789464]",-11.733433509789462,11.733433509789464,0,1,1,0.7194223484910389,1.719422348491039,1.2805776515089609,3.0,1,1.469422348491039,0,4.0,3.0,1,2,1,0,1,0,0,8,8,1,,,,,,,187.2339529171586,187.2339529171586,188.234900749987,188.701533584157,188.95497004198842,188.95497004198842,188.95497004198842,190.23479516711086,190.23479516711086,190.23479516711086,190.23479516711086,191.26585091697052,200004,002,2023-03-31_10h48.56.598,DMS_et_12-36,2022.2.4,None,
,,,,,,,,,,,,,,,,,,,,,,,,,,,,,,,,,,,1,0,1,0,,,,,,,,,191.26585091697052,203.286954959156,,,,,,,,,,,,,200004,002,2023-03-31_10h48.56.598,DMS_et_12-36,2022.2.4,None,
19,PRED,12,0.7194223484910389,1,images/picture_2.png,images/picture_1.png,0,"[-11.733433509789462, 11.733433509789464]",-11.733433509789462,11.733433509789464,images/picture_2.png,1,"[-11.733433509789466, -11.733433509789462]",-11.733433509789464,-11.733433509789462,images/picture_3.png,2,"[11.733433509789462, -11.733433509789466]",11.733433509789462,-11.733433509789464,0,1,1,0.7194223484910389,1.719422348491039,1.2805776515089609,3.0,1,1.469422348491039,0,4.0,3.0,1,2,2,0,2,0,0,0,0,1,,,,,,,203.286954959156,203.286954959156,204.30187233397737,204.76839954196475,205.00151787512004,205.00151787512004,205.00151787512004,206.28745279205032,206.28745279205032,206.28745279205032,206.28745279205032,207.30135158402845,200004,002,2023-03-31_10h48.56.598,DMS_et_12-36,2022.2.4,None,
20,PRED,12,0.7194223484910389,1,images/picture_2.png,images/picture_1.png,0,"[11.733433509789462, -11.733433509789466]",11.733433509789462,-11.733433509789464,images/picture_2.png,1,"[-11.733433509789462, 11.733433509789464]",-11.733433509789462,11.733433509789464,images/picture_3.png,2,"[11.733433509789464, 11.733433509789462]",11.733433509789464,11.733433509789462,0,1,1,0.7194223484910389,1.719422348491039,1.2805776515089609,3.0,1,1.469422348491039,0,4.0,3.0,1,2,2,0,2,0,0,1,1,2,,,,,,,207.30135158402845,207.30135158402845,208.30169141711667,208.76829812512733,209.02103333408013,209.02103333408013,209.02103333408013,210.30167420906946,210.30167420906946,210.30167420906946,210.30167420906946,211.3013608341571,200004,002,2023-03-31_10h48.56.598,DMS_et_12-36,2022.2.4,None,
24,PRED,12,0.7194223484910389,1,images/picture_2.png,images/picture_1.png,0,"[-11.733433509789462, 11.733433509789464]",-11.733433509789462,11.733433509789464,images/picture_2.png,1,"[11.733433509789462, -11.733433509789466]",11.733433509789462,-11.733433509789464,images/picture_3.png,2,"[-11.733433509789466, -11.733433509789462]",-11.733433509789464,-11.733433509789462,0,1,1,0.7194223484910389,1.719422348491039,1.2805776515089609,3.0,1,1.469422348491039,0,4.0,3.0,1,2,2,0,2,0,0,2,2,6,,,,,,,211.3013608341571,211.3013608341571,212.30153787508607,212.76828341698274,213.021001416957,213.021001416957,213.021001416957,214.3015357090626,214.3015357090626,214.3015357090626,214.3015357090626,215.30111570912413,200004,002,2023-03-31_10h48.56.598,DMS_et_12-36,2022.2.4,None,
25,PRED,12,0.7194223484910389,1,images/picture_2.png,images/picture_1.png,0,"[-11.733433509789466, -11.733433509789462]",-11.733433509789464,-11.733433509789462,images/picture_2.png,1,"[11.733433509789464, 11.733433509789462]",11.733433509789464,11.733433509789462,images/picture_3.png,2,"[11.733433509789462, -11.733433509789466]",11.733433509789462,-11.733433509789464,0,1,1,0.7194223484910389,1.719422348491039,1.2805776515089609,3.0,1,1.469422348491039,0,4.0,3.0,1,2,2,0,2,0,0,3,3,7,,,,,,,215.30111570912413,215.30111570912413,216.30170958396047,216.7683258750476,217.02078354195692,217.02078354195692,217.02078354195692,218.3017002090346,218.3017002090346,218.3017002090346,218.3017002090346,219.30105845909566,200004,002,2023-03-31_10h48.56.598,DMS_et_12-36,2022.2.4,None,
23,PRED,12,0.7194223484910389,1,images/picture_2.png,images/picture_1.png,0,"[11.733433509789464, 11.733433509789462]",11.733433509789464,11.733433509789462,images/picture_2.png,1,"[-11.733433509789466, -11.733433509789462]",-11.733433509789464,-11.733433509789462,images/picture_3.png,2,"[11.733433509789462, -11.733433509789466]",11.733433509789462,-11.733433509789464,0,1,1,0.7194223484910389,1.719422348491039,1.2805776515089609,3.0,1,1.469422348491039,0,4.0,3.0,1,2,2,0,2,0,0,4,4,5,,,,,,,219.30105845909566,219.30105845909566,220.30158354202285,220.76828933414072,221.02089949999936,221.02089949999936,221.02089949999936,222.30174554209225,222.30174554209225,222.30174554209225,222.30174554209225,223.3010397499893,200004,002,2023-03-31_10h48.56.598,DMS_et_12-36,2022.2.4,None,
26,PRED,12,0.7194223484910389,1,images/picture_2.png,images/picture_1.png,0,"[-11.733433509789466, -11.733433509789462]",-11.733433509789464,-11.733433509789462,images/picture_2.png,1,"[-11.733433509789462, 11.733433509789464]",-11.733433509789462,11.733433509789464,images/picture_3.png,2,"[11.733433509789464, 11.733433509789462]",11.733433509789464,11.733433509789462,0,1,1,0.7194223484910389,1.719422348491039,1.2805776515089609,3.0,1,1.469422348491039,0,4.0,3.0,1,2,2,0,2,0,0,5,5,8,,,,,,,223.3010397499893,223.3010397499893,224.3017909170594,224.76835262496024,225.0208042920567,225.0208042920567,225.0208042920567,226.3017669999972,226.3017669999972,226.3017669999972,226.3017669999972,227.30140216695145,200004,002,2023-03-31_10h48.56.598,DMS_et_12-36,2022.2.4,None,
22,PRED,12,0.7194223484910389,1,images/picture_2.png,images/picture_1.png,0,"[-11.733433509789462, 11.733433509789464]",-11.733433509789462,11.733433509789464,images/picture_2.png,1,"[-11.733433509789466, -11.733433509789462]",-11.733433509789464,-11.733433509789462,images/picture_3.png,2,"[11.733433509789464, 11.733433509789462]",11.733433509789464,11.733433509789462,0,1,1,0.7194223484910389,1.719422348491039,1.2805776515089609,3.0,1,1.469422348491039,0,4.0,3.0,1,2,2,0,2,0,0,6,6,4,,,,,,,227.30140216695145,227.30140216695145,228.3014919590205,228.76846362510696,229.02096545905806,229.02096545905806,229.02096545905806,230.30172091699205,230.30172091699205,230.30172091699205,230.30172091699205,231.3010578751564,200004,002,2023-03-31_10h48.56.598,DMS_et_12-36,2022.2.4,None,
21,PRED,12,0.7194223484910389,1,images/picture_2.png,images/picture_1.png,0,"[-11.733433509789462, 11.733433509789464]",-11.733433509789462,11.733433509789464,images/picture_2.png,1,"[-11.733433509789466, -11.733433509789462]",-11.733433509789464,-11.733433509789462,images/picture_3.png,2,"[11.733433509789464, 11.733433509789462]",11.733433509789464,11.733433509789462,0,1,1,0.7194223484910389,1.719422348491039,1.2805776515089609,3.0,1,1.469422348491039,0,4.0,3.0,1,2,2,0,2,0,0,7,7,3,,,,,,,231.3010578751564,231.3010578751564,232.30173041694798,232.76847600005567,233.02098337514326,233.02098337514326,233.02098337514326,234.30152691714466,234.30152691714466,234.30152691714466,234.30152691714466,235.3008873341605,200004,002,2023-03-31_10h48.56.598,DMS_et_12-36,2022.2.4,None,
18,PRED,12,0.7194223484910389,1,images/picture_2.png,images/picture_1.png,0,"[11.733433509789462, -11.733433509789466]",11.733433509789462,-11.733433509789464,images/picture_2.png,1,"[-11.733433509789466, -11.733433509789462]",-11.733433509789464,-11.733433509789462,images/picture_3.png,2,"[11.733433509789464, 11.733433509789462]",11.733433509789464,11.733433509789462,0,1,1,0.7194223484910389,1.719422348491039,1.2805776515089609,3.0,1,1.469422348491039,0,4.0,3.0,1,2,2,0,2,0,0,8,8,0,,,,,,,235.3008873341605,235.3008873341605,236.30150337517262,236.76818829216063,237.0205790840555,237.0205790840555,237.0205790840555,238.30124929198064,238.30124929198064,238.30124929198064,238.30124929198064,239.3247202921193,200004,002,2023-03-31_10h48.56.598,DMS_et_12-36,2022.2.4,None,
,,,,,,,,,,,,,,,,,,,,,,,,,,,,,,,,,,,2,0,2,0,,,,,,,,,239.3247202921193,251.353387667099,,,,,,,,,,,,,200004,002,2023-03-31_10h48.56.598,DMS_et_12-36,2022.2.4,None,
33,UNPRED,12,0.7194223484910389,0,images/picture_1.png,images/picture_1.png,0,"[-11.733433509789466, -11.733433509789462]",-11.733433509789464,-11.733433509789462,images/picture_2.png,1,"[11.733433509789464, 11.733433509789462]",11.733433509789464,11.733433509789462,images/picture_3.png,2,"[11.733433509789462, -11.733433509789466]",11.733433509789462,-11.733433509789464,0,1,1,0.7194223484910389,1.719422348491039,1.2805776515089609,3.0,1,1.469422348491039,0,4.0,3.0,1,2,3,0,3,0,0,0,0,6,,,,,,,251.353387667099,251.353387667099,252.3680757919792,252.83474816707894,253.0680585000664,253.0680585000664,253.0680585000664,254.35402437509038,254.35402437509038,254.35402437509038,254.35402437509038,255.3680029590614,200004,002,2023-03-31_10h48.56.598,DMS_et_12-36,2022.2.4,None,
34,UNPRED,12,0.7194223484910389,1,images/picture_2.png,images/picture_1.png,0,"[-11.733433509789462, 11.733433509789464]",-11.733433509789462,11.733433509789464,images/picture_2.png,1,"[-11.733433509789466, -11.733433509789462]",-11.733433509789464,-11.733433509789462,images/picture_3.png,2,"[11.733433509789462, -11.733433509789466]",11.733433509789462,-11.733433509789464,0,1,1,0.7194223484910389,1.719422348491039,1.2805776515089609,3.0,1,1.469422348491039,0,4.0,3.0,1,2,3,0,3,0,0,1,1,7,,,,,,,255.3680029590614,255.3680029590614,256.3682027501054,256.83478033402935,257.0876449169591,257.0876449169591,257.0876449169591,258.3678372921422,258.3678372921422,258.3678372921422,258.3678372921422,259.38700162502937,200004,002,2023-03-31_10h48.56.598,DMS_et_12-36,2022.2.4,None,
28,UNPRED,12,0.7194223484910389,2,images/picture_3.png,images/picture_1.png,0,"[11.733433509789462, -11.733433509789466]",11.733433509789462,-11.733433509789464,images/picture_2.png,1,"[-11.733433509789466, -11.733433509789462]",-11.733433509789464,-11.733433509789462,images/picture_3.png,2,"[11.733433509789464, 11.733433509789462]",11.733433509789464,11.733433509789462,0,1,1,0.7194223484910389,1.719422348491039,1.2805776515089609,3.0,1,1.469422348491039,0,4.0,3.0,1,2,3,0,3,0,0,2,2,1,,,,,,,259.38700162502937,259.38700162502937,260.4015291670803,260.8682049589697,261.0873582500499,261.0873582500499,261.0873582500499,262.36822845903225,262.36822845903225,262.36822845903225,262.36822845903225,263.3677420001477,200004,002,2023-03-31_10h48.56.598,DMS_et_12-36,2022.2.4,None,
35,UNPRED,12,0.7194223484910389,0,images/picture_1.png,images/picture_1.png,0,"[11.733433509789462, -11.733433509789466]",11.733433509789462,-11.733433509789464,images/picture_2.png,1,"[-11.733433509789462, 11.733433509789464]",-11.733433509789462,11.733433509789464,images/picture_3.png,2,"[-11.733433509789466, -11.733433509789462]",-11.733433509789464,-11.733433509789462,0,1,1,0.7194223484910389,1.719422348491039,1.2805776515089609,3.0,1,1.469422348491039,0,4.0,3.0,1,2,3,0,3,0,0,3,3,8,,,,,,,263.3677420001477,263.3677420001477,264.3682065841276,264.83500554203056,265.0872997089755,265.0872997089755,265.0872997089755,266.3680203340482,266.3680203340482,266.3680203340482,266.3680203340482,267.3867581251543,200004,002,2023-03-31_10h48.56.598,DMS_et_12-36,2022.2.4,None,
27,UNPRED,12,0.7194223484910389,2,images/picture_3.png,images/picture_1.png,0,"[11.733433509789462, -11.733433509789466]",11.733433509789462,-11.733433509789464,images/picture_2.png,1,"[11.733433509789464, 11.733433509789462]",11.733433509789464,11.733433509789462,images/picture_3.png,2,"[-11.733433509789466, -11.733433509789462]",-11.733433509789464,-11.733433509789462,0,1,1,0.7194223484910389,1.719422348491039,1.2805776515089609,3.0,1,1.469422348491039,0,4.0,3.0,1,2,3,0,3,0,0,4,4,0,,,,,,,267.3867581251543,267.3867581251543,268.40114304213785,268.86792808398604,269.086740875151,269.086740875151,269.086740875151,270.36825100006536,270.36825100006536,270.36825100006536,270.36825100006536,271.3678943749983,200004,002,2023-03-31_10h48.56.598,DMS_et_12-36,2022.2.4,None,
31,UNPRED,12,0.7194223484910389,1,images/picture_2.png,images/picture_1.png,0,"[-11.733433509789466, -11.733433509789462]",-11.733433509789464,-11.733433509789462,images/picture_2.png,1,"[11.733433509789464, 11.733433509789462]",11.733433509789464,11.733433509789462,images/picture_3.png,2,"[11.733433509789462, -11.733433509789466]",11.733433509789462,-11.733433509789464,0,1,1,0.7194223484910389,1.719422348491039,1.2805776515089609,3.0,1,1.469422348491039,0,4.0,3.0,1,2,3,0,3,0,0,5,5,4,,,,,,,271.3678943749983,271.3678943749983,272.3680510001723,272.8347417921759,273.0874105419498,273.0874105419498,273.0874105419498,274.3682165001519,274.3682165001519,274.3682165001519,274.3682165001519,275.3676326670684,200004,002,2023-03-31_10h48.56.598,DMS_et_12-36,2022.2.4,None,
32,UNPRED,12,0.7194223484910389,1,images/picture_2.png,images/picture_1.png,0,"[-11.733433509789466, -11.733433509789462]",-11.733433509789464,-11.733433509789462,images/picture_2.png,1,"[11.733433509789464, 11.733433509789462]",11.733433509789464,11.733433509789462,images/picture_3.png,2,"[11.733433509789462, -11.733433509789466]",11.733433509789462,-11.733433509789464,0,1,1,0.7194223484910389,1.719422348491039,1.2805776515089609,3.0,1,1.469422348491039,0,4.0,3.0,1,2,3,0,3,0,0,6,6,5,,,,,,,275.3676326670684,275.3676326670684,276.3682421250269,276.8347805000376,277.0877267920878,277.0877267920878,277.0877267920878,278.36812887503766,278.36812887503766,278.36812887503766,278.36812887503766,279.36778450012207,200004,002,2023-03-31_10h48.56.598,DMS_et_12-36,2022.2.4,None,
30,UNPRED,12,0.7194223484910389,0,images/picture_1.png,images/picture_1.png,0,"[11.733433509789462, -11.733433509789466]",11.733433509789462,-11.733433509789464,images/picture_2.png,1,"[11.733433509789464, 11.733433509789462]",11.733433509789464,11.733433509789462,images/picture_3.png,2,"[-11.733433509789466, -11.733433509789462]",-11.733433509789464,-11.733433509789462,0,1,1,0.7194223484910389,1.719422348491039,1.2805776515089609,3.0,1,1.469422348491039,0,4.0,3.0,1,2,3,0,3,0,0,7,7,3,,,,,,,279.36778450012207,279.36778450012207,280.3680058340542,280.8347819170449,281.08755808416754,281.08755808416754,281.08755808416754,282.3682056250982,282.3682056250982,282.3682056250982,282.3682056250982,283.3677499589976,200004,002,2023-03-31_10h48.56.598,DMS_et_12-36,2022.2.4,None,
29,UNPRED,12,0.7194223484910389,0,images/picture_1.png,images/picture_1.png,0,"[-11.733433509789466, -11.733433509789462]",-11.733433509789464,-11.733433509789462,images/picture_2.png,1,"[-11.733433509789462, 11.733433509789464]",-11.733433509789462,11.733433509789464,images/picture_3.png,2,"[11.733433509789464, 11.733433509789462]",11.733433509789464,11.733433509789462,0,1,1,0.7194223484910389,1.719422348491039,1.2805776515089609,3.0,1,1.469422348491039,0,4.0,3.0,1,2,3,0,3,0,0,8,8,2,,,,,,,283.3677499589976,283.3677499589976,284.36828041705303,284.8349195001647,285.0872907920275,285.0872907920275,285.0872907920275,286.368234584108,286.368234584108,286.368234584108,286.368234584108,287.41910866694525,200004,002,2023-03-31_10h48.56.598,DMS_et_12-36,2022.2.4,None,
,,,,,,,,,,,,,,,,,,,,,,,,,,,,,,,,,,,3,0,3,0,,,,,,,,,287.41910866694525,299.45338166714646,,,,,,,,,,,,,200004,002,2023-03-31_10h48.56.598,DMS_et_12-36,2022.2.4,None,
44,PRED,12,0.7194223484910389,0,images/picture_1.png,images/picture_1.png,0,"[-11.733433509789462, 11.733433509789464]",-11.733433509789462,11.733433509789464,images/picture_2.png,1,"[11.733433509789464, 11.733433509789462]",11.733433509789464,11.733433509789462,images/picture_3.png,2,"[11.733433509789462, -11.733433509789466]",11.733433509789462,-11.733433509789464,0,1,1,0.7194223484910389,1.719422348491039,1.2805776515089609,3.0,1,1.469422348491039,0,4.0,3.0,1,2,4,0,4,0,0,0,0,8,,,,,,,299.45338166714646,299.45338166714646,300.4683458341751,300.9349722091574,301.15419558412395,301.15419558412395,301.15419558412395,302.43479437497444,302.43479437497444,302.43479437497444,302.43479437497444,303.4343083749991,200004,002,2023-03-31_10h48.56.598,DMS_et_12-36,2022.2.4,None,
38,PRED,12,0.7194223484910389,0,images/picture_1.png,images/picture_1.png,0,"[-11.733433509789466, -11.733433509789462]",-11.733433509789464,-11.733433509789462,images/picture_2.png,1,"[-11.733433509789462, 11.733433509789464]",-11.733433509789462,11.733433509789464,images/picture_3.png,2,"[11.733433509789464, 11.733433509789462]",11.733433509789464,11.733433509789462,0,1,1,0.7194223484910389,1.719422348491039,1.2805776515089609,3.0,1,1.469422348491039,0,4.0,3.0,1,2,4,0,4,0,0,1,1,2,,,,,,,303.4343083749991,303.4343083749991,304.43497520894744,304.901599542005,305.15402512508444,305.15402512508444,305.15402512508444,306.43494183407165,306.43494183407165,306.43494183407165,306.43494183407165,307.43464820901863,200004,002,2023-03-31_10h48.56.598,DMS_et_12-36,2022.2.4,None,
40,PRED,12,0.7194223484910389,0,images/picture_1.png,images/picture_1.png,0,"[-11.733433509789466, -11.733433509789462]",-11.733433509789464,-11.733433509789462,images/picture_2.png,1,"[-11.733433509789462, 11.733433509789464]",-11.733433509789462,11.733433509789464,images/picture_3.png,2,"[11.733433509789462, -11.733433509789466]",11.733433509789462,-11.733433509789464,0,1,1,0.7194223484910389,1.719422348491039,1.2805776515089609,3.0,1,1.469422348491039,0,4.0,3.0,1,2,4,0,4,0,0,2,2,4,,,,,,,307.43464820901863,307.43464820901863,308.43491425015964,308.90149933402427,309.1537892499473,309.1537892499473,309.1537892499473,310.4349492499605,310.4349492499605,310.4349492499605,310.4349492499605,311.43423687503673,200004,002,2023-03-31_10h48.56.598,DMS_et_12-36,2022.2.4,None,
41,PRED,12,0.7194223484910389,0,images/picture_1.png,images/picture_1.png,0,"[11.733433509789462, -11.733433509789466]",11.733433509789462,-11.733433509789464,images/picture_2.png,1,"[-11.733433509789466, -11.733433509789462]",-11.733433509789464,-11.733433509789462,images/picture_3.png,2,"[-11.733433509789462, 11.733433509789464]",-11.733433509789462,11.733433509789464,0,1,1,0.7194223484910389,1.719422348491039,1.2805776515089609,3.0,1,1.469422348491039,0,4.0,3.0,1,2,4,0,4,0,0,3,3,5,,,,,,,311.43423687503673,311.43423687503673,312.43495687516406,312.9015055000782,313.15440045902506,313.15440045902506,313.15440045902506,314.4348749171477,314.4348749171477,314.4348749171477,314.4348749171477,315.43451495910995,200004,002,2023-03-31_10h48.56.598,DMS_et_12-36,2022.2.4,None,
39,PRED,12,0.7194223484910389,0,images/picture_1.png,images/picture_1.png,0,"[-11.733433509789466, -11.733433509789462]",-11.733433509789464,-11.733433509789462,images/picture_2.png,1,"[11.733433509789464, 11.733433509789462]",11.733433509789464,11.733433509789462,images/picture_3.png,2,"[11.733433509789462, -11.733433509789466]",11.733433509789462,-11.733433509789464,0,1,1,0.7194223484910389,1.719422348491039,1.2805776515089609,3.0,1,1.469422348491039,0,4.0,3.0,1,2,4,0,4,0,0,4,4,3,,,,,,,315.43451495910995,315.43451495910995,316.4349159169942,316.90148404217325,317.15413995902054,317.15413995902054,317.15413995902054,318.43492741696537,318.43492741696537,318.43492741696537,318.43492741696537,319.4345059171319,200004,002,2023-03-31_10h48.56.598,DMS_et_12-36,2022.2.4,None,
43,PRED,12,0.7194223484910389,0,images/picture_1.png,images/picture_1.png,0,"[11.733433509789462, -11.733433509789466]",11.733433509789462,-11.733433509789464,images/picture_2.png,1,"[-11.733433509789462, 11.733433509789464]",-11.733433509789462,11.733433509789464,images/picture_3.png,2,"[11.733433509789464, 11.733433509789462]",11.733433509789464,11.733433509789462,0,1,1,0.7194223484910389,1.719422348491039,1.2805776515089609,3.0,1,1.469422348491039,0,4.0,3.0,1,2,4,0,4,0,0,5,5,7,,,,,,,319.4345059171319,319.4345059171319,320.43482141708955,320.9015405001119,321.15412395913154,321.15412395913154,321.15412395913154,322.4350079591386,322.4350079591386,322.4350079591386,322.4350079591386,323.43432079209015,200004,002,2023-03-31_10h48.56.598,DMS_et_12-36,2022.2.4,None,
36,PRED,12,0.7194223484910389,0,images/picture_1.png,images/picture_1.png,0,"[11.733433509789464, 11.733433509789462]",11.733433509789464,11.733433509789462,images/picture_2.png,1,"[-11.733433509789466, -11.733433509789462]",-11.733433509789464,-11.733433509789462,images/picture_3.png,2,"[11.733433509789462, -11.733433509789466]",11.733433509789462,-11.733433509789464,0,1,1,0.7194223484910389,1.719422348491039,1.2805776515089609,3.0,1,1.469422348491039,0,4.0,3.0,1,2,4,0,4,0,0,6,6,0,,,,,,,323.43432079209015,323.43432079209015,324.4349838751368,324.9015081250109,325.1540902501438,325.1540902501438,325.1540902501438,326.43482670909725,326.43482670909725,326.43482670909725,326.43482670909725,327.4346212090459,200004,002,2023-03-31_10h48.56.598,DMS_et_12-36,2022.2.4,None,
42,PRED,12,0.7194223484910389,0,images/picture_1.png,images/picture_1.png,0,"[-11.733433509789462, 11.733433509789464]",-11.733433509789462,11.733433509789464,images/picture_2.png,1,"[11.733433509789462, -11.733433509789466]",11.733433509789462,-11.733433509789464,images/picture_3.png,2,"[11.733433509789464, 11.733433509789462]",11.733433509789464,11.733433509789462,0,1,1,0.7194223484910389,1.719422348491039,1.2805776515089609,3.0,1,1.469422348491039,0,4.0,3.0,1,2,4,0,4,0,0,7,7,6,,,,,,,327.4346212090459,327.4346212090459,328.4349676249549,328.90149108413607,329.15429162513465,329.15429162513465,329.15429162513465,330.4346807501279,330.4346807501279,330.4346807501279,330.4346807501279,331.4343516670633,200004,002,2023-03-31_10h48.56.598,DMS_et_12-36,2022.2.4,None,
37,PRED,12,0.7194223484910389,0,images/picture_1.png,images/picture_1.png,0,"[-11.733433509789462, 11.733433509789464]",-11.733433509789462,11.733433509789464,images/picture_2.png,1,"[-11.733433509789466, -11.733433509789462]",-11.733433509789464,-11.733433509789462,images/picture_3.png,2,"[11.733433509789462, -11.733433509789466]",11.733433509789462,-11.733433509789464,0,1,1,0.7194223484910389,1.719422348491039,1.2805776515089609,3.0,1,1.469422348491039,0,4.0,3.0,1,2,4,0,4,0,0,8,8,1,,,,,,,331.4343516670633,331.4343516670633,332.4349661250599,332.90151629201137,333.154101958964,333.154101958964,333.154101958964,334.4349576670211,334.4349576670211,334.4349576670211,334.4349576670211,335.50623404211365,200004,002,2023-03-31_10h48.56.598,DMS_et_12-36,2022.2.4,None,
,,,,,,,,,,,,,,,,,,,,,,,,,,,,,,,,,,,4,0,4,0,,,,,,,,,335.50623404211365,347.5441227501724,,,,,,,,,,,,,200004,002,2023-03-31_10h48.56.598,DMS_et_12-36,2022.2.4,None,
51,UNPRED,12,0.7194223484910389,2,images/picture_3.png,images/picture_1.png,0,"[-11.733433509789466, -11.733433509789462]",-11.733433509789464,-11.733433509789462,images/picture_2.png,1,"[11.733433509789462, -11.733433509789466]",11.733433509789462,-11.733433509789464,images/picture_3.png,2,"[11.733433509789464, 11.733433509789462]",11.733433509789464,11.733433509789462,0,1,1,0.7194223484910389,1.719422348491039,1.2805776515089609,3.0,1,1.469422348491039,0,4.0,3.0,1,2,5,0,5,0,0,0,0,6,,,,,,,347.5441227501724,347.5441227501724,348.55443679215387,349.02072145906277,349.25442266697064,349.25442266697064,349.25442266697064,350.5345442921389,350.5345442921389,350.5345442921389,350.5345442921389,351.5536402920261,200004,002,2023-03-31_10h48.56.598,DMS_et_12-36,2022.2.4,None,
48,UNPRED,12,0.7194223484910389,2,images/picture_3.png,images/picture_1.png,0,"[-11.733433509789462, 11.733433509789464]",-11.733433509789462,11.733433509789464,images/picture_2.png,1,"[11.733433509789462, -11.733433509789466]",11.733433509789462,-11.733433509789464,images/picture_3.png,2,"[-11.733433509789466, -11.733433509789462]",-11.733433509789464,-11.733433509789462,0,1,1,0.7194223484910389,1.719422348491039,1.2805776515089609,3.0,1,1.469422348491039,0,4.0,3.0,1,2,5,0,5,0,0,1,1,3,,,,,,,351.5536402920261,351.5536402920261,352.56821620906703,353.03499158401974,353.25407445896417,353.25407445896417,353.25407445896417,354.5349837921094,354.5349837921094,354.5349837921094,354.5349837921094,355.53559070895426,200004,002,2023-03-31_10h48.56.598,DMS_et_12-36,2022.2.4,None,
52,UNPRED,12,0.7194223484910389,1,images/picture_2.png,images/picture_1.png,0,"[11.733433509789462, -11.733433509789466]",11.733433509789462,-11.733433509789464,images/picture_2.png,1,"[11.733433509789464, 11.733433509789462]",11.733433509789464,11.733433509789462,images/picture_3.png,2,"[-11.733433509789466, -11.733433509789462]",-11.733433509789464,-11.733433509789462,0,1,1,0.7194223484910389,1.719422348491039,1.2805776515089609,3.0,1,1.469422348491039,0,4.0,3.0,1,2,5,0,5,0,0,2,2,7,,,,,,,355.53559070895426,355.53559070895426,356.53497950010933,357.00168841704726,357.25405800016597,357.25405800016597,357.25405800016597,358.5350396251306,358.5350396251306,358.5350396251306,358.5350396251306,359.5343823749572,200004,002,2023-03-31_10h48.56.598,DMS_et_12-36,2022.2.4,None,
47,UNPRED,12,0.7194223484910389,1,images/picture_2.png,images/picture_1.png,0,"[-11.733433509789466, -11.733433509789462]",-11.733433509789464,-11.733433509789462,images/picture_2.png,1,"[11.733433509789464, 11.733433509789462]",11.733433509789464,11.733433509789462,images/picture_3.png,2,"[11.733433509789462, -11.733433509789466]",11.733433509789462,-11.733433509789464,0,1,1,0.7194223484910389,1.719422348491039,1.2805776515089609,3.0,1,1.469422348491039,0,4.0,3.0,1,2,5,0,5,0,0,3,3,2,,,,,,,359.5343823749572,359.5343823749572,360.5346439590212,361.00131062511355,361.25350537500344,361.25350537500344,361.25350537500344,362.5349994171411,362.5349994171411,362.5349994171411,362.5349994171411,363.55367891700007,200004,002,2023-03-31_10h48.56.598,DMS_et_12-36,2022.2.4,None,
49,UNPRED,12,0.7194223484910389,2,images/picture_3.png,images/picture_1.png,0,"[-11.733433509789462, 11.733433509789464]",-11.733433509789462,11.733433509789464,images/picture_2.png,1,"[-11.733433509789466, -11.733433509789462]",-11.733433509789464,-11.733433509789462,images/picture_3.png,2,"[11.733433509789462, -11.733433509789466]",11.733433509789462,-11.733433509789464,0,1,1,0.7194223484910389,1.719422348491039,1.2805776515089609,3.0,1,1.469422348491039,0,4.0,3.0,1,2,5,0,5,0,0,4,4,4,,,,,,,363.55367891700007,363.55367891700007,364.5681878339965,365.03493850002997,365.25410391716287,365.25410391716287,365.25410391716287,366.53507845895365,366.53507845895365,366.53507845895365,366.53507845895365,367.53523329203017,200004,002,2023-03-31_10h48.56.598,DMS_et_12-36,2022.2.4,None,
45,UNPRED,12,0.7194223484910389,1,images/picture_2.png,images/picture_1.png,0,"[-11.733433509789466, -11.733433509789462]",-11.733433509789464,-11.733433509789462,images/picture_2.png,1,"[11.733433509789462, -11.733433509789466]",11.733433509789462,-11.733433509789464,images/picture_3.png,2,"[11.733433509789464, 11.733433509789462]",11.733433509789464,11.733433509789462,0,1,1,0.7194223484910389,1.719422348491039,1.2805776515089609,3.0,1,1.469422348491039,0,4.0,3.0,1,2,5,0,5,0,0,5,5,0,,,,,,,367.53523329203017,367.53523329203017,368.534917042125,369.00174304214306,369.25434554205276,369.25434554205276,369.25434554205276,370.5347320421133,370.5347320421133,370.5347320421133,370.5347320421133,371.5345746250823,200004,002,2023-03-31_10h48.56.598,DMS_et_12-36,2022.2.4,None,
50,UNPRED,12,0.7194223484910389,1,images/picture_2.png,images/picture_1.png,0,"[11.733433509789462, -11.733433509789466]",11.733433509789462,-11.733433509789464,images/picture_2.png,1,"[11.733433509789464, 11.733433509789462]",11.733433509789464,11.733433509789462,images/picture_3.png,2,"[-11.733433509789462, 11.733433509789464]",-11.733433509789462,11.733433509789464,0,1,1,0.7194223484910389,1.719422348491039,1.2805776515089609,3.0,1,1.469422348491039,0,4.0,3.0,1,2,5,0,5,0,0,6,6,5,,,,,,,371.5345746250823,371.5345746250823,372.5349351670593,373.0015156250447,373.2541152089834,373.2541152089834,373.2541152089834,374.5350195420906,374.5350195420906,374.5350195420906,374.5350195420906,375.5537271250505,200004,002,2023-03-31_10h48.56.598,DMS_et_12-36,2022.2.4,None,
53,UNPRED,12,0.7194223484910389,2,images/picture_3.png,images/picture_1.png,0,"[-11.733433509789466, -11.733433509789462]",-11.733433509789464,-11.733433509789462,images/picture_2.png,1,"[-11.733433509789462, 11.733433509789464]",-11.733433509789462,11.733433509789464,images/picture_3.png,2,"[11.733433509789464, 11.733433509789462]",11.733433509789464,11.733433509789462,0,1,1,0.7194223484910389,1.719422348491039,1.2805776515089609,3.0,1,1.469422348491039,0,4.0,3.0,1,2,5,0,5,0,0,7,7,8,,,,,,,375.5537271250505,375.5537271250505,376.5683345000725,377.0349805841688,377.25428387499414,377.25428387499414,377.25428387499414,378.5350101250224,378.5350101250224,378.5350101250224,378.5350101250224,379.5339032090269,200004,002,2023-03-31_10h48.56.598,DMS_et_12-36,2022.2.4,None,
46,UNPRED,12,0.7194223484910389,0,images/picture_1.png,images/picture_1.png,0,"[11.733433509789462, -11.733433509789466]",11.733433509789462,-11.733433509789464,images/picture_2.png,1,"[11.733433509789464, 11.733433509789462]",11.733433509789464,11.733433509789462,images/picture_3.png,2,"[-11.733433509789466, -11.733433509789462]",-11.733433509789464,-11.733433509789462,0,1,1,0.7194223484910389,1.719422348491039,1.2805776515089609,3.0,1,1.469422348491039,0,4.0,3.0,1,2,5,0,5,0,0,8,8,1,,,,,,,379.5339032090269,379.5339032090269,380.5349712499883,381.0012517920695,381.25344241713174,381.25344241713174,381.25344241713174,382.53494954202324,382.53494954202324,382.53494954202324,382.53494954202324,383.6525615840219,200004,002,2023-03-31_10h48.56.598,DMS_et_12-36,2022.2.4,None,
,,,,,,,,,,,,,,,,,,,,,,,,,,,,,,,,,,,5,0,5,0,,,,,,,,,383.6525615840219,395.6806030420121,,,,,,,,,,,,,200004,002,2023-03-31_10h48.56.598,DMS_et_12-36,2022.2.4,None,
57,PRED,12,0.7194223484910389,2,images/picture_3.png,images/picture_1.png,0,"[11.733433509789462, -11.733433509789466]",11.733433509789462,-11.733433509789464,images/picture_2.png,1,"[11.733433509789464, 11.733433509789462]",11.733433509789464,11.733433509789462,images/picture_3.png,2,"[-11.733433509789466, -11.733433509789462]",-11.733433509789464,-11.733433509789462,0,1,1,0.7194223484910389,1.719422348491039,1.2805776515089609,3.0,1,1.469422348491039,0,4.0,3.0,1,2,6,0,6,0,0,0,0,3,,,,,,,395.6806030420121,395.6806030420121,396.6875603750814,397.1548835420981,397.3879308339674,397.3879308339674,397.3879308339674,398.6680852500722,398.6680852500722,398.6680852500722,398.6680852500722,399.6878549591638,200004,002,2023-03-31_10h48.56.598,DMS_et_12-36,2022.2.4,None,
59,PRED,12,0.7194223484910389,2,images/picture_3.png,images/picture_1.png,0,"[11.733433509789464, 11.733433509789462]",11.733433509789464,11.733433509789462,images/picture_2.png,1,"[-11.733433509789462, 11.733433509789464]",-11.733433509789462,11.733433509789464,images/picture_3.png,2,"[-11.733433509789466, -11.733433509789462]",-11.733433509789464,-11.733433509789462,0,1,1,0.7194223484910389,1.719422348491039,1.2805776515089609,3.0,1,1.469422348491039,0,4.0,3.0,1,2,6,0,6,0,0,1,1,5,,,,,,,399.6878549591638,399.6878549591638,400.7016814169474,401.1683849170804,401.38698487496004,401.38698487496004,401.38698487496004,402.6683536670171,402.6683536670171,402.6683536670171,402.6683536670171,403.6872066250071,200004,002,2023-03-31_10h48.56.598,DMS_et_12-36,2022.2.4,None,
58,PRED,12,0.7194223484910389,2,images/picture_3.png,images/picture_1.png,0,"[-11.733433509789466, -11.733433509789462]",-11.733433509789464,-11.733433509789462,images/picture_2.png,1,"[-11.733433509789462, 11.733433509789464]",-11.733433509789462,11.733433509789464,images/picture_3.png,2,"[11.733433509789464, 11.733433509789462]",11.733433509789464,11.733433509789462,0,1,1,0.7194223484910389,1.719422348491039,1.2805776515089609,3.0,1,1.469422348491039,0,4.0,3.0,1,2,6,0,6,0,0,2,2,4,,,,,,,403.6872066250071,403.6872066250071,404.7017186251469,405.1681133750826,405.38762445910834,405.38762445910834,405.38762445910834,406.66814291710034,406.66814291710034,406.66814291710034,406.66814291710034,407.68711775005795,200004,002,2023-03-31_10h48.56.598,DMS_et_12-36,2022.2.4,None,
60,PRED,12,0.7194223484910389,2,images/picture_3.png,images/picture_1.png,0,"[-11.733433509789466, -11.733433509789462]",-11.733433509789464,-11.733433509789462,images/picture_2.png,1,"[-11.733433509789462, 11.733433509789464]",-11.733433509789462,11.733433509789464,images/picture_3.png,2,"[11.733433509789462, -11.733433509789466]",11.733433509789462,-11.733433509789464,0,1,1,0.7194223484910389,1.719422348491039,1.2805776515089609,3.0,1,1.469422348491039,0,4.0,3.0,1,2,6,0,6,0,0,3,3,6,,,,,,,407.68711775005795,407.68711775005795,408.7015520420391,409.1682777921669,409.38776016701013,409.38776016701013,409.38776016701013,410.66846704203635,410.66846704203635,410.66846704203635,410.66846704203635,411.66879979195073,200004,002,2023-03-31_10h48.56.598,DMS_et_12-36,2022.2.4,None,
56,PRED,12,0.7194223484910389,2,images/picture_3.png,images/picture_1.png,0,"[11.733433509789462, -11.733433509789466]",11.733433509789462,-11.733433509789464,images/picture_2.png,1,"[-11.733433509789462, 11.733433509789464]",-11.733433509789462,11.733433509789464,images/picture_3.png,2,"[-11.733433509789466, -11.733433509789462]",-11.733433509789464,-11.733433509789462,0,1,1,0.7194223484910389,1.719422348491039,1.2805776515089609,3.0,1,1.469422348491039,0,4.0,3.0,1,2,6,0,6,0,0,4,4,2,,,,,,,411.66879979195073,411.66879979195073,412.6682849591598,413.13505616714247,413.3875190420076,413.3875190420076,413.3875190420076,414.6683423749637,414.6683423749637,414.6683423749637,414.6683423749637,415.68717570905574,200004,002,2023-03-31_10h48.56.598,DMS_et_12-36,2022.2.4,None,
54,PRED,12,0.7194223484910389,2,images/picture_3.png,images/picture_1.png,0,"[11.733433509789464, 11.733433509789462]",11.733433509789464,11.733433509789462,images/picture_2.png,1,"[-11.733433509789462, 11.733433509789464]",-11.733433509789462,11.733433509789464,images/picture_3.png,2,"[11.733433509789462, -11.733433509789466]",11.733433509789462,-11.733433509789464,0,1,1,0.7194223484910389,1.719422348491039,1.2805776515089609,3.0,1,1.469422348491039,0,4.0,3.0,1,2,6,0,6,0,0,5,5,0,,,,,,,415.68717570905574,415.68717570905574,416.7017587090377,417.1681622089818,417.3875202089548,417.3875202089548,417.3875202089548,418.66831829212606,418.66831829212606,418.66831829212606,418.66831829212606,419.6879979169462,200004,002,2023-03-31_10h48.56.598,DMS_et_12-36,2022.2.4,None,
61,PRED,12,0.7194223484910389,2,images/picture_3.png,images/picture_1.png,0,"[-11.733433509789462, 11.733433509789464]",-11.733433509789462,11.733433509789464,images/picture_2.png,1,"[11.733433509789464, 11.733433509789462]",11.733433509789464,11.733433509789462,images/picture_3.png,2,"[11.733433509789462, -11.733433509789466]",11.733433509789462,-11.733433509789464,0,1,1,0.7194223484910389,1.719422348491039,1.2805776515089609,3.0,1,1.469422348491039,0,4.0,3.0,1,2,6,0,6,0,0,6,6,7,,,,,,,419.6879979169462,419.6879979169462,420.7016886670608,421.168270583963,421.38767529209144,421.38767529209144,421.38767529209144,422.6680830421392,422.6680830421392,422.6680830421392,422.6680830421392,423.6871941671707,200004,002,2023-03-31_10h48.56.598,DMS_et_12-36,2022.2.4,None,
62,PRED,12,0.7194223484910389,2,images/picture_3.png,images/picture_1.png,0,"[11.733433509789462, -11.733433509789466]",11.733433509789462,-11.733433509789464,images/picture_2.png,1,"[-11.733433509789462, 11.733433509789464]",-11.733433509789462,11.733433509789464,images/picture_3.png,2,"[11.733433509789464, 11.733433509789462]",11.733433509789464,11.733433509789462,0,1,1,0.7194223484910389,1.719422348491039,1.2805776515089609,3.0,1,1.469422348491039,0,4.0,3.0,1,2,6,0,6,0,0,7,7,8,,,,,,,423.6871941671707,423.6871941671707,424.7014086251147,425.1682831251528,425.38855662499554,425.38855662499554,425.38855662499554,426.66831029206514,426.66831029206514,426.66831029206514,426.66831029206514,427.68691233405843,200004,002,2023-03-31_10h48.56.598,DMS_et_12-36,2022.2.4,None,
55,PRED,12,0.7194223484910389,2,images/picture_3.png,images/picture_1.png,0,"[-11.733433509789462, 11.733433509789464]",-11.733433509789462,11.733433509789464,images/picture_2.png,1,"[-11.733433509789466, -11.733433509789462]",-11.733433509789464,-11.733433509789462,images/picture_3.png,2,"[11.733433509789464, 11.733433509789462]",11.733433509789464,11.733433509789462,0,1,1,0.7194223484910389,1.719422348491039,1.2805776515089609,3.0,1,1.469422348491039,0,4.0,3.0,1,2,6,0,6,0,0,8,8,1,,,,,,,427.68691233405843,427.68691233405843,428.7018422090914,429.1681669589598,429.3878439590335,429.3878439590335,429.3878439590335,430.66810624999925,430.66810624999925,430.66810624999925,430.66810624999925,431.75534699996933,200004,002,2023-03-31_10h48.56.598,DMS_et_12-36,2022.2.4,None,
,,,,,,,,,,,,,,,,,,,,,,,,,,,,,,,,,,,6,0,6,0,,,,,,,,,431.75534699996933,443.7931275840383,,,,,,,,,,,,,200004,002,2023-03-31_10h48.56.598,DMS_et_12-36,2022.2.4,None,
63,UNPRED,12,0.7194223484910389,0,images/picture_1.png,images/picture_1.png,0,"[11.733433509789462, -11.733433509789466]",11.733433509789462,-11.733433509789464,images/picture_2.png,1,"[-11.733433509789462, 11.733433509789464]",-11.733433509789462,11.733433509789464,images/picture_3.png,2,"[-11.733433509789466, -11.733433509789462]",-11.733433509789464,-11.733433509789462,0,1,1,0.7194223484910389,1.719422348491039,1.2805776515089609,3.0,1,1.469422348491039,0,4.0,3.0,1,2,7,0,7,0,0,0,0,0,,,,,,,443.7931275840383,443.7931275840383,444.8018378340639,445.26829495909624,445.50185404205695,445.50185404205695,445.50185404205695,446.787802167004,446.787802167004,446.787802167004,446.787802167004,447.8011272090953,200004,002,2023-03-31_10h48.56.598,DMS_et_12-36,2022.2.4,None,
68,UNPRED,12,0.7194223484910389,1,images/picture_2.png,images/picture_1.png,0,"[11.733433509789464, 11.733433509789462]",11.733433509789464,11.733433509789462,images/picture_2.png,1,"[-11.733433509789462, 11.733433509789464]",-11.733433509789462,11.733433509789464,images/picture_3.png,2,"[11.733433509789462, -11.733433509789466]",11.733433509789462,-11.733433509789464,0,1,1,0.7194223484910389,1.719422348491039,1.2805776515089609,3.0,1,1.469422348491039,0,4.0,3.0,1,2,7,0,7,0,0,1,1,5,,,,,,,447.8011272090953,447.8011272090953,448.80177091713995,449.2684762501158,449.52128395903856,449.52128395903856,449.52128395903856,450.80175716709346,450.80175716709346,450.80175716709346,450.80175716709346,451.8011360000819,200004,002,2023-03-31_10h48.56.598,DMS_et_12-36,2022.2.4,None,
66,UNPRED,12,0.7194223484910389,0,images/picture_1.png,images/picture_1.png,0,"[11.733433509789462, -11.733433509789466]",11.733433509789462,-11.733433509789464,images/picture_2.png,1,"[11.733433509789464, 11.733433509789462]",11.733433509789464,11.733433509789462,images/picture_3.png,2,"[-11.733433509789466, -11.733433509789462]",-11.733433509789464,-11.733433509789462,0,1,1,0.7194223484910389,1.719422348491039,1.2805776515089609,3.0,1,1.469422348491039,0,4.0,3.0,1,2,7,0,7,0,0,2,2,3,,,,,,,451.8011360000819,451.8011360000819,452.8013314171694,453.2683277921751,453.5204966249876,453.5204966249876,453.5204966249876,454.8018232921604,454.8018232921604,454.8018232921604,454.8018232921604,455.8011989169754,200004,002,2023-03-31_10h48.56.598,DMS_et_12-36,2022.2.4,None,
70,UNPRED,12,0.7194223484910389,1,images/picture_2.png,images/picture_1.png,0,"[-11.733433509789462, 11.733433509789464]",-11.733433509789462,11.733433509789464,images/picture_2.png,1,"[11.733433509789462, -11.733433509789466]",11.733433509789462,-11.733433509789464,images/picture_3.png,2,"[11.733433509789464, 11.733433509789462]",11.733433509789464,11.733433509789462,0,1,1,0.7194223484910389,1.719422348491039,1.2805776515089609,3.0,1,1.469422348491039,0,4.0,3.0,1,2,7,0,7,0,0,3,3,7,,,,,,,455.8011989169754,455.8011989169754,456.8017543340102,457.2684936670121,457.52088558417745,457.52088558417745,457.52088558417745,458.8018687921576,458.8018687921576,458.8018687921576,458.8018687921576,459.8203821249772,200004,002,2023-03-31_10h48.56.598,DMS_et_12-36,2022.2.4,None,
69,UNPRED,12,0.7194223484910389,2,images/picture_3.png,images/picture_1.png,0,"[11.733433509789464, 11.733433509789462]",11.733433509789464,11.733433509789462,images/picture_2.png,1,"[11.733433509789462, -11.733433509789466]",11.733433509789462,-11.733433509789464,images/picture_3.png,2,"[-11.733433509789466, -11.733433509789462]",-11.733433509789464,-11.733433509789462,0,1,1,0.7194223484910389,1.719422348491039,1.2805776515089609,3.0,1,1.469422348491039,0,4.0,3.0,1,2,7,0,7,0,0,4,4,6,,,,,,,459.8203821249772,459.8203821249772,460.83508466696367,461.3017587920185,461.521179625066,461.521179625066,461.521179625066,462.8015340419952,462.8015340419952,462.8015340419952,462.8015340419952,463.80141475005075,200004,002,2023-03-31_10h48.56.598,DMS_et_12-36,2022.2.4,None,
71,UNPRED,12,0.7194223484910389,0,images/picture_1.png,images/picture_1.png,0,"[11.733433509789462, -11.733433509789466]",11.733433509789462,-11.733433509789464,images/picture_2.png,1,"[11.733433509789464, 11.733433509789462]",11.733433509789464,11.733433509789462,images/picture_3.png,2,"[-11.733433509789462, 11.733433509789464]",-11.733433509789462,11.733433509789464,0,1,1,0.7194223484910389,1.719422348491039,1.2805776515089609,3.0,1,1.469422348491039,0,4.0,3.0,1,2,7,0,7,0,0,5,5,8,,,,,,,463.80141475005075,463.80141475005075,464.8017343340907,465.2685562921688,465.52102162502706,465.52102162502706,465.52102162502706,466.8016779590398,466.8016779590398,466.8016779590398,466.8016779590398,467.82087362511083,200004,002,2023-03-31_10h48.56.598,DMS_et_12-36,2022.2.4,None,
67,UNPRED,12,0.7194223484910389,2,images/picture_3.png,images/picture_1.png,0,"[11.733433509789462, -11.733433509789466]",11.733433509789462,-11.733433509789464,images/picture_2.png,1,"[-11.733433509789466, -11.733433509789462]",-11.733433509789464,-11.733433509789462,images/picture_3.png,2,"[-11.733433509789462, 11.733433509789464]",-11.733433509789462,11.733433509789464,0,1,1,0.7194223484910389,1.719422348491039,1.2805776515089609,3.0,1,1.469422348491039,0,4.0,3.0,1,2,7,0,7,0,0,6,6,4,,,,,,,467.82087362511083,467.82087362511083,468.83499583415687,469.3017281249631,469.5208659591153,469.5208659591153,469.5208659591153,470.8017434589565,470.8017434589565,470.8017434589565,470.8017434589565,471.82041466701776,200004,002,2023-03-31_10h48.56.598,DMS_et_12-36,2022.2.4,None,
65,UNPRED,12,0.7194223484910389,2,images/picture_3.png,images/picture_1.png,0,"[11.733433509789462, -11.733433509789466]",11.733433509789462,-11.733433509789464,images/picture_2.png,1,"[11.733433509789464, 11.733433509789462]",11.733433509789464,11.733433509789462,images/picture_3.png,2,"[-11.733433509789466, -11.733433509789462]",-11.733433509789464,-11.733433509789462,0,1,1,0.7194223484910389,1.719422348491039,1.2805776515089609,3.0,1,1.469422348491039,0,4.0,3.0,1,2,7,0,7,0,0,7,7,2,,,,,,,471.82041466701776,471.82041466701776,472.8350931671448,473.30146695906296,473.52089070901275,473.52089070901275,473.52089070901275,474.80173850012943,474.80173850012943,474.80173850012943,474.80173850012943,475.80122975003906,200004,002,2023-03-31_10h48.56.598,DMS_et_12-36,2022.2.4,None,
64,UNPRED,12,0.7194223484910389,0,images/picture_1.png,images/picture_1.png,0,"[-11.733433509789466, -11.733433509789462]",-11.733433509789464,-11.733433509789462,images/picture_2.png,1,"[-11.733433509789462, 11.733433509789464]",-11.733433509789462,11.733433509789464,images/picture_3.png,2,"[11.733433509789464, 11.733433509789462]",11.733433509789464,11.733433509789462,0,1,1,0.7194223484910389,1.719422348491039,1.2805776515089609,3.0,1,1.469422348491039,0,4.0,3.0,1,2,7,0,7,0,0,8,8,1,,,,,,,475.80122975003906,475.80122975003906,476.8017245840747,477.2683897919487,477.5210511251353,477.5210511251353,477.5210511251353,478.8018273341004,478.8018273341004,478.8018273341004,478.8018273341004,479.8891977921594,200004,002,2023-03-31_10h48.56.598,DMS_et_12-36,2022.2.4,None,
,,,,,,,,,,,,,,,,,,,,,,,,,,,,,,,,,,,7,0,7,0,,,,,,,,,479.8891977921594,491.93463116697967,,,,,,,,,,,,,200004,002,2023-03-31_10h48.56.598,DMS_et_12-36,2022.2.4,None,
77,PRED,12,0.7194223484910389,2,images/picture_3.png,images/picture_1.png,0,"[-11.733433509789466, -11.733433509789462]",-11.733433509789464,-11.733433509789462,images/picture_2.png,1,"[-11.733433509789462, 11.733433509789464]",-11.733433509789462,11.733433509789464,images/picture_3.png,2,"[11.733433509789464, 11.733433509789462]",11.733433509789464,11.733433509789462,0,1,1,0.7194223484910389,1.719422348491039,1.2805776515089609,3.0,1,1.469422348491039,0,4.0,3.0,1,2,8,0,8,0,0,0,0,5,,,,,,,491.93463116697967,491.93463116697967,492.93505766708404,493.4017424171325,493.6348517090082,493.6348517090082,493.6348517090082,494.9202378340997,494.9202378340997,494.9202378340997,494.9202378340997,495.953725917032,200004,002,2023-03-31_10h48.56.598,DMS_et_12-36,2022.2.4,None,
73,PRED,12,0.7194223484910389,2,images/picture_3.png,images/picture_1.png,0,"[-11.733433509789466, -11.733433509789462]",-11.733433509789464,-11.733433509789462,images/picture_2.png,1,"[11.733433509789462, -11.733433509789466]",11.733433509789462,-11.733433509789464,images/picture_3.png,2,"[11.733433509789464, 11.733433509789462]",11.733433509789464,11.733433509789462,0,1,1,0.7194223484910389,1.719422348491039,1.2805776515089609,3.0,1,1.469422348491039,0,4.0,3.0,1,2,8,0,8,0,0,1,1,1,,,,,,,495.953725917032,495.953725917032,496.9685204999987,497.43503037514165,497.6543145419564,497.6543145419564,497.6543145419564,498.9349942500703,498.9349942500703,498.9349942500703,498.9349942500703,499.95377687504515,200004,002,2023-03-31_10h48.56.598,DMS_et_12-36,2022.2.4,None,
74,PRED,12,0.7194223484910389,2,images/picture_3.png,images/picture_1.png,0,"[-11.733433509789462, 11.733433509789464]",-11.733433509789462,11.733433509789464,images/picture_2.png,1,"[-11.733433509789466, -11.733433509789462]",-11.733433509789464,-11.733433509789462,images/picture_3.png,2,"[11.733433509789464, 11.733433509789462]",11.733433509789464,11.733433509789462,0,1,1,0.7194223484910389,1.719422348491039,1.2805776515089609,3.0,1,1.469422348491039,0,4.0,3.0,1,2,8,0,8,0,0,2,2,2,,,,,,,499.95377687504515,499.95377687504515,500.9684731250163,501.435006959131,501.65452816709876,501.65452816709876,501.65452816709876,502.93519066716544,502.93519066716544,502.93519066716544,502.93519066716544,503.9348547500558,200004,002,2023-03-31_10h48.56.598,DMS_et_12-36,2022.2.4,None,
76,PRED,12,0.7194223484910389,2,images/picture_3.png,images/picture_1.png,0,"[-11.733433509789466, -11.733433509789462]",-11.733433509789464,-11.733433509789462,images/picture_2.png,1,"[11.733433509789462, -11.733433509789466]",11.733433509789462,-11.733433509789464,images/picture_3.png,2,"[11.733433509789464, 11.733433509789462]",11.733433509789464,11.733433509789462,0,1,1,0.7194223484910389,1.719422348491039,1.2805776515089609,3.0,1,1.469422348491039,0,4.0,3.0,1,2,8,0,8,0,0,3,3,4,,,,,,,503.9348547500558,503.9348547500558,504.9348457090091,505.40178566705436,505.6543749170378,505.6543749170378,505.6543749170378,506.93500420916826,506.93500420916826,506.93500420916826,506.93500420916826,507.9545452501625,200004,002,2023-03-31_10h48.56.598,DMS_et_12-36,2022.2.4,None,
80,PRED,12,0.7194223484910389,2,images/picture_3.png,images/picture_1.png,0,"[11.733433509789462, -11.733433509789466]",11.733433509789462,-11.733433509789464,images/picture_2.png,1,"[-11.733433509789462, 11.733433509789464]",-11.733433509789462,11.733433509789464,images/picture_3.png,2,"[-11.733433509789466, -11.733433509789462]",-11.733433509789464,-11.733433509789462,0,1,1,0.7194223484910389,1.719422348491039,1.2805776515089609,3.0,1,1.469422348491039,0,4.0,3.0,1,2,8,0,8,0,0,4,4,8,,,,,,,507.9545452501625,507.9545452501625,508.9684827500023,509.43500641710125,509.65416220901534,509.65416220901534,509.65416220901534,510.9352019170765,510.9352019170765,510.9352019170765,510.9352019170765,511.95370133407414,200004,002,2023-03-31_10h48.56.598,DMS_et_12-36,2022.2.4,None,
78,PRED,12,0.7194223484910389,2,images/picture_3.png,images/picture_1.png,0,"[11.733433509789464, 11.733433509789462]",11.733433509789464,11.733433509789462,images/picture_2.png,1,"[11.733433509789462, -11.733433509789466]",11.733433509789462,-11.733433509789464,images/picture_3.png,2,"[-11.733433509789462, 11.733433509789464]",-11.733433509789462,11.733433509789464,0,1,1,0.7194223484910389,1.719422348491039,1.2805776515089609,3.0,1,1.469422348491039,0,4.0,3.0,1,2,8,0,8,0,0,5,5,6,,,,,,,511.95370133407414,511.95370133407414,512.9684873749502,513.4351431250107,513.6544221669901,513.6544221669901,513.6544221669901,514.9348196671344,514.9348196671344,514.9348196671344,514.9348196671344,515.954405833967,200004,002,2023-03-31_10h48.56.598,DMS_et_12-36,2022.2.4,None,
75,PRED,12,0.7194223484910389,2,images/picture_3.png,images/picture_1.png,0,"[11.733433509789464, 11.733433509789462]",11.733433509789464,11.733433509789462,images/picture_2.png,1,"[-11.733433509789462, 11.733433509789464]",-11.733433509789462,11.733433509789464,images/picture_3.png,2,"[-11.733433509789466, -11.733433509789462]",-11.733433509789464,-11.733433509789462,0,1,1,0.7194223484910389,1.719422348491039,1.2805776515089609,3.0,1,1.469422348491039,0,4.0,3.0,1,2,8,0,8,0,0,6,6,3,,,,,,,515.954405833967,515.954405833967,516.9684991249815,517.4352020421065,517.6542341669556,517.6542341669556,517.6542341669556,518.9350269590504,518.9350269590504,518.9350269590504,518.9350269590504,519.9543235420715,200004,002,2023-03-31_10h48.56.598,DMS_et_12-36,2022.2.4,None,
72,PRED,12,0.7194223484910389,2,images/picture_3.png,images/picture_1.png,0,"[-11.733433509789462, 11.733433509789464]",-11.733433509789462,11.733433509789464,images/picture_2.png,1,"[11.733433509789462, -11.733433509789466]",11.733433509789462,-11.733433509789464,images/picture_3.png,2,"[-11.733433509789466, -11.733433509789462]",-11.733433509789464,-11.733433509789462,0,1,1,0.7194223484910389,1.719422348491039,1.2805776515089609,3.0,1,1.469422348491039,0,4.0,3.0,1,2,8,0,8,0,0,7,7,0,,,,,,,519.9543235420715,519.9543235420715,520.9684475839604,521.4351837499999,521.6543645421043,521.6543645421043,521.6543645421043,522.9351843341719,522.9351843341719,522.9351843341719,522.9351843341719,523.953739834018,200004,002,2023-03-31_10h48.56.598,DMS_et_12-36,2022.2.4,None,
79,PRED,12,0.7194223484910389,2,images/picture_3.png,images/picture_1.png,0,"[-11.733433509789466, -11.733433509789462]",-11.733433509789464,-11.733433509789462,images/picture_2.png,1,"[11.733433509789464, 11.733433509789462]",11.733433509789464,11.733433509789462,images/picture_3.png,2,"[-11.733433509789462, 11.733433509789464]",-11.733433509789462,11.733433509789464,0,1,1,0.7194223484910389,1.719422348491039,1.2805776515089609,3.0,1,1.469422348491039,0,4.0,3.0,1,2,8,0,8,0,0,8,8,7,,,,,,,523.953739834018,523.953739834018,524.9681845840532,525.4349724999629,525.6540316250175,525.6540316250175,525.6540316250175,526.934786084108,526.934786084108,526.934786084108,526.934786084108,528.0338066250551,200004,002,2023-03-31_10h48.56.598,DMS_et_12-36,2022.2.4,None,
,,,,,,,,,,,,,,,,,,,,,,,,,,,,,,,,,,,8,0,8,0,,,,,,,,,528.0338066250551,540.0596019590739,,,,,,,,,,,,,200004,002,2023-03-31_10h48.56.598,DMS_et_12-36,2022.2.4,None,
84,UNPRED,12,0.7194223484910389,0,images/picture_1.png,images/picture_1.png,0,"[11.733433509789462, -11.733433509789466]",11.733433509789462,-11.733433509789464,images/picture_2.png,1,"[-11.733433509789462, 11.733433509789464]",-11.733433509789462,11.733433509789464,images/picture_3.png,2,"[-11.733433509789466, -11.733433509789462]",-11.733433509789464,-11.733433509789462,0,1,1,0.7194223484910389,1.719422348491039,1.2805776515089609,3.0,1,1.469422348491039,0,4.0,3.0,1,2,9,0,9,0,0,0,0,3,,,,,,,540.0596019590739,540.0596019590739,541.0686456670519,541.5352493340615,541.7684799591079,541.7684799591079,541.7684799591079,543.0543767090421,543.0543767090421,543.0543767090421,543.0543767090421,544.06793233403,200004,002,2023-03-31_10h48.56.598,DMS_et_12-36,2022.2.4,None,
85,UNPRED,12,0.7194223484910389,0,images/picture_1.png,images/picture_1.png,0,"[-11.733433509789466, -11.733433509789462]",-11.733433509789464,-11.733433509789462,images/picture_2.png,1,"[11.733433509789462, -11.733433509789466]",11.733433509789462,-11.733433509789464,images/picture_3.png,2,"[11.733433509789464, 11.733433509789462]",11.733433509789464,11.733433509789462,0,1,1,0.7194223484910389,1.719422348491039,1.2805776515089609,3.0,1,1.469422348491039,0,4.0,3.0,1,2,9,0,9,0,0,1,1,4,,,,,,,544.06793233403,544.06793233403,545.0681644170545,545.5353975000326,545.787009709049,545.787009709049,545.787009709049,547.0686971249525,547.0686971249525,547.0686971249525,547.0686971249525,548.0682635421399,200004,002,2023-03-31_10h48.56.598,DMS_et_12-36,2022.2.4,None,
82,UNPRED,12,0.7194223484910389,0,images/picture_1.png,images/picture_1.png,0,"[-11.733433509789462, 11.733433509789464]",-11.733433509789462,11.733433509789464,images/picture_2.png,1,"[11.733433509789462, -11.733433509789466]",11.733433509789462,-11.733433509789464,images/picture_3.png,2,"[-11.733433509789466, -11.733433509789462]",-11.733433509789464,-11.733433509789462,0,1,1,0.7194223484910389,1.719422348491039,1.2805776515089609,3.0,1,1.469422348491039,0,4.0,3.0,1,2,9,0,9,0,0,2,2,1,,,,,,,548.0682635421399,548.0682635421399,549.0686799590476,549.5352289171424,549.7886304170825,549.7886304170825,549.7886304170825,551.068535375176,551.068535375176,551.068535375176,551.068535375176,552.0872930421028,200004,002,2023-03-31_10h48.56.598,DMS_et_12-36,2022.2.4,None,
81,UNPRED,12,0.7194223484910389,2,images/picture_3.png,images/picture_1.png,0,"[11.733433509789462, -11.733433509789466]",11.733433509789462,-11.733433509789464,images/picture_2.png,1,"[11.733433509789464, 11.733433509789462]",11.733433509789464,11.733433509789462,images/picture_3.png,2,"[-11.733433509789466, -11.733433509789462]",-11.733433509789464,-11.733433509789462,0,1,1,0.7194223484910389,1.719422348491039,1.2805776515089609,3.0,1,1.469422348491039,0,4.0,3.0,1,2,9,0,9,0,0,3,3,0,,,,,,,552.0872930421028,552.0872930421028,553.1019219590817,553.568692667177,553.7875857921317,553.7875857921317,553.7875857921317,555.0687171251047,555.0687171251047,555.0687171251047,555.0687171251047,556.0681634170469,200004,002,2023-03-31_10h48.56.598,DMS_et_12-36,2022.2.4,None,
83,UNPRED,12,0.7194223484910389,0,images/picture_1.png,images/picture_1.png,0,"[-11.733433509789466, -11.733433509789462]",-11.733433509789464,-11.733433509789462,images/picture_2.png,1,"[11.733433509789462, -11.733433509789466]",11.733433509789462,-11.733433509789464,images/picture_3.png,2,"[-11.733433509789462, 11.733433509789464]",-11.733433509789462,11.733433509789464,0,1,1,0.7194223484910389,1.719422348491039,1.2805776515089609,3.0,1,1.469422348491039,0,4.0,3.0,1,2,9,0,9,0,0,4,4,2,,,,,,,556.0681634170469,556.0681634170469,557.0684199591633,557.5352278340142,557.7878208749462,557.7878208749462,557.7878208749462,559.0683132919949,559.0683132919949,559.0683132919949,559.0683132919949,560.0683953750413,200004,002,2023-03-31_10h48.56.598,DMS_et_12-36,2022.2.4,None,
87,UNPRED,12,0.7194223484910389,1,images/picture_2.png,images/picture_1.png,0,"[-11.733433509789462, 11.733433509789464]",-11.733433509789462,11.733433509789464,images/picture_2.png,1,"[-11.733433509789466, -11.733433509789462]",-11.733433509789464,-11.733433509789462,images/picture_3.png,2,"[11.733433509789462, -11.733433509789466]",11.733433509789462,-11.733433509789464,0,1,1,0.7194223484910389,1.719422348491039,1.2805776515089609,3.0,1,1.469422348491039,0,4.0,3.0,1,2,9,0,9,0,0,5,5,6,,,,,,,560.0683953750413,560.0683953750413,561.0685358340852,561.5352025420871,561.7877806250472,561.7877806250472,561.7877806250472,563.0684740841389,563.0684740841389,563.0684740841389,563.0684740841389,564.0872357920744,200004,002,2023-03-31_10h48.56.598,DMS_et_12-36,2022.2.4,None,
88,UNPRED,12,0.7194223484910389,2,images/picture_3.png,images/picture_1.png,0,"[11.733433509789464, 11.733433509789462]",11.733433509789464,11.733433509789462,images/picture_2.png,1,"[-11.733433509789466, -11.733433509789462]",-11.733433509789464,-11.733433509789462,images/picture_3.png,2,"[11.733433509789462, -11.733433509789466]",11.733433509789462,-11.733433509789464,0,1,1,0.7194223484910389,1.719422348491039,1.2805776515089609,3.0,1,1.469422348491039,0,4.0,3.0,1,2,9,0,9,0,0,6,6,7,,,,,,,564.0872357920744,564.0872357920744,565.1017835419625,565.5684600421228,565.7873325420078,565.7873325420078,565.7873325420078,567.0685456250794,567.0685456250794,567.0685456250794,567.0685456250794,568.0872731250711,200004,002,2023-03-31_10h48.56.598,DMS_et_12-36,2022.2.4,None,
86,UNPRED,12,0.7194223484910389,2,images/picture_3.png,images/picture_1.png,0,"[11.733433509789464, 11.733433509789462]",11.733433509789464,11.733433509789462,images/picture_2.png,1,"[11.733433509789462, -11.733433509789466]",11.733433509789462,-11.733433509789464,images/picture_3.png,2,"[-11.733433509789466, -11.733433509789462]",-11.733433509789464,-11.733433509789462,0,1,1,0.7194223484910389,1.719422348491039,1.2805776515089609,3.0,1,1.469422348491039,0,4.0,3.0,1,2,9,0,9,0,0,7,7,5,,,,,,,568.0872731250711,568.0872731250711,569.1019528340548,569.5685002920218,569.7881692501251,569.7881692501251,569.7881692501251,571.0684798341244,571.0684798341244,571.0684798341244,571.0684798341244,572.0681687090546,200004,002,2023-03-31_10h48.56.598,DMS_et_12-36,2022.2.4,None,
89,UNPRED,12,0.7194223484910389,0,images/picture_1.png,images/picture_1.png,0,"[11.733433509789462, -11.733433509789466]",11.733433509789462,-11.733433509789464,images/picture_2.png,1,"[-11.733433509789462, 11.733433509789464]",-11.733433509789462,11.733433509789464,images/picture_3.png,2,"[11.733433509789464, 11.733433509789462]",11.733433509789464,11.733433509789462,0,1,1,0.7194223484910389,1.719422348491039,1.2805776515089609,3.0,1,1.469422348491039,0,4.0,3.0,1,2,9,0,9,0,0,8,8,8,,,,,,,572.0681687090546,572.0681687090546,573.0686816670932,573.5351861249655,573.7879900420085,573.7879900420085,573.7879900420085,575.0684914169833,575.0684914169833,575.0684914169833,575.0684914169833,576.156970292097,200004,002,2023-03-31_10h48.56.598,DMS_et_12-36,2022.2.4,None,
,,,,,,,,,,,,,,,,,,,,,,,,,,,,,,,,,,,9,0,9,0,,,,,,,,,576.156970292097,588.2045576670207,,,,,,,,,,,,,200004,002,2023-03-31_10h48.56.598,DMS_et_12-36,2022.2.4,None,
98,PRED,12,0.7194223484910389,2,images/picture_3.png,images/picture_1.png,0,"[11.733433509789464, 11.733433509789462]",11.733433509789464,11.733433509789462,images/picture_2.png,1,"[-11.733433509789462, 11.733433509789464]",-11.733433509789462,11.733433509789464,images/picture_3.png,2,"[11.733433509789462, -11.733433509789466]",11.733433509789462,-11.733433509789464,0,1,1,0.7194223484910389,1.719422348491039,1.2805776515089609,3.0,1,1.469422348491039,0,4.0,3.0,1,2,10,0,10,0,0,0,0,8,,,,,,,588.2045576670207,588.2045576670207,589.2019754590001,589.6875112920534,589.9017456250731,589.9017456250731,589.9017456250731,591.186946292175,591.186946292175,591.186946292175,591.186946292175,592.2204607501626,200004,002,2023-03-31_10h48.56.598,DMS_et_12-36,2022.2.4,None,
96,PRED,12,0.7194223484910389,2,images/picture_3.png,images/picture_1.png,0,"[11.733433509789464, 11.733433509789462]",11.733433509789464,11.733433509789462,images/picture_2.png,1,"[-11.733433509789466, -11.733433509789462]",-11.733433509789464,-11.733433509789462,images/picture_3.png,2,"[11.733433509789462, -11.733433509789466]",11.733433509789462,-11.733433509789464,0,1,1,0.7194223484910389,1.719422348491039,1.2805776515089609,3.0,1,1.469422348491039,0,4.0,3.0,1,2,10,0,10,0,0,1,1,6,,,,,,,592.2204607501626,592.2204607501626,593.2352919590194,593.701931042131,593.9212727090344,593.9212727090344,593.9212727090344,595.2018112919759,595.2018112919759,595.2018112919759,595.2018112919759,596.2208378340583,200004,002,2023-03-31_10h48.56.598,DMS_et_12-36,2022.2.4,None,
95,PRED,12,0.7194223484910389,2,images/picture_3.png,images/picture_1.png,0,"[-11.733433509789462, 11.733433509789464]",-11.733433509789462,11.733433509789464,images/picture_2.png,1,"[-11.733433509789466, -11.733433509789462]",-11.733433509789464,-11.733433509789462,images/picture_3.png,2,"[11.733433509789462, -11.733433509789466]",11.733433509789462,-11.733433509789464,0,1,1,0.7194223484910389,1.719422348491039,1.2805776515089609,3.0,1,1.469422348491039,0,4.0,3.0,1,2,10,0,10,0,0,2,2,5,,,,,,,596.2208378340583,596.2208378340583,597.23513008398,597.7019170841668,597.9211592499632,597.9211592499632,597.9211592499632,599.2019686670974,599.2019686670974,599.2019686670974,599.2019686670974,600.2204763749614,200004,002,2023-03-31_10h48.56.598,DMS_et_12-36,2022.2.4,None,
97,PRED,12,0.7194223484910389,2,images/picture_3.png,images/picture_1.png,0,"[-11.733433509789466, -11.733433509789462]",-11.733433509789464,-11.733433509789462,images/picture_2.png,1,"[11.733433509789462, -11.733433509789466]",11.733433509789462,-11.733433509789464,images/picture_3.png,2,"[-11.733433509789462, 11.733433509789464]",-11.733433509789462,11.733433509789464,0,1,1,0.7194223484910389,1.719422348491039,1.2805776515089609,3.0,1,1.469422348491039,0,4.0,3.0,1,2,10,0,10,0,0,3,3,7,,,,,,,600.2204763749614,600.2204763749614,601.2352510839701,601.7020198751707,601.9213598750066,601.9213598750066,601.9213598750066,603.2017233751249,603.2017233751249,603.2017233751249,603.2017233751249,604.220585500123,200004,002,2023-03-31_10h48.56.598,DMS_et_12-36,2022.2.4,None,
91,PRED,12,0.7194223484910389,2,images/picture_3.png,images/picture_1.png,0,"[11.733433509789462, -11.733433509789466]",11.733433509789462,-11.733433509789464,images/picture_2.png,1,"[-11.733433509789466, -11.733433509789462]",-11.733433509789464,-11.733433509789462,images/picture_3.png,2,"[-11.733433509789462, 11.733433509789464]",-11.733433509789462,11.733433509789464,0,1,1,0.7194223484910389,1.719422348491039,1.2805776515089609,3.0,1,1.469422348491039,0,4.0,3.0,1,2,10,0,10,0,0,4,4,1,,,,,,,604.220585500123,604.220585500123,605.2352744999807,605.7019685420673,605.9210843751207,605.9210843751207,605.9210843751207,607.2016323751304,607.2016323751304,607.2016323751304,607.2016323751304,608.2206145841628,200004,002,2023-03-31_10h48.56.598,DMS_et_12-36,2022.2.4,None,
94,PRED,12,0.7194223484910389,2,images/picture_3.png,images/picture_1.png,0,"[11.733433509789464, 11.733433509789462]",11.733433509789464,11.733433509789462,images/picture_2.png,1,"[-11.733433509789462, 11.733433509789464]",-11.733433509789462,11.733433509789464,images/picture_3.png,2,"[11.733433509789462, -11.733433509789466]",11.733433509789462,-11.733433509789464,0,1,1,0.7194223484910389,1.719422348491039,1.2805776515089609,3.0,1,1.469422348491039,0,4.0,3.0,1,2,10,0,10,0,0,5,5,4,,,,,,,608.2206145841628,608.2206145841628,609.2352178751025,609.7020860421471,609.9210798339918,609.9210798339918,609.9210798339918,611.2019385420717,611.2019385420717,611.2019385420717,611.2019385420717,612.2203059170861,200004,002,2023-03-31_10h48.56.598,DMS_et_12-36,2022.2.4,None,
90,PRED,12,0.7194223484910389,2,images/picture_3.png,images/picture_1.png,0,"[-11.733433509789462, 11.733433509789464]",-11.733433509789462,11.733433509789464,images/picture_2.png,1,"[-11.733433509789466, -11.733433509789462]",-11.733433509789464,-11.733433509789462,images/picture_3.png,2,"[11.733433509789462, -11.733433509789466]",11.733433509789462,-11.733433509789464,0,1,1,0.7194223484910389,1.719422348491039,1.2805776515089609,3.0,1,1.469422348491039,0,4.0,3.0,1,2,10,0,10,0,0,6,6,0,,,,,,,612.2203059170861,612.2203059170861,613.2353157920297,613.7016802500002,613.9211134591606,613.9211134591606,613.9211134591606,615.2016252919566,615.2016252919566,615.2016252919566,615.2016252919566,616.2205219999887,200004,002,2023-03-31_10h48.56.598,DMS_et_12-36,2022.2.4,None,
92,PRED,12,0.7194223484910389,2,images/picture_3.png,images/picture_1.png,0,"[-11.733433509789466, -11.733433509789462]",-11.733433509789464,-11.733433509789462,images/picture_2.png,1,"[11.733433509789462, -11.733433509789466]",11.733433509789462,-11.733433509789464,images/picture_3.png,2,"[11.733433509789464, 11.733433509789462]",11.733433509789464,11.733433509789462,0,1,1,0.7194223484910389,1.719422348491039,1.2805776515089609,3.0,1,1.469422348491039,0,4.0,3.0,1,2,10,0,10,0,0,7,7,2,,,,,,,616.2205219999887,616.2205219999887,617.2349937499966,617.7015304169618,617.9206720420625,617.9206720420625,617.9206720420625,619.2019581671339,619.2019581671339,619.2019581671339,619.2019581671339,620.2205082920846,200004,002,2023-03-31_10h48.56.598,DMS_et_12-36,2022.2.4,None,
93,PRED,12,0.7194223484910389,2,images/picture_3.png,images/picture_1.png,0,"[-11.733433509789466, -11.733433509789462]",-11.733433509789464,-11.733433509789462,images/picture_2.png,1,"[11.733433509789464, 11.733433509789462]",11.733433509789464,11.733433509789462,images/picture_3.png,2,"[-11.733433509789462, 11.733433509789464]",-11.733433509789462,11.733433509789464,0,1,1,0.7194223484910389,1.719422348491039,1.2805776515089609,3.0,1,1.469422348491039,0,4.0,3.0,1,2,10,0,10,0,0,8,8,3,,,,,,,620.2205082920846,620.2205082920846,621.2352264169604,621.7020105840638,621.9213646249846,621.9213646249846,621.9213646249846,623.2015519591514,623.2015519591514,623.2015519591514,623.2015519591514,624.3110883340705,200004,002,2023-03-31_10h48.56.598,DMS_et_12-36,2022.2.4,None,
,,,,,,,,,,,,,,,,,,,,,,,,,,,,,,,,,,,10,0,10,0,,,,,,,,,624.3110883340705,636.3386643340345,,,,,,,,,,,,,200004,002,2023-03-31_10h48.56.598,DMS_et_12-36,2022.2.4,None,
104,UNPRED,12,0.7194223484910389,0,images/picture_1.png,images/picture_1.png,0,"[-11.733433509789466, -11.733433509789462]",-11.733433509789464,-11.733433509789462,images/picture_2.png,1,"[11.733433509789464, 11.733433509789462]",11.733433509789464,11.733433509789462,images/picture_3.png,2,"[-11.733433509789462, 11.733433509789464]",-11.733433509789462,11.733433509789464,0,1,1,0.7194223484910389,1.719422348491039,1.2805776515089609,3.0,1,1.469422348491039,0,4.0,3.0,1,2,11,0,11,0,0,0,0,5,,,,,,,636.3386643340345,636.3386643340345,637.3538348751608,637.8206560839899,638.0537370841485,638.0537370841485,638.0537370841485,639.3352935840376,639.3352935840376,639.3352935840376,639.3352935840376,640.3542117089964,200004,002,2023-03-31_10h48.56.598,DMS_et_12-36,2022.2.4,None,
105,UNPRED,12,0.7194223484910389,2,images/picture_3.png,images/picture_1.png,0,"[-11.733433509789462, 11.733433509789464]",-11.733433509789462,11.733433509789464,images/picture_2.png,1,"[-11.733433509789466, -11.733433509789462]",-11.733433509789464,-11.733433509789462,images/picture_3.png,2,"[11.733433509789462, -11.733433509789466]",11.733433509789462,-11.733433509789464,0,1,1,0.7194223484910389,1.719422348491039,1.2805776515089609,3.0,1,1.469422348491039,0,4.0,3.0,1,2,11,0,11,0,0,1,1,6,,,,,,,640.3542117089964,640.3542117089964,641.3686833749525,641.835262209177,642.0546399999876,642.0546399999876,642.0546399999876,643.3352429170627,643.3352429170627,643.3352429170627,643.3352429170627,644.3538857090753,200004,002,2023-03-31_10h48.56.598,DMS_et_12-36,2022.2.4,None,
101,UNPRED,12,0.7194223484910389,2,images/picture_3.png,images/picture_1.png,0,"[11.733433509789464, 11.733433509789462]",11.733433509789464,11.733433509789462,images/picture_2.png,1,"[-11.733433509789462, 11.733433509789464]",-11.733433509789462,11.733433509789464,images/picture_3.png,2,"[11.733433509789462, -11.733433509789466]",11.733433509789462,-11.733433509789464,0,1,1,0.7194223484910389,1.719422348491039,1.2805776515089609,3.0,1,1.469422348491039,0,4.0,3.0,1,2,11,0,11,0,0,2,2,2,,,,,,,644.3538857090753,644.3538857090753,645.368529584026,645.8352451249957,646.0545400001574,646.0545400001574,646.0545400001574,647.3351940419525,647.3351940419525,647.3351940419525,647.3351940419525,648.3349189590663,200004,002,2023-03-31_10h48.56.598,DMS_et_12-36,2022.2.4,None,
106,UNPRED,12,0.7194223484910389,1,images/picture_2.png,images/picture_1.png,0,"[11.733433509789464, 11.733433509789462]",11.733433509789464,11.733433509789462,images/picture_2.png,1,"[11.733433509789462, -11.733433509789466]",11.733433509789462,-11.733433509789464,images/picture_3.png,2,"[-11.733433509789466, -11.733433509789462]",-11.733433509789464,-11.733433509789462,0,1,1,0.7194223484910389,1.719422348491039,1.2805776515089609,3.0,1,1.469422348491039,0,4.0,3.0,1,2,11,0,11,0,0,3,3,7,,,,,,,648.3349189590663,648.3349189590663,649.3352552501019,649.8020143751055,650.054753750097,650.054753750097,650.054753750097,651.3352839171421,651.3352839171421,651.3352839171421,651.3352839171421,652.3348308750428,200004,002,2023-03-31_10h48.56.598,DMS_et_12-36,2022.2.4,None,
102,UNPRED,12,0.7194223484910389,1,images/picture_2.png,images/picture_1.png,0,"[11.733433509789462, -11.733433509789466]",11.733433509789462,-11.733433509789464,images/picture_2.png,1,"[11.733433509789464, 11.733433509789462]",11.733433509789464,11.733433509789462,images/picture_3.png,2,"[-11.733433509789466, -11.733433509789462]",-11.733433509789464,-11.733433509789462,0,1,1,0.7194223484910389,1.719422348491039,1.2805776515089609,3.0,1,1.469422348491039,0,4.0,3.0,1,2,11,0,11,0,0,4,4,3,,,,,,,652.3348308750428,652.3348308750428,653.3352592920419,653.801974958973,654.0544108340982,654.0544108340982,654.0544108340982,655.3348992920946,655.3348992920946,655.3348992920946,655.3348992920946,656.3348426250741,200004,002,2023-03-31_10h48.56.598,DMS_et_12-36,2022.2.4,None,
99,UNPRED,12,0.7194223484910389,0,images/picture_1.png,images/picture_1.png,0,"[-11.733433509789466, -11.733433509789462]",-11.733433509789464,-11.733433509789462,images/picture_2.png,1,"[11.733433509789462, -11.733433509789466]",11.733433509789462,-11.733433509789464,images/picture_3.png,2,"[-11.733433509789462, 11.733433509789464]",-11.733433509789462,11.733433509789464,0,1,1,0.7194223484910389,1.719422348491039,1.2805776515089609,3.0,1,1.469422348491039,0,4.0,3.0,1,2,11,0,11,0,0,5,5,0,,,,,,,656.3348426250741,656.3348426250741,657.3352724590804,657.8020160000306,658.0538321251515,658.0538321251515,658.0538321251515,659.335304541979,659.335304541979,659.335304541979,659.335304541979,660.3350907091517,200004,002,2023-03-31_10h48.56.598,DMS_et_12-36,2022.2.4,None,
100,UNPRED,12,0.7194223484910389,0,images/picture_1.png,images/picture_1.png,0,"[11.733433509789462, -11.733433509789466]",11.733433509789462,-11.733433509789464,images/picture_2.png,1,"[-11.733433509789466, -11.733433509789462]",-11.733433509789464,-11.733433509789462,images/picture_3.png,2,"[11.733433509789464, 11.733433509789462]",11.733433509789464,11.733433509789462,0,1,1,0.7194223484910389,1.719422348491039,1.2805776515089609,3.0,1,1.469422348491039,0,4.0,3.0,1,2,11,0,11,0,0,6,6,1,,,,,,,660.3350907091517,660.3350907091517,661.3353718339931,661.8019663339946,662.0545547090005,662.0545547090005,662.0545547090005,663.3354003340937,663.3354003340937,663.3354003340937,663.3354003340937,664.3539718340617,200004,002,2023-03-31_10h48.56.598,DMS_et_12-36,2022.2.4,None,
107,UNPRED,12,0.7194223484910389,2,images/picture_3.png,images/picture_1.png,0,"[-11.733433509789466, -11.733433509789462]",-11.733433509789464,-11.733433509789462,images/picture_2.png,1,"[-11.733433509789462, 11.733433509789464]",-11.733433509789462,11.733433509789464,images/picture_3.png,2,"[11.733433509789462, -11.733433509789466]",11.733433509789462,-11.733433509789464,0,1,1,0.7194223484910389,1.719422348491039,1.2805776515089609,3.0,1,1.469422348491039,0,4.0,3.0,1,2,11,0,11,0,0,7,7,8,,,,,,,664.3539718340617,664.3539718340617,665.3685600000899,665.8354248341639,666.0548233750742,666.0548233750742,666.0548233750742,667.3353098339867,667.3353098339867,667.3353098339867,667.3353098339867,668.3349214999471,200004,002,2023-03-31_10h48.56.598,DMS_et_12-36,2022.2.4,None,
103,UNPRED,12,0.7194223484910389,0,images/picture_1.png,images/picture_1.png,0,"[11.733433509789462, -11.733433509789466]",11.733433509789462,-11.733433509789464,images/picture_2.png,1,"[-11.733433509789466, -11.733433509789462]",-11.733433509789464,-11.733433509789462,images/picture_3.png,2,"[-11.733433509789462, 11.733433509789464]",-11.733433509789462,11.733433509789464,0,1,1,0.7194223484910389,1.719422348491039,1.2805776515089609,3.0,1,1.469422348491039,0,4.0,3.0,1,2,11,0,11,0,0,8,8,4,,,,,,,668.3349214999471,668.3349214999471,669.3350702919997,669.8020165420603,670.054655459011,670.054655459011,670.054655459011,671.335249917116,671.335249917116,671.335249917116,671.335249917116,672.5029696670827,200004,002,2023-03-31_10h48.56.598,DMS_et_12-36,2022.2.4,None,
,,,,,,,,,,,,,,,,,,,,,,,,,,,,,,,,,,,11,0,11,0,,,,,,,,,672.5029696670827,684.6301523749717,,,,,,,,,,,,,200004,002,2023-03-31_10h48.56.598,DMS_et_12-36,2022.2.4,None,
,,,,,,,,,,,,,,,,,,,,,,,,,,,,,,,,,,,,,,,,,,,,,,,684.6301523749717,697.1628054589964,,,,,,,,,,,,,,,,,,,
