trial_count,blockType,blockNum,delay_time,stimImage_i,stimImage,responseImage1,responseImage1_i,responseImage1_pos,responseImage1_X,responseImage1_Y,responseImage2,responseImage2_i,responseImage2_pos,responseImage2_X,responseImage2_Y,responseImage3,responseImage3_i,responseImage3_pos,responseImage3_X,responseImage3_Y,cue_onset,cue_dur,delay_onset,delay_dur,resp_onset,resp_dur,rest_onset,rest_dur,circle_dur,circle_onset,total_dur,cross_onset,cross_dur,delay_resp_period,blocks.thisRepN,blocks.thisTrialN,blocks.thisN,blocks.thisIndex,trials.thisRepN,trials.thisTrialN,trials.thisN,trials.thisIndex,key_resp.started,text.started,key_resp.keys,key_resp.rt,text_2.started,text_2.stopped,sample.started,Delay.started,sample.stopped,Delay.stopped,Response_1.started,Response_2.started,Response_3.started,polygon.started,Response_1.stopped,Response_2.stopped,Response_3.stopped,polygon.stopped,participant,session,date,expName,psychopyVersion,frameRate,
,,,,,,,,,,,,,,,,,,,,,,,,,,,,,,,,,,,,,,,,,,,22.74992983300035,22.74992983300035,t,73.62120058400069,,,,,,,,,,,,,,,200005,205,2023-04-11_15h33.57.968,DMS_et_12-36,2022.2.4,None,
7,PRED,12,1.0553518990753048,1,images/picture_2.png,images/picture_1.png,0,"[-11.733433509789466, -11.733433509789462]",-11.733433509789464,-11.733433509789462,images/picture_2.png,1,"[11.733433509789464, 11.733433509789462]",11.733433509789464,11.733433509789462,images/picture_3.png,2,"[11.733433509789462, -11.733433509789466]",11.733433509789462,-11.733433509789464,0,1,1,1.0553518990753048,2.055351899075305,0.9446481009246952,3.0,1,1.8053518990753048,0,4.0,3.0,1,2,0,0,0,0,0,0,0,7,,,,,96.89089787500052,108.91437408300044,108.91437408300044,108.91437408300044,109.92864545799966,110.72868766700049,110.96180220800125,110.96180220800125,110.96180220800125,111.89516262500001,111.91500158300005,111.91500158300005,111.91500158300005,112.89473287500005,200005,205,2023-04-11_15h33.57.968,DMS_et_12-36,2022.2.4,None,
6,PRED,12,1.0553518990753048,1,images/picture_2.png,images/picture_1.png,0,"[11.733433509789462, -11.733433509789466]",11.733433509789462,-11.733433509789464,images/picture_2.png,1,"[11.733433509789464, 11.733433509789462]",11.733433509789464,11.733433509789462,images/picture_3.png,2,"[-11.733433509789466, -11.733433509789462]",-11.733433509789464,-11.733433509789462,0,1,1,1.0553518990753048,2.055351899075305,0.9446481009246952,3.0,1,1.8053518990753048,0,4.0,3.0,1,2,0,0,0,0,0,1,1,6,,,,,,,112.89473287500005,112.89473287500005,113.89526162500078,114.71498641700055,114.94814154199958,114.94814154199958,114.94814154199958,115.89514687500014,115.89514687500014,115.89514687500014,115.89514687500014,116.89487545799966,200005,205,2023-04-11_15h33.57.968,DMS_et_12-36,2022.2.4,None,
3,PRED,12,1.0553518990753048,1,images/picture_2.png,images/picture_1.png,0,"[-11.733433509789466, -11.733433509789462]",-11.733433509789464,-11.733433509789462,images/picture_2.png,1,"[11.733433509789462, -11.733433509789466]",11.733433509789462,-11.733433509789464,images/picture_3.png,2,"[-11.733433509789462, 11.733433509789464]",-11.733433509789462,11.733433509789464,0,1,1,1.0553518990753048,2.055351899075305,0.9446481009246952,3.0,1,1.8053518990753048,0,4.0,3.0,1,2,0,0,0,0,0,2,2,3,,,,,,,116.89487545799966,116.89487545799966,117.8951695830001,118.71468537500004,118.94774887499989,118.94774887499989,118.94774887499989,119.89497300000039,119.89497300000039,119.89497300000039,119.89497300000039,120.89460458299982,200005,205,2023-04-11_15h33.57.968,DMS_et_12-36,2022.2.4,None,
5,PRED,12,1.0553518990753048,1,images/picture_2.png,images/picture_1.png,0,"[-11.733433509789462, 11.733433509789464]",-11.733433509789462,11.733433509789464,images/picture_2.png,1,"[-11.733433509789466, -11.733433509789462]",-11.733433509789464,-11.733433509789462,images/picture_3.png,2,"[11.733433509789462, -11.733433509789466]",11.733433509789462,-11.733433509789464,0,1,1,1.0553518990753048,2.055351899075305,0.9446481009246952,3.0,1,1.8053518990753048,0,4.0,3.0,1,2,0,0,0,0,0,3,3,5,,,,,,,120.89460458299982,120.89460458299982,121.89522666700032,122.71509912500005,122.94784570800039,122.94784570800039,122.94784570800039,123.89512416700018,123.89512416700018,123.89512416700018,123.89512416700018,124.89487720800025,200005,205,2023-04-11_15h33.57.968,DMS_et_12-36,2022.2.4,None,
0,PRED,12,1.0553518990753048,1,images/picture_2.png,images/picture_1.png,0,"[11.733433509789464, 11.733433509789462]",11.733433509789464,11.733433509789462,images/picture_2.png,1,"[-11.733433509789466, -11.733433509789462]",-11.733433509789464,-11.733433509789462,images/picture_3.png,2,"[-11.733433509789462, 11.733433509789464]",-11.733433509789462,11.733433509789464,0,1,1,1.0553518990753048,2.055351899075305,0.9446481009246952,3.0,1,1.8053518990753048,0,4.0,3.0,1,2,0,0,0,0,0,4,4,0,,,,,,,124.89487720800025,124.89487720800025,125.8951391669998,126.71469866699954,126.9479792080001,126.9479792080001,126.9479792080001,127.89513675000126,127.89513675000126,127.89513675000126,127.89513675000126,128.89463808300025,200005,205,2023-04-11_15h33.57.968,DMS_et_12-36,2022.2.4,None,
2,PRED,12,1.0553518990753048,1,images/picture_2.png,images/picture_1.png,0,"[-11.733433509789462, 11.733433509789464]",-11.733433509789462,11.733433509789464,images/picture_2.png,1,"[11.733433509789462, -11.733433509789466]",11.733433509789462,-11.733433509789464,images/picture_3.png,2,"[11.733433509789464, 11.733433509789462]",11.733433509789464,11.733433509789462,0,1,1,1.0553518990753048,2.055351899075305,0.9446481009246952,3.0,1,1.8053518990753048,0,4.0,3.0,1,2,0,0,0,0,0,5,5,2,,,,,,,128.89463808300025,128.89463808300025,129.89503937500012,130.7147439170003,130.94780241700028,130.94780241700028,130.94780241700028,131.89530150000064,131.89530150000064,131.89530150000064,131.89530150000064,132.8946960000012,200005,205,2023-04-11_15h33.57.968,DMS_et_12-36,2022.2.4,None,
1,PRED,12,1.0553518990753048,1,images/picture_2.png,images/picture_1.png,0,"[11.733433509789464, 11.733433509789462]",11.733433509789464,11.733433509789462,images/picture_2.png,1,"[-11.733433509789462, 11.733433509789464]",-11.733433509789462,11.733433509789464,images/picture_3.png,2,"[11.733433509789462, -11.733433509789466]",11.733433509789462,-11.733433509789464,0,1,1,1.0553518990753048,2.055351899075305,0.9446481009246952,3.0,1,1.8053518990753048,0,4.0,3.0,1,2,0,0,0,0,0,6,6,1,,,,,,,132.8946960000012,132.8946960000012,133.89530254199963,134.71501037500093,134.9484731249995,134.9484731249995,134.9484731249995,135.89514150000105,135.89514150000105,135.89514150000105,135.89514150000105,136.89466449999964,200005,205,2023-04-11_15h33.57.968,DMS_et_12-36,2022.2.4,None,
4,PRED,12,1.0553518990753048,1,images/picture_2.png,images/picture_1.png,0,"[11.733433509789464, 11.733433509789462]",11.733433509789464,11.733433509789462,images/picture_2.png,1,"[-11.733433509789466, -11.733433509789462]",-11.733433509789464,-11.733433509789462,images/picture_3.png,2,"[11.733433509789462, -11.733433509789466]",11.733433509789462,-11.733433509789464,0,1,1,1.0553518990753048,2.055351899075305,0.9446481009246952,3.0,1,1.8053518990753048,0,4.0,3.0,1,2,0,0,0,0,0,7,7,4,,,,,,,136.89466449999964,136.89466449999964,137.89546937500018,138.7151232920005,138.94788437500029,138.94788437500029,138.94788437500029,139.89477991700005,139.89477991700005,139.89477991700005,139.89477991700005,140.89460599999984,200005,205,2023-04-11_15h33.57.968,DMS_et_12-36,2022.2.4,None,
8,PRED,12,1.0553518990753048,1,images/picture_2.png,images/picture_1.png,0,"[-11.733433509789466, -11.733433509789462]",-11.733433509789464,-11.733433509789462,images/picture_2.png,1,"[-11.733433509789462, 11.733433509789464]",-11.733433509789462,11.733433509789464,images/picture_3.png,2,"[11.733433509789462, -11.733433509789466]",11.733433509789462,-11.733433509789464,0,1,1,1.0553518990753048,2.055351899075305,0.9446481009246952,3.0,1,1.8053518990753048,0,4.0,3.0,1,2,0,0,0,0,0,8,8,8,,,,,,,140.89460599999984,140.89460599999984,141.8950906250011,142.71513958300056,142.9478639170011,142.9478639170011,142.9478639170011,143.89522579200093,143.89522579200093,143.89522579200093,143.89522579200093,144.91448695799954,200005,205,2023-04-11_15h33.57.968,DMS_et_12-36,2022.2.4,None,
,,,,,,,,,,,,,,,,,,,,,,,,,,,,,,,,,,,0,0,0,0,,,,,,,,,144.91448695799954,156.95401595800104,,,,,,,,,,,,,200005,205,2023-04-11_15h33.57.968,DMS_et_12-36,2022.2.4,None,
17,UNPRED,12,1.0553518990753048,2,images/picture_3.png,images/picture_1.png,0,"[-11.733433509789466, -11.733433509789462]",-11.733433509789464,-11.733433509789462,images/picture_2.png,1,"[11.733433509789464, 11.733433509789462]",11.733433509789464,11.733433509789462,images/picture_3.png,2,"[11.733433509789462, -11.733433509789466]",11.733433509789462,-11.733433509789464,0,1,1,1.0553518990753048,2.055351899075305,0.9446481009246952,3.0,1,1.8053518990753048,0,4.0,3.0,1,2,1,0,1,0,0,0,0,8,,,,,,,156.95401595800104,156.95401595800104,157.9618616250009,158.76196254200113,158.99509491699973,158.99509491699973,158.99509491699973,159.94705700000122,159.94705700000122,159.94705700000122,159.94705700000122,160.96156750000046,200005,205,2023-04-11_15h33.57.968,DMS_et_12-36,2022.2.4,None,
13,UNPRED,12,1.0553518990753048,1,images/picture_2.png,images/picture_1.png,0,"[11.733433509789462, -11.733433509789466]",11.733433509789462,-11.733433509789464,images/picture_2.png,1,"[-11.733433509789466, -11.733433509789462]",-11.733433509789464,-11.733433509789462,images/picture_3.png,2,"[11.733433509789464, 11.733433509789462]",11.733433509789464,11.733433509789462,0,1,1,1.0553518990753048,2.055351899075305,0.9446481009246952,3.0,1,1.8053518990753048,0,4.0,3.0,1,2,1,0,1,0,0,1,1,4,,,,,,,160.96156750000046,160.96156750000046,161.96187416700013,162.7817715830006,163.01512616699983,163.01512616699983,163.01512616699983,163.96181729199998,163.96181729199998,163.96181729199998,163.96181729199998,164.98066608299996,200005,205,2023-04-11_15h33.57.968,DMS_et_12-36,2022.2.4,None,
10,UNPRED,12,1.0553518990753048,2,images/picture_3.png,images/picture_1.png,0,"[11.733433509789462, -11.733433509789466]",11.733433509789462,-11.733433509789464,images/picture_2.png,1,"[-11.733433509789462, 11.733433509789464]",-11.733433509789462,11.733433509789464,images/picture_3.png,2,"[11.733433509789464, 11.733433509789462]",11.733433509789464,11.733433509789462,0,1,1,1.0553518990753048,2.055351899075305,0.9446481009246952,3.0,1,1.8053518990753048,0,4.0,3.0,1,2,1,0,1,0,0,2,2,1,,,,,,,164.98066608299996,164.98066608299996,165.99510033300066,166.79514675000064,167.015392583,167.015392583,167.015392583,167.96184141699996,167.96184141699996,167.96184141699996,167.96184141699996,168.9807366670011,200005,205,2023-04-11_15h33.57.968,DMS_et_12-36,2022.2.4,None,
14,UNPRED,12,1.0553518990753048,2,images/picture_3.png,images/picture_1.png,0,"[11.733433509789464, 11.733433509789462]",11.733433509789464,11.733433509789462,images/picture_2.png,1,"[11.733433509789462, -11.733433509789466]",11.733433509789462,-11.733433509789464,images/picture_3.png,2,"[-11.733433509789462, 11.733433509789464]",-11.733433509789462,11.733433509789464,0,1,1,1.0553518990753048,2.055351899075305,0.9446481009246952,3.0,1,1.8053518990753048,0,4.0,3.0,1,2,1,0,1,0,0,3,3,5,,,,,,,168.9807366670011,168.9807366670011,169.99528545800058,170.79494220800007,171.01382700000067,171.01382700000067,171.01382700000067,171.96189070800028,171.96189070800028,171.96189070800028,171.96189070800028,172.9610004999995,200005,205,2023-04-11_15h33.57.968,DMS_et_12-36,2022.2.4,None,
12,UNPRED,12,1.0553518990753048,0,images/picture_1.png,images/picture_1.png,0,"[11.733433509789462, -11.733433509789466]",11.733433509789462,-11.733433509789464,images/picture_2.png,1,"[-11.733433509789462, 11.733433509789464]",-11.733433509789462,11.733433509789464,images/picture_3.png,2,"[11.733433509789464, 11.733433509789462]",11.733433509789464,11.733433509789462,0,1,1,1.0553518990753048,2.055351899075305,0.9446481009246952,3.0,1,1.8053518990753048,0,4.0,3.0,1,2,1,0,1,0,0,4,4,3,,,,,,,172.9610004999995,172.9610004999995,173.96191487500073,174.78102299999955,175.01514337499975,175.01514337499975,175.01514337499975,175.96190245800062,175.96190245800062,175.96190245800062,175.96190245800062,176.96161279199987,200005,205,2023-04-11_15h33.57.968,DMS_et_12-36,2022.2.4,None,
15,UNPRED,12,1.0553518990753048,0,images/picture_1.png,images/picture_1.png,0,"[-11.733433509789462, 11.733433509789464]",-11.733433509789462,11.733433509789464,images/picture_2.png,1,"[11.733433509789462, -11.733433509789466]",11.733433509789462,-11.733433509789464,images/picture_3.png,2,"[11.733433509789464, 11.733433509789462]",11.733433509789464,11.733433509789462,0,1,1,1.0553518990753048,2.055351899075305,0.9446481009246952,3.0,1,1.8053518990753048,0,4.0,3.0,1,2,1,0,1,0,0,5,5,6,,,,,,,176.96161279199987,176.96161279199987,177.96183745800045,178.78131887500058,179.014828708001,179.014828708001,179.014828708001,179.96186983299958,179.96186983299958,179.96186983299958,179.96186983299958,180.98055341700092,200005,205,2023-04-11_15h33.57.968,DMS_et_12-36,2022.2.4,None,
16,UNPRED,12,1.0553518990753048,2,images/picture_3.png,images/picture_1.png,0,"[-11.733433509789462, 11.733433509789464]",-11.733433509789462,11.733433509789464,images/picture_2.png,1,"[-11.733433509789466, -11.733433509789462]",-11.733433509789464,-11.733433509789462,images/picture_3.png,2,"[11.733433509789464, 11.733433509789462]",11.733433509789464,11.733433509789462,0,1,1,1.0553518990753048,2.055351899075305,0.9446481009246952,3.0,1,1.8053518990753048,0,4.0,3.0,1,2,1,0,1,0,0,6,6,7,,,,,,,180.98055341700092,180.98055341700092,181.99516575000052,182.7951302500005,183.01467650000086,183.01467650000086,183.01467650000086,183.9618530000007,183.9618530000007,183.9618530000007,183.9618530000007,184.96139337500063,200005,205,2023-04-11_15h33.57.968,DMS_et_12-36,2022.2.4,None,
11,UNPRED,12,1.0553518990753048,0,images/picture_1.png,images/picture_1.png,0,"[-11.733433509789466, -11.733433509789462]",-11.733433509789464,-11.733433509789462,images/picture_2.png,1,"[-11.733433509789462, 11.733433509789464]",-11.733433509789462,11.733433509789464,images/picture_3.png,2,"[11.733433509789462, -11.733433509789466]",11.733433509789462,-11.733433509789464,0,1,1,1.0553518990753048,2.055351899075305,0.9446481009246952,3.0,1,1.8053518990753048,0,4.0,3.0,1,2,1,0,1,0,0,7,7,2,,,,,,,184.96139337500063,184.96139337500063,185.96189483300077,186.78127683300045,187.01524945799974,187.01524945799974,187.01524945799974,187.96189033300107,187.96189033300107,187.96189033300107,187.96189033300107,188.9812657500006,200005,205,2023-04-11_15h33.57.968,DMS_et_12-36,2022.2.4,None,
9,UNPRED,12,1.0553518990753048,2,images/picture_3.png,images/picture_1.png,0,"[11.733433509789464, 11.733433509789462]",11.733433509789464,11.733433509789462,images/picture_2.png,1,"[-11.733433509789462, 11.733433509789464]",-11.733433509789462,11.733433509789464,images/picture_3.png,2,"[11.733433509789462, -11.733433509789466]",11.733433509789462,-11.733433509789464,0,1,1,1.0553518990753048,2.055351899075305,0.9446481009246952,3.0,1,1.8053518990753048,0,4.0,3.0,1,2,1,0,1,0,0,8,8,0,,,,,,,188.9812657500006,188.9812657500006,189.99511341700054,190.7950825830012,191.01435325000057,191.01435325000057,191.01435325000057,191.9617182080001,191.9617182080001,191.9617182080001,191.9617182080001,192.9931831670001,200005,205,2023-04-11_15h33.57.968,DMS_et_12-36,2022.2.4,None,
,,,,,,,,,,,,,,,,,,,,,,,,,,,,,,,,,,,1,0,1,0,,,,,,,,,192.9931831670001,205.01465816699965,,,,,,,,,,,,,200005,205,2023-04-11_15h33.57.968,DMS_et_12-36,2022.2.4,None,
18,PRED,12,1.0553518990753048,0,images/picture_1.png,images/picture_1.png,0,"[-11.733433509789462, 11.733433509789464]",-11.733433509789462,11.733433509789464,images/picture_2.png,1,"[11.733433509789464, 11.733433509789462]",11.733433509789464,11.733433509789462,images/picture_3.png,2,"[11.733433509789462, -11.733433509789466]",11.733433509789462,-11.733433509789464,0,1,1,1.0553518990753048,2.055351899075305,0.9446481009246952,3.0,1,1.8053518990753048,0,4.0,3.0,1,2,2,0,2,0,0,0,0,0,,,,,,,205.01465816699965,205.01465816699965,206.02845191699998,206.82866862500123,207.06183349999992,207.06183349999992,207.06183349999992,208.01463154200064,208.01463154200064,208.01463154200064,208.01463154200064,209.02820970799985,200005,205,2023-04-11_15h33.57.968,DMS_et_12-36,2022.2.4,None,
25,PRED,12,1.0553518990753048,0,images/picture_1.png,images/picture_1.png,0,"[-11.733433509789462, 11.733433509789464]",-11.733433509789462,11.733433509789464,images/picture_2.png,1,"[11.733433509789464, 11.733433509789462]",11.733433509789464,11.733433509789462,images/picture_3.png,2,"[-11.733433509789466, -11.733433509789462]",-11.733433509789464,-11.733433509789462,0,1,1,1.0553518990753048,2.055351899075305,0.9446481009246952,3.0,1,1.8053518990753048,0,4.0,3.0,1,2,2,0,2,0,0,1,1,7,,,,,,,209.02820970799985,209.02820970799985,210.02924008300033,210.84834479200072,211.08140054199976,211.08140054199976,211.08140054199976,212.02830033300052,212.02830033300052,212.02830033300052,212.02830033300052,213.0278507080002,200005,205,2023-04-11_15h33.57.968,DMS_et_12-36,2022.2.4,None,
26,PRED,12,1.0553518990753048,0,images/picture_1.png,images/picture_1.png,0,"[11.733433509789464, 11.733433509789462]",11.733433509789464,11.733433509789462,images/picture_2.png,1,"[-11.733433509789462, 11.733433509789464]",-11.733433509789462,11.733433509789464,images/picture_3.png,2,"[11.733433509789462, -11.733433509789466]",11.733433509789462,-11.733433509789464,0,1,1,1.0553518990753048,2.055351899075305,0.9446481009246952,3.0,1,1.8053518990753048,0,4.0,3.0,1,2,2,0,2,0,0,2,2,8,,,,,,,213.0278507080002,213.0278507080002,214.02863066700047,214.84796758300035,215.08156829200016,215.08156829200016,215.08156829200016,216.02859591699962,216.02859591699962,216.02859591699962,216.02859591699962,217.02808454200022,200005,205,2023-04-11_15h33.57.968,DMS_et_12-36,2022.2.4,None,
23,PRED,12,1.0553518990753048,0,images/picture_1.png,images/picture_1.png,0,"[11.733433509789464, 11.733433509789462]",11.733433509789464,11.733433509789462,images/picture_2.png,1,"[-11.733433509789466, -11.733433509789462]",-11.733433509789464,-11.733433509789462,images/picture_3.png,2,"[-11.733433509789462, 11.733433509789464]",-11.733433509789462,11.733433509789464,0,1,1,1.0553518990753048,2.055351899075305,0.9446481009246952,3.0,1,1.8053518990753048,0,4.0,3.0,1,2,2,0,2,0,0,3,3,5,,,,,,,217.02808454200022,217.02808454200022,218.02843479200055,218.84788845799994,219.0816605,219.0816605,219.0816605,220.02844412500053,220.02844412500053,220.02844412500053,220.02844412500053,221.02789129200028,200005,205,2023-04-11_15h33.57.968,DMS_et_12-36,2022.2.4,None,
20,PRED,12,1.0553518990753048,0,images/picture_1.png,images/picture_1.png,0,"[11.733433509789464, 11.733433509789462]",11.733433509789464,11.733433509789462,images/picture_2.png,1,"[11.733433509789462, -11.733433509789466]",11.733433509789462,-11.733433509789464,images/picture_3.png,2,"[-11.733433509789466, -11.733433509789462]",-11.733433509789464,-11.733433509789462,0,1,1,1.0553518990753048,2.055351899075305,0.9446481009246952,3.0,1,1.8053518990753048,0,4.0,3.0,1,2,2,0,2,0,0,4,4,2,,,,,,,221.02789129200028,221.02789129200028,222.02832145799948,222.84817912499966,223.08137604200056,223.08137604200056,223.08137604200056,224.02855454200107,224.02855454200107,224.02855454200107,224.02855454200107,225.02791783300017,200005,205,2023-04-11_15h33.57.968,DMS_et_12-36,2022.2.4,None,
22,PRED,12,1.0553518990753048,0,images/picture_1.png,images/picture_1.png,0,"[11.733433509789464, 11.733433509789462]",11.733433509789464,11.733433509789462,images/picture_2.png,1,"[-11.733433509789466, -11.733433509789462]",-11.733433509789464,-11.733433509789462,images/picture_3.png,2,"[11.733433509789462, -11.733433509789466]",11.733433509789462,-11.733433509789464,0,1,1,1.0553518990753048,2.055351899075305,0.9446481009246952,3.0,1,1.8053518990753048,0,4.0,3.0,1,2,2,0,2,0,0,5,5,4,,,,,,,225.02791783300017,225.02791783300017,226.0283946670006,226.84818283300046,227.0813196250001,227.0813196250001,227.0813196250001,228.02863633299967,228.02863633299967,228.02863633299967,228.02863633299967,229.02789187500093,200005,205,2023-04-11_15h33.57.968,DMS_et_12-36,2022.2.4,None,
21,PRED,12,1.0553518990753048,0,images/picture_1.png,images/picture_1.png,0,"[-11.733433509789462, 11.733433509789464]",-11.733433509789462,11.733433509789464,images/picture_2.png,1,"[11.733433509789462, -11.733433509789466]",11.733433509789462,-11.733433509789464,images/picture_3.png,2,"[11.733433509789464, 11.733433509789462]",11.733433509789464,11.733433509789462,0,1,1,1.0553518990753048,2.055351899075305,0.9446481009246952,3.0,1,1.8053518990753048,0,4.0,3.0,1,2,2,0,2,0,0,6,6,3,,,,,,,229.02789187500093,229.02789187500093,230.02857399999994,230.84799891700095,231.0813372499997,231.0813372499997,231.0813372499997,232.02813066700037,232.02813066700037,232.02813066700037,232.02813066700037,233.02804579199983,200005,205,2023-04-11_15h33.57.968,DMS_et_12-36,2022.2.4,None,
19,PRED,12,1.0553518990753048,0,images/picture_1.png,images/picture_1.png,0,"[11.733433509789464, 11.733433509789462]",11.733433509789464,11.733433509789462,images/picture_2.png,1,"[11.733433509789462, -11.733433509789466]",11.733433509789462,-11.733433509789464,images/picture_3.png,2,"[-11.733433509789466, -11.733433509789462]",-11.733433509789464,-11.733433509789462,0,1,1,1.0553518990753048,2.055351899075305,0.9446481009246952,3.0,1,1.8053518990753048,0,4.0,3.0,1,2,2,0,2,0,0,7,7,1,,,,,,,233.02804579199983,233.02804579199983,234.02858112499962,234.84793262499988,235.0816209170007,235.0816209170007,235.0816209170007,236.0286177500002,236.0286177500002,236.0286177500002,236.0286177500002,237.02817191699978,200005,205,2023-04-11_15h33.57.968,DMS_et_12-36,2022.2.4,None,
24,PRED,12,1.0553518990753048,0,images/picture_1.png,images/picture_1.png,0,"[11.733433509789462, -11.733433509789466]",11.733433509789462,-11.733433509789464,images/picture_2.png,1,"[11.733433509789464, 11.733433509789462]",11.733433509789464,11.733433509789462,images/picture_3.png,2,"[-11.733433509789466, -11.733433509789462]",-11.733433509789464,-11.733433509789462,0,1,1,1.0553518990753048,2.055351899075305,0.9446481009246952,3.0,1,1.8053518990753048,0,4.0,3.0,1,2,2,0,2,0,0,8,8,6,,,,,,,237.02817191699978,237.02817191699978,238.0287149579999,238.84861270799956,239.08117958299954,239.08117958299954,239.08117958299954,240.02855195800112,240.02855195800112,240.02855195800112,240.02855195800112,241.07084408300034,200005,205,2023-04-11_15h33.57.968,DMS_et_12-36,2022.2.4,None,
,,,,,,,,,,,,,,,,,,,,,,,,,,,,,,,,,,,2,0,2,0,,,,,,,,,241.07084408300034,253.0821445420006,,,,,,,,,,,,,200005,205,2023-04-11_15h33.57.968,DMS_et_12-36,2022.2.4,None,
28,UNPRED,12,1.0553518990753048,0,images/picture_1.png,images/picture_1.png,0,"[-11.733433509789466, -11.733433509789462]",-11.733433509789464,-11.733433509789462,images/picture_2.png,1,"[-11.733433509789462, 11.733433509789464]",-11.733433509789462,11.733433509789464,images/picture_3.png,2,"[11.733433509789464, 11.733433509789462]",11.733433509789464,11.733433509789462,0,1,1,1.0553518990753048,2.055351899075305,0.9446481009246952,3.0,1,1.8053518990753048,0,4.0,3.0,1,2,3,0,3,0,0,0,0,1,,,,,,,253.0821445420006,253.0821445420006,254.0951726250005,254.89513845799956,255.12841616700098,255.12841616700098,255.12841616700098,256.0814878330002,256.0814878330002,256.0814878330002,256.0814878330002,257.114072458,200005,205,2023-04-11_15h33.57.968,DMS_et_12-36,2022.2.4,None,
29,UNPRED,12,1.0553518990753048,2,images/picture_3.png,images/picture_1.png,0,"[-11.733433509789462, 11.733433509789464]",-11.733433509789462,11.733433509789464,images/picture_2.png,1,"[11.733433509789464, 11.733433509789462]",11.733433509789464,11.733433509789462,images/picture_3.png,2,"[-11.733433509789466, -11.733433509789462]",-11.733433509789464,-11.733433509789462,0,1,1,1.0553518990753048,2.055351899075305,0.9446481009246952,3.0,1,1.8053518990753048,0,4.0,3.0,1,2,3,0,3,0,0,1,1,2,,,,,,,257.114072458,257.114072458,258.1285777080011,258.9285754169996,259.1485001250003,259.1485001250003,259.1485001250003,260.09511312500035,260.09511312500035,260.09511312500035,260.09511312500035,261.09486695800115,200005,205,2023-04-11_15h33.57.968,DMS_et_12-36,2022.2.4,None,
34,UNPRED,12,1.0553518990753048,0,images/picture_1.png,images/picture_1.png,0,"[11.733433509789464, 11.733433509789462]",11.733433509789464,11.733433509789462,images/picture_2.png,1,"[11.733433509789462, -11.733433509789466]",11.733433509789462,-11.733433509789464,images/picture_3.png,2,"[-11.733433509789462, 11.733433509789464]",-11.733433509789462,11.733433509789464,0,1,1,1.0553518990753048,2.055351899075305,0.9446481009246952,3.0,1,1.8053518990753048,0,4.0,3.0,1,2,3,0,3,0,0,2,2,7,,,,,,,261.09486695800115,261.09486695800115,262.0951506670008,262.91424695800015,263.1478208749995,263.1478208749995,263.1478208749995,264.0951953750009,264.0951953750009,264.0951953750009,264.0951953750009,265.1145757920003,200005,205,2023-04-11_15h33.57.968,DMS_et_12-36,2022.2.4,None,
31,UNPRED,12,1.0553518990753048,2,images/picture_3.png,images/picture_1.png,0,"[11.733433509789462, -11.733433509789466]",11.733433509789462,-11.733433509789464,images/picture_2.png,1,"[-11.733433509789462, 11.733433509789464]",-11.733433509789462,11.733433509789464,images/picture_3.png,2,"[-11.733433509789466, -11.733433509789462]",-11.733433509789464,-11.733433509789462,0,1,1,1.0553518990753048,2.055351899075305,0.9446481009246952,3.0,1,1.8053518990753048,0,4.0,3.0,1,2,3,0,3,0,0,3,3,4,,,,,,,265.1145757920003,265.1145757920003,266.1285630420007,266.9285946250002,267.1483856249997,267.1483856249997,267.1483856249997,268.0951352920001,268.0951352920001,268.0951352920001,268.0951352920001,269.1142257499996,200005,205,2023-04-11_15h33.57.968,DMS_et_12-36,2022.2.4,None,
30,UNPRED,12,1.0553518990753048,2,images/picture_3.png,images/picture_1.png,0,"[-11.733433509789462, 11.733433509789464]",-11.733433509789462,11.733433509789464,images/picture_2.png,1,"[11.733433509789464, 11.733433509789462]",11.733433509789464,11.733433509789462,images/picture_3.png,2,"[11.733433509789462, -11.733433509789466]",11.733433509789462,-11.733433509789464,0,1,1,1.0553518990753048,2.055351899075305,0.9446481009246952,3.0,1,1.8053518990753048,0,4.0,3.0,1,2,3,0,3,0,0,4,4,3,,,,,,,269.1142257499996,269.1142257499996,270.1284169999999,270.928574167001,271.14795058300115,271.14795058300115,271.14795058300115,272.0951551670005,272.0951551670005,272.0951551670005,272.0951551670005,273.09482800000114,200005,205,2023-04-11_15h33.57.968,DMS_et_12-36,2022.2.4,None,
27,UNPRED,12,1.0553518990753048,1,images/picture_2.png,images/picture_1.png,0,"[11.733433509789462, -11.733433509789466]",11.733433509789462,-11.733433509789464,images/picture_2.png,1,"[-11.733433509789466, -11.733433509789462]",-11.733433509789464,-11.733433509789462,images/picture_3.png,2,"[11.733433509789464, 11.733433509789462]",11.733433509789464,11.733433509789462,0,1,1,1.0553518990753048,2.055351899075305,0.9446481009246952,3.0,1,1.8053518990753048,0,4.0,3.0,1,2,3,0,3,0,0,5,5,0,,,,,,,273.09482800000114,273.09482800000114,274.09528129200044,274.91469400000096,275.14808320799966,275.14808320799966,275.14808320799966,276.0951547500008,276.0951547500008,276.0951547500008,276.0951547500008,277.09473425000033,200005,205,2023-04-11_15h33.57.968,DMS_et_12-36,2022.2.4,None,
32,UNPRED,12,1.0553518990753048,1,images/picture_2.png,images/picture_1.png,0,"[-11.733433509789466, -11.733433509789462]",-11.733433509789464,-11.733433509789462,images/picture_2.png,1,"[11.733433509789462, -11.733433509789466]",11.733433509789462,-11.733433509789464,images/picture_3.png,2,"[11.733433509789464, 11.733433509789462]",11.733433509789464,11.733433509789462,0,1,1,1.0553518990753048,2.055351899075305,0.9446481009246952,3.0,1,1.8053518990753048,0,4.0,3.0,1,2,3,0,3,0,0,6,6,5,,,,,,,277.09473425000033,277.09473425000033,278.0951084999997,278.9148162500005,279.1487444579998,279.1487444579998,279.1487444579998,280.0951420830006,280.0951420830006,280.0951420830006,280.0951420830006,281.1142598330007,200005,205,2023-04-11_15h33.57.968,DMS_et_12-36,2022.2.4,None,
33,UNPRED,12,1.0553518990753048,2,images/picture_3.png,images/picture_1.png,0,"[-11.733433509789466, -11.733433509789462]",-11.733433509789464,-11.733433509789462,images/picture_2.png,1,"[11.733433509789464, 11.733433509789462]",11.733433509789464,11.733433509789462,images/picture_3.png,2,"[-11.733433509789462, 11.733433509789464]",-11.733433509789462,11.733433509789464,0,1,1,1.0553518990753048,2.055351899075305,0.9446481009246952,3.0,1,1.8053518990753048,0,4.0,3.0,1,2,3,0,3,0,0,7,7,6,,,,,,,281.1142598330007,281.1142598330007,282.12861212499956,282.92855512499955,283.14776758300104,283.14776758300104,283.14776758300104,284.09494395799993,284.09494395799993,284.09494395799993,284.09494395799993,285.0952860420002,200005,205,2023-04-11_15h33.57.968,DMS_et_12-36,2022.2.4,None,
35,UNPRED,12,1.0553518990753048,1,images/picture_2.png,images/picture_1.png,0,"[-11.733433509789466, -11.733433509789462]",-11.733433509789464,-11.733433509789462,images/picture_2.png,1,"[-11.733433509789462, 11.733433509789464]",-11.733433509789462,11.733433509789464,images/picture_3.png,2,"[11.733433509789464, 11.733433509789462]",11.733433509789464,11.733433509789462,0,1,1,1.0553518990753048,2.055351899075305,0.9446481009246952,3.0,1,1.8053518990753048,0,4.0,3.0,1,2,3,0,3,0,0,8,8,8,,,,,,,285.0952860420002,285.0952860420002,286.0951425000003,286.9150882080012,287.14795179199973,287.14795179199973,287.14795179199973,288.0951261250011,288.0951261250011,288.0951261250011,288.0951261250011,289.1455933750003,200005,205,2023-04-11_15h33.57.968,DMS_et_12-36,2022.2.4,None,
,,,,,,,,,,,,,,,,,,,,,,,,,,,,,,,,,,,3,0,3,0,,,,,,,,,289.1455933750003,301.1614746670002,,,,,,,,,,,,,200005,205,2023-04-11_15h33.57.968,DMS_et_12-36,2022.2.4,None,
40,PRED,12,1.0553518990753048,0,images/picture_1.png,images/picture_1.png,0,"[11.733433509789464, 11.733433509789462]",11.733433509789464,11.733433509789462,images/picture_2.png,1,"[-11.733433509789466, -11.733433509789462]",-11.733433509789464,-11.733433509789462,images/picture_3.png,2,"[-11.733433509789462, 11.733433509789464]",-11.733433509789462,11.733433509789464,0,1,1,1.0553518990753048,2.055351899075305,0.9446481009246952,3.0,1,1.8053518990753048,0,4.0,3.0,1,2,4,0,4,0,0,0,0,4,,,,,,,301.1614746670002,301.1614746670002,302.1618708750011,302.98193716700007,303.21477270800096,303.21477270800096,303.21477270800096,304.1615704169999,304.1615704169999,304.1615704169999,304.1615704169999,305.161295625001,200005,205,2023-04-11_15h33.57.968,DMS_et_12-36,2022.2.4,None,
41,PRED,12,1.0553518990753048,0,images/picture_1.png,images/picture_1.png,0,"[11.733433509789464, 11.733433509789462]",11.733433509789464,11.733433509789462,images/picture_2.png,1,"[-11.733433509789466, -11.733433509789462]",-11.733433509789464,-11.733433509789462,images/picture_3.png,2,"[-11.733433509789462, 11.733433509789464]",-11.733433509789462,11.733433509789464,0,1,1,1.0553518990753048,2.055351899075305,0.9446481009246952,3.0,1,1.8053518990753048,0,4.0,3.0,1,2,4,0,4,0,0,1,1,5,,,,,,,305.161295625001,305.161295625001,306.16193399999975,306.9815525419999,307.2151121250008,307.2151121250008,307.2151121250008,308.1616414580003,308.1616414580003,308.1616414580003,308.1616414580003,309.1612289170007,200005,205,2023-04-11_15h33.57.968,DMS_et_12-36,2022.2.4,None,
44,PRED,12,1.0553518990753048,0,images/picture_1.png,images/picture_1.png,0,"[11.733433509789462, -11.733433509789466]",11.733433509789462,-11.733433509789464,images/picture_2.png,1,"[-11.733433509789462, 11.733433509789464]",-11.733433509789462,11.733433509789464,images/picture_3.png,2,"[11.733433509789464, 11.733433509789462]",11.733433509789464,11.733433509789462,0,1,1,1.0553518990753048,2.055351899075305,0.9446481009246952,3.0,1,1.8053518990753048,0,4.0,3.0,1,2,4,0,4,0,0,2,2,8,,,,,,,309.1612289170007,309.1612289170007,310.1618448749996,310.98165170799984,311.21506766700077,311.21506766700077,311.21506766700077,312.1619009170008,312.1619009170008,312.1619009170008,312.1619009170008,313.16128025000035,200005,205,2023-04-11_15h33.57.968,DMS_et_12-36,2022.2.4,None,
42,PRED,12,1.0553518990753048,0,images/picture_1.png,images/picture_1.png,0,"[-11.733433509789466, -11.733433509789462]",-11.733433509789464,-11.733433509789462,images/picture_2.png,1,"[-11.733433509789462, 11.733433509789464]",-11.733433509789462,11.733433509789464,images/picture_3.png,2,"[11.733433509789464, 11.733433509789462]",11.733433509789464,11.733433509789462,0,1,1,1.0553518990753048,2.055351899075305,0.9446481009246952,3.0,1,1.8053518990753048,0,4.0,3.0,1,2,4,0,4,0,0,3,3,6,,,,,,,313.16128025000035,313.16128025000035,314.1615214169997,314.9804455000012,315.21509504200003,315.21509504200003,315.21509504200003,316.1618526250004,316.1618526250004,316.1618526250004,316.1618526250004,317.16127762500037,200005,205,2023-04-11_15h33.57.968,DMS_et_12-36,2022.2.4,None,
36,PRED,12,1.0553518990753048,0,images/picture_1.png,images/picture_1.png,0,"[-11.733433509789466, -11.733433509789462]",-11.733433509789464,-11.733433509789462,images/picture_2.png,1,"[-11.733433509789462, 11.733433509789464]",-11.733433509789462,11.733433509789464,images/picture_3.png,2,"[11.733433509789462, -11.733433509789466]",11.733433509789462,-11.733433509789464,0,1,1,1.0553518990753048,2.055351899075305,0.9446481009246952,3.0,1,1.8053518990753048,0,4.0,3.0,1,2,4,0,4,0,0,4,4,0,,,,,,,317.16127762500037,317.16127762500037,318.1618455420012,318.9819627500001,319.21479233300124,319.21479233300124,319.21479233300124,320.16185716700056,320.16185716700056,320.16185716700056,320.16185716700056,321.16125391700007,200005,205,2023-04-11_15h33.57.968,DMS_et_12-36,2022.2.4,None,
38,PRED,12,1.0553518990753048,0,images/picture_1.png,images/picture_1.png,0,"[11.733433509789462, -11.733433509789466]",11.733433509789462,-11.733433509789464,images/picture_2.png,1,"[-11.733433509789462, 11.733433509789464]",-11.733433509789462,11.733433509789464,images/picture_3.png,2,"[-11.733433509789466, -11.733433509789462]",-11.733433509789464,-11.733433509789462,0,1,1,1.0553518990753048,2.055351899075305,0.9446481009246952,3.0,1,1.8053518990753048,0,4.0,3.0,1,2,4,0,4,0,0,5,5,2,,,,,,,321.16125391700007,321.16125391700007,322.1618683329998,322.9812811669999,323.2147697920009,323.2147697920009,323.2147697920009,324.161568042,324.161568042,324.161568042,324.161568042,325.1615487079998,200005,205,2023-04-11_15h33.57.968,DMS_et_12-36,2022.2.4,None,
37,PRED,12,1.0553518990753048,0,images/picture_1.png,images/picture_1.png,0,"[-11.733433509789466, -11.733433509789462]",-11.733433509789464,-11.733433509789462,images/picture_2.png,1,"[11.733433509789462, -11.733433509789466]",11.733433509789462,-11.733433509789464,images/picture_3.png,2,"[-11.733433509789462, 11.733433509789464]",-11.733433509789462,11.733433509789464,0,1,1,1.0553518990753048,2.055351899075305,0.9446481009246952,3.0,1,1.8053518990753048,0,4.0,3.0,1,2,4,0,4,0,0,6,6,1,,,,,,,325.1615487079998,325.1615487079998,326.1618158750007,326.98152658300023,327.2146391670012,327.2146391670012,327.2146391670012,328.16199441699973,328.16199441699973,328.16199441699973,328.16199441699973,329.1613495420006,200005,205,2023-04-11_15h33.57.968,DMS_et_12-36,2022.2.4,None,
39,PRED,12,1.0553518990753048,0,images/picture_1.png,images/picture_1.png,0,"[-11.733433509789462, 11.733433509789464]",-11.733433509789462,11.733433509789464,images/picture_2.png,1,"[11.733433509789464, 11.733433509789462]",11.733433509789464,11.733433509789462,images/picture_3.png,2,"[11.733433509789462, -11.733433509789466]",11.733433509789462,-11.733433509789464,0,1,1,1.0553518990753048,2.055351899075305,0.9446481009246952,3.0,1,1.8053518990753048,0,4.0,3.0,1,2,4,0,4,0,0,7,7,3,,,,,,,329.1613495420006,329.1613495420006,330.16185425000003,330.9812617919997,331.215107,331.215107,331.215107,332.1618558749997,332.1618558749997,332.1618558749997,332.1618558749997,333.161251083,200005,205,2023-04-11_15h33.57.968,DMS_et_12-36,2022.2.4,None,
43,PRED,12,1.0553518990753048,0,images/picture_1.png,images/picture_1.png,0,"[11.733433509789462, -11.733433509789466]",11.733433509789462,-11.733433509789464,images/picture_2.png,1,"[-11.733433509789466, -11.733433509789462]",-11.733433509789464,-11.733433509789462,images/picture_3.png,2,"[-11.733433509789462, 11.733433509789464]",-11.733433509789462,11.733433509789464,0,1,1,1.0553518990753048,2.055351899075305,0.9446481009246952,3.0,1,1.8053518990753048,0,4.0,3.0,1,2,4,0,4,0,0,8,8,7,,,,,,,333.161251083,333.161251083,334.1618620829995,334.9806856670002,335.2137880419996,335.2137880419996,335.2137880419996,336.1618698330003,336.1618698330003,336.1618698330003,336.1618698330003,337.2711559170002,200005,205,2023-04-11_15h33.57.968,DMS_et_12-36,2022.2.4,None,
,,,,,,,,,,,,,,,,,,,,,,,,,,,,,,,,,,,4,0,4,0,,,,,,,,,337.2711559170002,349.2995285830002,,,,,,,,,,,,,200005,205,2023-04-11_15h33.57.968,DMS_et_12-36,2022.2.4,None,
53,UNPRED,12,1.0553518990753048,1,images/picture_2.png,images/picture_1.png,0,"[11.733433509789464, 11.733433509789462]",11.733433509789464,11.733433509789462,images/picture_2.png,1,"[-11.733433509789462, 11.733433509789464]",-11.733433509789462,11.733433509789464,images/picture_3.png,2,"[11.733433509789462, -11.733433509789466]",11.733433509789462,-11.733433509789464,0,1,1,1.0553518990753048,2.055351899075305,0.9446481009246952,3.0,1,1.8053518990753048,0,4.0,3.0,1,2,5,0,5,0,0,0,0,8,,,,,,,349.2995285830002,349.2995285830002,350.31461362499977,351.11472375000085,351.3495382500005,351.3495382500005,351.3495382500005,352.2951568749995,352.2951568749995,352.2951568749995,352.2951568749995,353.31395158300074,200005,205,2023-04-11_15h33.57.968,DMS_et_12-36,2022.2.4,None,
47,UNPRED,12,1.0553518990753048,2,images/picture_3.png,images/picture_1.png,0,"[-11.733433509789462, 11.733433509789464]",-11.733433509789462,11.733433509789464,images/picture_2.png,1,"[-11.733433509789466, -11.733433509789462]",-11.733433509789464,-11.733433509789462,images/picture_3.png,2,"[11.733433509789462, -11.733433509789466]",11.733433509789462,-11.733433509789464,0,1,1,1.0553518990753048,2.055351899075305,0.9446481009246952,3.0,1,1.8053518990753048,0,4.0,3.0,1,2,5,0,5,0,0,1,1,2,,,,,,,353.31395158300074,353.31395158300074,354.3286624169996,355.12819404200127,355.3475381669996,355.3475381669996,355.3475381669996,356.29529891700076,356.29529891700076,356.29529891700076,356.29529891700076,357.29517533299986,200005,205,2023-04-11_15h33.57.968,DMS_et_12-36,2022.2.4,None,
46,UNPRED,12,1.0553518990753048,1,images/picture_2.png,images/picture_1.png,0,"[-11.733433509789462, 11.733433509789464]",-11.733433509789462,11.733433509789464,images/picture_2.png,1,"[11.733433509789462, -11.733433509789466]",11.733433509789462,-11.733433509789464,images/picture_3.png,2,"[-11.733433509789466, -11.733433509789462]",-11.733433509789464,-11.733433509789462,0,1,1,1.0553518990753048,2.055351899075305,0.9446481009246952,3.0,1,1.8053518990753048,0,4.0,3.0,1,2,5,0,5,0,0,2,2,1,,,,,,,357.29517533299986,357.29517533299986,358.2951889579999,359.1146791250012,359.3484701670004,359.3484701670004,359.3484701670004,360.2951386670011,360.2951386670011,360.2951386670011,360.2951386670011,361.31447104200015,200005,205,2023-04-11_15h33.57.968,DMS_et_12-36,2022.2.4,None,
52,UNPRED,12,1.0553518990753048,2,images/picture_3.png,images/picture_1.png,0,"[11.733433509789462, -11.733433509789466]",11.733433509789462,-11.733433509789464,images/picture_2.png,1,"[-11.733433509789462, 11.733433509789464]",-11.733433509789462,11.733433509789464,images/picture_3.png,2,"[-11.733433509789466, -11.733433509789462]",-11.733433509789464,-11.733433509789462,0,1,1,1.0553518990753048,2.055351899075305,0.9446481009246952,3.0,1,1.8053518990753048,0,4.0,3.0,1,2,5,0,5,0,0,3,3,7,,,,,,,361.31447104200015,361.31447104200015,362.3285694999995,363.12860162499965,363.3480856670012,363.3480856670012,363.3480856670012,364.2951403750012,364.2951403750012,364.2951403750012,364.2951403750012,365.31432720799967,200005,205,2023-04-11_15h33.57.968,DMS_et_12-36,2022.2.4,None,
45,UNPRED,12,1.0553518990753048,2,images/picture_3.png,images/picture_1.png,0,"[-11.733433509789462, 11.733433509789464]",-11.733433509789462,11.733433509789464,images/picture_2.png,1,"[11.733433509789464, 11.733433509789462]",11.733433509789464,11.733433509789462,images/picture_3.png,2,"[11.733433509789462, -11.733433509789466]",11.733433509789462,-11.733433509789464,0,1,1,1.0553518990753048,2.055351899075305,0.9446481009246952,3.0,1,1.8053518990753048,0,4.0,3.0,1,2,5,0,5,0,0,4,4,0,,,,,,,365.31432720799967,365.31432720799967,366.3285987920008,367.12837150000087,367.3483405420011,367.3483405420011,367.3483405420011,368.2951308749998,368.2951308749998,368.2951308749998,368.2951308749998,369.2956094580004,200005,205,2023-04-11_15h33.57.968,DMS_et_12-36,2022.2.4,None,
48,UNPRED,12,1.0553518990753048,1,images/picture_2.png,images/picture_1.png,0,"[-11.733433509789462, 11.733433509789464]",-11.733433509789462,11.733433509789464,images/picture_2.png,1,"[11.733433509789462, -11.733433509789466]",11.733433509789462,-11.733433509789464,images/picture_3.png,2,"[11.733433509789464, 11.733433509789462]",11.733433509789464,11.733433509789462,0,1,1,1.0553518990753048,2.055351899075305,0.9446481009246952,3.0,1,1.8053518990753048,0,4.0,3.0,1,2,5,0,5,0,0,5,5,3,,,,,,,369.2956094580004,369.2956094580004,370.2954673330005,371.114494292,371.3480388749995,371.3480388749995,371.3480388749995,372.2950721670004,372.2950721670004,372.2950721670004,372.2950721670004,373.29487704200073,200005,205,2023-04-11_15h33.57.968,DMS_et_12-36,2022.2.4,None,
51,UNPRED,12,1.0553518990753048,0,images/picture_1.png,images/picture_1.png,0,"[11.733433509789464, 11.733433509789462]",11.733433509789464,11.733433509789462,images/picture_2.png,1,"[-11.733433509789462, 11.733433509789464]",-11.733433509789462,11.733433509789464,images/picture_3.png,2,"[-11.733433509789466, -11.733433509789462]",-11.733433509789464,-11.733433509789462,0,1,1,1.0553518990753048,2.055351899075305,0.9446481009246952,3.0,1,1.8053518990753048,0,4.0,3.0,1,2,5,0,5,0,0,6,6,6,,,,,,,373.29487704200073,373.29487704200073,374.29509529200004,375.11450241700004,375.347703458001,375.347703458001,375.347703458001,376.2952065829995,376.2952065829995,376.2952065829995,376.2952065829995,377.31431991700083,200005,205,2023-04-11_15h33.57.968,DMS_et_12-36,2022.2.4,None,
50,UNPRED,12,1.0553518990753048,2,images/picture_3.png,images/picture_1.png,0,"[11.733433509789464, 11.733433509789462]",11.733433509789464,11.733433509789462,images/picture_2.png,1,"[11.733433509789462, -11.733433509789466]",11.733433509789462,-11.733433509789464,images/picture_3.png,2,"[-11.733433509789466, -11.733433509789462]",-11.733433509789464,-11.733433509789462,0,1,1,1.0553518990753048,2.055351899075305,0.9446481009246952,3.0,1,1.8053518990753048,0,4.0,3.0,1,2,5,0,5,0,0,7,7,5,,,,,,,377.31431991700083,377.31431991700083,378.32855800000107,379.12863641700096,379.34809225000026,379.34809225000026,379.34809225000026,380.295159583,380.295159583,380.295159583,380.295159583,381.3144662499999,200005,205,2023-04-11_15h33.57.968,DMS_et_12-36,2022.2.4,None,
49,UNPRED,12,1.0553518990753048,2,images/picture_3.png,images/picture_1.png,0,"[11.733433509789462, -11.733433509789466]",11.733433509789462,-11.733433509789464,images/picture_2.png,1,"[-11.733433509789466, -11.733433509789462]",-11.733433509789464,-11.733433509789462,images/picture_3.png,2,"[-11.733433509789462, 11.733433509789464]",-11.733433509789462,11.733433509789464,0,1,1,1.0553518990753048,2.055351899075305,0.9446481009246952,3.0,1,1.8053518990753048,0,4.0,3.0,1,2,5,0,5,0,0,8,8,4,,,,,,,381.3144662499999,381.3144662499999,382.3286239580011,383.12855333300104,383.348045875,383.348045875,383.348045875,384.2953427499997,384.2953427499997,384.2953427499997,384.2953427499997,385.36440004200085,200005,205,2023-04-11_15h33.57.968,DMS_et_12-36,2022.2.4,None,
,,,,,,,,,,,,,,,,,,,,,,,,,,,,,,,,,,,5,0,5,0,,,,,,,,,385.36440004200085,397.38341691700043,,,,,,,,,,,,,200005,205,2023-04-11_15h33.57.968,DMS_et_12-36,2022.2.4,None,
60,PRED,12,1.0553518990753048,1,images/picture_2.png,images/picture_1.png,0,"[11.733433509789462, -11.733433509789466]",11.733433509789462,-11.733433509789464,images/picture_2.png,1,"[-11.733433509789462, 11.733433509789464]",-11.733433509789462,11.733433509789464,images/picture_3.png,2,"[-11.733433509789466, -11.733433509789462]",-11.733433509789464,-11.733433509789462,0,1,1,1.0553518990753048,2.055351899075305,0.9446481009246952,3.0,1,1.8053518990753048,0,4.0,3.0,1,2,6,0,6,0,0,0,0,6,,,,,,,397.38341691700043,397.38341691700043,398.3953811250012,399.1951755000009,399.4285532080012,399.4285532080012,399.4285532080012,400.38155370800087,400.38155370800087,400.38155370800087,400.38155370800087,401.3946863750007,200005,205,2023-04-11_15h33.57.968,DMS_et_12-36,2022.2.4,None,
58,PRED,12,1.0553518990753048,1,images/picture_2.png,images/picture_1.png,0,"[11.733433509789464, 11.733433509789462]",11.733433509789464,11.733433509789462,images/picture_2.png,1,"[-11.733433509789462, 11.733433509789464]",-11.733433509789462,11.733433509789464,images/picture_3.png,2,"[11.733433509789462, -11.733433509789466]",11.733433509789462,-11.733433509789464,0,1,1,1.0553518990753048,2.055351899075305,0.9446481009246952,3.0,1,1.8053518990753048,0,4.0,3.0,1,2,6,0,6,0,0,1,1,4,,,,,,,401.3946863750007,401.3946863750007,402.3949175830003,403.214692042,403.44846558300014,403.44846558300014,403.44846558300014,404.39515112499976,404.39515112499976,404.39515112499976,404.39515112499976,405.3949140830009,200005,205,2023-04-11_15h33.57.968,DMS_et_12-36,2022.2.4,None,
55,PRED,12,1.0553518990753048,1,images/picture_2.png,images/picture_1.png,0,"[11.733433509789464, 11.733433509789462]",11.733433509789464,11.733433509789462,images/picture_2.png,1,"[11.733433509789462, -11.733433509789466]",11.733433509789462,-11.733433509789464,images/picture_3.png,2,"[-11.733433509789462, 11.733433509789464]",-11.733433509789462,11.733433509789464,0,1,1,1.0553518990753048,2.055351899075305,0.9446481009246952,3.0,1,1.8053518990753048,0,4.0,3.0,1,2,6,0,6,0,0,2,2,1,,,,,,,405.3949140830009,405.3949140830009,406.3950458750005,407.21425058299974,407.4480927500008,407.4480927500008,407.4480927500008,408.3949106250002,408.3949106250002,408.3949106250002,408.3949106250002,409.3946820000001,200005,205,2023-04-11_15h33.57.968,DMS_et_12-36,2022.2.4,None,
62,PRED,12,1.0553518990753048,1,images/picture_2.png,images/picture_1.png,0,"[11.733433509789462, -11.733433509789466]",11.733433509789462,-11.733433509789464,images/picture_2.png,1,"[-11.733433509789466, -11.733433509789462]",-11.733433509789464,-11.733433509789462,images/picture_3.png,2,"[11.733433509789464, 11.733433509789462]",11.733433509789464,11.733433509789462,0,1,1,1.0553518990753048,2.055351899075305,0.9446481009246952,3.0,1,1.8053518990753048,0,4.0,3.0,1,2,6,0,6,0,0,3,3,8,,,,,,,409.3946820000001,409.3946820000001,410.3951080000006,411.2152785420003,411.4475208750009,411.4475208750009,411.4475208750009,412.39517033300035,412.39517033300035,412.39517033300035,412.39517033300035,413.3950047500002,200005,205,2023-04-11_15h33.57.968,DMS_et_12-36,2022.2.4,None,
56,PRED,12,1.0553518990753048,1,images/picture_2.png,images/picture_1.png,0,"[-11.733433509789462, 11.733433509789464]",-11.733433509789462,11.733433509789464,images/picture_2.png,1,"[-11.733433509789466, -11.733433509789462]",-11.733433509789464,-11.733433509789462,images/picture_3.png,2,"[11.733433509789462, -11.733433509789466]",11.733433509789462,-11.733433509789464,0,1,1,1.0553518990753048,2.055351899075305,0.9446481009246952,3.0,1,1.8053518990753048,0,4.0,3.0,1,2,6,0,6,0,0,4,4,2,,,,,,,413.3950047500002,413.3950047500002,414.39480704200105,415.2152818329996,415.4483725000009,415.4483725000009,415.4483725000009,416.3948895000012,416.3948895000012,416.3948895000012,416.3948895000012,417.3960837499999,200005,205,2023-04-11_15h33.57.968,DMS_et_12-36,2022.2.4,None,
61,PRED,12,1.0553518990753048,1,images/picture_2.png,images/picture_1.png,0,"[-11.733433509789462, 11.733433509789464]",-11.733433509789462,11.733433509789464,images/picture_2.png,1,"[11.733433509789464, 11.733433509789462]",11.733433509789464,11.733433509789462,images/picture_3.png,2,"[-11.733433509789466, -11.733433509789462]",-11.733433509789464,-11.733433509789462,0,1,1,1.0553518990753048,2.055351899075305,0.9446481009246952,3.0,1,1.8053518990753048,0,4.0,3.0,1,2,6,0,6,0,0,5,5,7,,,,,,,417.3960837499999,417.3960837499999,418.39510291700026,419.21472466700106,419.4483280830009,419.4483280830009,419.4483280830009,420.39475074999973,420.39475074999973,420.39475074999973,420.39475074999973,421.3949427919997,200005,205,2023-04-11_15h33.57.968,DMS_et_12-36,2022.2.4,None,
54,PRED,12,1.0553518990753048,1,images/picture_2.png,images/picture_1.png,0,"[-11.733433509789466, -11.733433509789462]",-11.733433509789464,-11.733433509789462,images/picture_2.png,1,"[-11.733433509789462, 11.733433509789464]",-11.733433509789462,11.733433509789464,images/picture_3.png,2,"[11.733433509789462, -11.733433509789466]",11.733433509789462,-11.733433509789464,0,1,1,1.0553518990753048,2.055351899075305,0.9446481009246952,3.0,1,1.8053518990753048,0,4.0,3.0,1,2,6,0,6,0,0,6,6,0,,,,,,,421.3949427919997,421.3949427919997,422.3952107080004,423.21462941699974,423.44742204199974,423.44742204199974,423.44742204199974,424.3952515000001,424.3952515000001,424.3952515000001,424.3952515000001,425.3947812080005,200005,205,2023-04-11_15h33.57.968,DMS_et_12-36,2022.2.4,None,
57,PRED,12,1.0553518990753048,1,images/picture_2.png,images/picture_1.png,0,"[11.733433509789462, -11.733433509789466]",11.733433509789462,-11.733433509789464,images/picture_2.png,1,"[-11.733433509789462, 11.733433509789464]",-11.733433509789462,11.733433509789464,images/picture_3.png,2,"[11.733433509789464, 11.733433509789462]",11.733433509789464,11.733433509789462,0,1,1,1.0553518990753048,2.055351899075305,0.9446481009246952,3.0,1,1.8053518990753048,0,4.0,3.0,1,2,6,0,6,0,0,7,7,3,,,,,,,425.3947812080005,425.3947812080005,426.39471287500055,427.2139623330004,427.44712795800115,427.44712795800115,427.44712795800115,428.3952255000004,428.3952255000004,428.3952255000004,428.3952255000004,429.39523991700116,200005,205,2023-04-11_15h33.57.968,DMS_et_12-36,2022.2.4,None,
59,PRED,12,1.0553518990753048,1,images/picture_2.png,images/picture_1.png,0,"[-11.733433509789466, -11.733433509789462]",-11.733433509789464,-11.733433509789462,images/picture_2.png,1,"[11.733433509789462, -11.733433509789466]",11.733433509789462,-11.733433509789464,images/picture_3.png,2,"[-11.733433509789462, 11.733433509789464]",-11.733433509789462,11.733433509789464,0,1,1,1.0553518990753048,2.055351899075305,0.9446481009246952,3.0,1,1.8053518990753048,0,4.0,3.0,1,2,6,0,6,0,0,8,8,5,,,,,,,429.39523991700116,429.39523991700116,430.39523287500015,431.21514766700056,431.4482567920004,431.4482567920004,431.4482567920004,432.3947464169996,432.3947464169996,432.3947464169996,432.3947464169996,433.47301383299964,200005,205,2023-04-11_15h33.57.968,DMS_et_12-36,2022.2.4,None,
,,,,,,,,,,,,,,,,,,,,,,,,,,,,,,,,,,,6,0,6,0,,,,,,,,,433.47301383299964,445.509118375001,,,,,,,,,,,,,200005,205,2023-04-11_15h33.57.968,DMS_et_12-36,2022.2.4,None,
67,UNPRED,12,1.0553518990753048,2,images/picture_3.png,images/picture_1.png,0,"[-11.733433509789462, 11.733433509789464]",-11.733433509789462,11.733433509789464,images/picture_2.png,1,"[11.733433509789462, -11.733433509789466]",11.733433509789462,-11.733433509789464,images/picture_3.png,2,"[11.733433509789464, 11.733433509789462]",11.733433509789464,11.733433509789462,0,1,1,1.0553518990753048,2.055351899075305,0.9446481009246952,3.0,1,1.8053518990753048,0,4.0,3.0,1,2,7,0,7,0,0,0,0,4,,,,,,,445.509118375001,445.509118375001,446.51483066699984,447.3282161669995,447.5616334999995,447.5616334999995,447.5616334999995,448.4953540000006,448.5146974580002,448.5146974580002,448.5146974580002,449.49623837500076,200005,205,2023-04-11_15h33.57.968,DMS_et_12-36,2022.2.4,None,
66,UNPRED,12,1.0553518990753048,1,images/picture_2.png,images/picture_1.png,0,"[11.733433509789464, 11.733433509789462]",11.733433509789464,11.733433509789462,images/picture_2.png,1,"[-11.733433509789462, 11.733433509789464]",-11.733433509789462,11.733433509789464,images/picture_3.png,2,"[11.733433509789462, -11.733433509789466]",11.733433509789462,-11.733433509789464,0,1,1,1.0553518990753048,2.055351899075305,0.9446481009246952,3.0,1,1.8053518990753048,0,4.0,3.0,1,2,7,0,7,0,0,1,1,3,,,,,,,449.49623837500076,449.49623837500076,450.49522612500004,451.3146744580008,451.54842904200086,451.54842904200086,451.54842904200086,452.4950669580012,452.4950669580012,452.4950669580012,452.4950669580012,453.4947669579997,200005,205,2023-04-11_15h33.57.968,DMS_et_12-36,2022.2.4,None,
70,UNPRED,12,1.0553518990753048,1,images/picture_2.png,images/picture_1.png,0,"[-11.733433509789466, -11.733433509789462]",-11.733433509789464,-11.733433509789462,images/picture_2.png,1,"[11.733433509789462, -11.733433509789466]",11.733433509789462,-11.733433509789464,images/picture_3.png,2,"[11.733433509789464, 11.733433509789462]",11.733433509789464,11.733433509789462,0,1,1,1.0553518990753048,2.055351899075305,0.9446481009246952,3.0,1,1.8053518990753048,0,4.0,3.0,1,2,7,0,7,0,0,2,2,7,,,,,,,453.4947669579997,453.4947669579997,454.4950574579998,455.3152245830006,455.5484410829995,455.5484410829995,455.5484410829995,456.4950139169996,456.4950139169996,456.4950139169996,456.4950139169996,457.49518400000125,200005,205,2023-04-11_15h33.57.968,DMS_et_12-36,2022.2.4,None,
71,UNPRED,12,1.0553518990753048,1,images/picture_2.png,images/picture_1.png,0,"[11.733433509789462, -11.733433509789466]",11.733433509789462,-11.733433509789464,images/picture_2.png,1,"[-11.733433509789462, 11.733433509789464]",-11.733433509789462,11.733433509789464,images/picture_3.png,2,"[11.733433509789464, 11.733433509789462]",11.733433509789464,11.733433509789462,0,1,1,1.0553518990753048,2.055351899075305,0.9446481009246952,3.0,1,1.8053518990753048,0,4.0,3.0,1,2,7,0,7,0,0,3,3,8,,,,,,,457.49518400000125,457.49518400000125,458.49506979200123,459.31493512499947,459.5487104170006,459.5487104170006,459.5487104170006,460.4951233330012,460.4951233330012,460.4951233330012,460.4951233330012,461.49505704200055,200005,205,2023-04-11_15h33.57.968,DMS_et_12-36,2022.2.4,None,
65,UNPRED,12,1.0553518990753048,1,images/picture_2.png,images/picture_1.png,0,"[11.733433509789464, 11.733433509789462]",11.733433509789464,11.733433509789462,images/picture_2.png,1,"[-11.733433509789466, -11.733433509789462]",-11.733433509789464,-11.733433509789462,images/picture_3.png,2,"[-11.733433509789462, 11.733433509789464]",-11.733433509789462,11.733433509789464,0,1,1,1.0553518990753048,2.055351899075305,0.9446481009246952,3.0,1,1.8053518990753048,0,4.0,3.0,1,2,7,0,7,0,0,4,4,2,,,,,,,461.49505704200055,461.49505704200055,462.4949286250012,463.3147458330004,463.5480266249997,463.5480266249997,463.5480266249997,464.4953575420004,464.4953575420004,464.4953575420004,464.4953575420004,465.4949049580009,200005,205,2023-04-11_15h33.57.968,DMS_et_12-36,2022.2.4,None,
63,UNPRED,12,1.0553518990753048,0,images/picture_1.png,images/picture_1.png,0,"[-11.733433509789462, 11.733433509789464]",-11.733433509789462,11.733433509789464,images/picture_2.png,1,"[-11.733433509789466, -11.733433509789462]",-11.733433509789464,-11.733433509789462,images/picture_3.png,2,"[11.733433509789464, 11.733433509789462]",11.733433509789464,11.733433509789462,0,1,1,1.0553518990753048,2.055351899075305,0.9446481009246952,3.0,1,1.8053518990753048,0,4.0,3.0,1,2,7,0,7,0,0,5,5,0,,,,,,,465.4949049580009,465.4949049580009,466.49514008299957,467.31477041700055,467.546910250001,467.546910250001,467.546910250001,468.49473166700045,468.49473166700045,468.49473166700045,468.49473166700045,469.49465729199983,200005,205,2023-04-11_15h33.57.968,DMS_et_12-36,2022.2.4,None,
68,UNPRED,12,1.0553518990753048,0,images/picture_1.png,images/picture_1.png,0,"[-11.733433509789462, 11.733433509789464]",-11.733433509789462,11.733433509789464,images/picture_2.png,1,"[11.733433509789464, 11.733433509789462]",11.733433509789464,11.733433509789462,images/picture_3.png,2,"[-11.733433509789466, -11.733433509789462]",-11.733433509789464,-11.733433509789462,0,1,1,1.0553518990753048,2.055351899075305,0.9446481009246952,3.0,1,1.8053518990753048,0,4.0,3.0,1,2,7,0,7,0,0,6,6,5,,,,,,,469.49465729199983,469.49465729199983,470.4950984999996,471.3148667919995,471.54865416699977,471.54865416699977,471.54865416699977,472.4952266670007,472.4952266670007,472.4952266670007,472.4952266670007,473.5138412079996,200005,205,2023-04-11_15h33.57.968,DMS_et_12-36,2022.2.4,None,
69,UNPRED,12,1.0553518990753048,2,images/picture_3.png,images/picture_1.png,0,"[11.733433509789462, -11.733433509789466]",11.733433509789462,-11.733433509789464,images/picture_2.png,1,"[-11.733433509789462, 11.733433509789464]",-11.733433509789462,11.733433509789464,images/picture_3.png,2,"[11.733433509789464, 11.733433509789462]",11.733433509789464,11.733433509789462,0,1,1,1.0553518990753048,2.055351899075305,0.9446481009246952,3.0,1,1.8053518990753048,0,4.0,3.0,1,2,7,0,7,0,0,7,7,6,,,,,,,473.5138412079996,473.5138412079996,474.52841833300045,475.32859983300114,475.5476911250007,475.5476911250007,475.5476911250007,476.49529016700035,476.49529016700035,476.49529016700035,476.49529016700035,477.49450400000023,200005,205,2023-04-11_15h33.57.968,DMS_et_12-36,2022.2.4,None,
64,UNPRED,12,1.0553518990753048,1,images/picture_2.png,images/picture_1.png,0,"[11.733433509789462, -11.733433509789466]",11.733433509789462,-11.733433509789464,images/picture_2.png,1,"[-11.733433509789462, 11.733433509789464]",-11.733433509789462,11.733433509789464,images/picture_3.png,2,"[11.733433509789464, 11.733433509789462]",11.733433509789464,11.733433509789462,0,1,1,1.0553518990753048,2.055351899075305,0.9446481009246952,3.0,1,1.8053518990753048,0,4.0,3.0,1,2,7,0,7,0,0,8,8,1,,,,,,,477.49450400000023,477.49450400000023,478.4948304999998,479.3149029169999,479.54805099999976,479.54805099999976,479.54805099999976,480.49509970799954,480.49509970799954,480.49509970799954,480.49509970799954,481.58240045800085,200005,205,2023-04-11_15h33.57.968,DMS_et_12-36,2022.2.4,None,
,,,,,,,,,,,,,,,,,,,,,,,,,,,,,,,,,,,7,0,7,0,,,,,,,,,481.58240045800085,493.6242875000007,,,,,,,,,,,,,200005,205,2023-04-11_15h33.57.968,DMS_et_12-36,2022.2.4,None,
75,PRED,12,1.0553518990753048,2,images/picture_3.png,images/picture_1.png,0,"[-11.733433509789462, 11.733433509789464]",-11.733433509789462,11.733433509789464,images/picture_2.png,1,"[11.733433509789462, -11.733433509789466]",11.733433509789462,-11.733433509789464,images/picture_3.png,2,"[11.733433509789464, 11.733433509789462]",11.733433509789464,11.733433509789462,0,1,1,1.0553518990753048,2.055351899075305,0.9446481009246952,3.0,1,1.8053518990753048,0,4.0,3.0,1,2,8,0,8,0,0,0,0,3,,,,,,,493.6242875000007,493.6242875000007,494.628620458001,495.42875583299974,495.6618942919995,495.6618942919995,495.6618942919995,496.6144363750009,496.6144363750009,496.6144363750009,496.6144363750009,497.6480621669998,200005,205,2023-04-11_15h33.57.968,DMS_et_12-36,2022.2.4,None,
73,PRED,12,1.0553518990753048,2,images/picture_3.png,images/picture_1.png,0,"[11.733433509789462, -11.733433509789466]",11.733433509789462,-11.733433509789464,images/picture_2.png,1,"[-11.733433509789462, 11.733433509789464]",-11.733433509789462,11.733433509789464,images/picture_3.png,2,"[-11.733433509789466, -11.733433509789462]",-11.733433509789464,-11.733433509789462,0,1,1,1.0553518990753048,2.055351899075305,0.9446481009246952,3.0,1,1.8053518990753048,0,4.0,3.0,1,2,8,0,8,0,0,1,1,1,,,,,,,497.6480621669998,497.6480621669998,498.66162370799975,499.4615379580009,499.6811944580004,499.6811944580004,499.6811944580004,500.6285472920008,500.6285472920008,500.6285472920008,500.6285472920008,501.64722600000096,200005,205,2023-04-11_15h33.57.968,DMS_et_12-36,2022.2.4,None,
80,PRED,12,1.0553518990753048,2,images/picture_3.png,images/picture_1.png,0,"[11.733433509789464, 11.733433509789462]",11.733433509789464,11.733433509789462,images/picture_2.png,1,"[-11.733433509789462, 11.733433509789464]",-11.733433509789462,11.733433509789464,images/picture_3.png,2,"[11.733433509789462, -11.733433509789466]",11.733433509789462,-11.733433509789464,0,1,1,1.0553518990753048,2.055351899075305,0.9446481009246952,3.0,1,1.8053518990753048,0,4.0,3.0,1,2,8,0,8,0,0,2,2,8,,,,,,,501.64722600000096,501.64722600000096,502.66189250000025,503.46182087499983,503.6815582500003,503.6815582500003,503.6815582500003,504.62854524999966,504.62854524999966,504.62854524999966,504.62854524999966,505.64703533300053,200005,205,2023-04-11_15h33.57.968,DMS_et_12-36,2022.2.4,None,
77,PRED,12,1.0553518990753048,2,images/picture_3.png,images/picture_1.png,0,"[11.733433509789462, -11.733433509789466]",11.733433509789462,-11.733433509789464,images/picture_2.png,1,"[-11.733433509789462, 11.733433509789464]",-11.733433509789462,11.733433509789464,images/picture_3.png,2,"[11.733433509789464, 11.733433509789462]",11.733433509789464,11.733433509789462,0,1,1,1.0553518990753048,2.055351899075305,0.9446481009246952,3.0,1,1.8053518990753048,0,4.0,3.0,1,2,8,0,8,0,0,3,3,5,,,,,,,505.64703533300053,505.64703533300053,506.66162987499956,507.462037917001,507.6813557080004,507.6813557080004,507.6813557080004,508.6282248330008,508.6282248330008,508.6282248330008,508.6282248330008,509.62879879200045,200005,205,2023-04-11_15h33.57.968,DMS_et_12-36,2022.2.4,None,
74,PRED,12,1.0553518990753048,2,images/picture_3.png,images/picture_1.png,0,"[11.733433509789464, 11.733433509789462]",11.733433509789464,11.733433509789462,images/picture_2.png,1,"[11.733433509789462, -11.733433509789466]",11.733433509789462,-11.733433509789464,images/picture_3.png,2,"[-11.733433509789462, 11.733433509789464]",-11.733433509789462,11.733433509789464,0,1,1,1.0553518990753048,2.055351899075305,0.9446481009246952,3.0,1,1.8053518990753048,0,4.0,3.0,1,2,8,0,8,0,0,4,4,2,,,,,,,509.62879879200045,509.62879879200045,510.6285556670009,511.4479891250012,511.6815041250011,511.6815041250011,511.6815041250011,512.6285407079995,512.6285407079995,512.6285407079995,512.6285407079995,513.6473184170009,200005,205,2023-04-11_15h33.57.968,DMS_et_12-36,2022.2.4,None,
78,PRED,12,1.0553518990753048,2,images/picture_3.png,images/picture_1.png,0,"[-11.733433509789466, -11.733433509789462]",-11.733433509789464,-11.733433509789462,images/picture_2.png,1,"[11.733433509789464, 11.733433509789462]",11.733433509789464,11.733433509789462,images/picture_3.png,2,"[11.733433509789462, -11.733433509789466]",11.733433509789462,-11.733433509789464,0,1,1,1.0553518990753048,2.055351899075305,0.9446481009246952,3.0,1,1.8053518990753048,0,4.0,3.0,1,2,8,0,8,0,0,5,5,6,,,,,,,513.6473184170009,513.6473184170009,514.6618038750003,515.4618516250011,515.6816064169998,515.6816064169998,515.6816064169998,516.6283712500008,516.6283712500008,516.6283712500008,516.6283712500008,517.6474579999995,200005,205,2023-04-11_15h33.57.968,DMS_et_12-36,2022.2.4,None,
79,PRED,12,1.0553518990753048,2,images/picture_3.png,images/picture_1.png,0,"[11.733433509789462, -11.733433509789466]",11.733433509789462,-11.733433509789464,images/picture_2.png,1,"[11.733433509789464, 11.733433509789462]",11.733433509789464,11.733433509789462,images/picture_3.png,2,"[-11.733433509789462, 11.733433509789464]",-11.733433509789462,11.733433509789464,0,1,1,1.0553518990753048,2.055351899075305,0.9446481009246952,3.0,1,1.8053518990753048,0,4.0,3.0,1,2,8,0,8,0,0,6,6,7,,,,,,,517.6474579999995,517.6474579999995,518.6618178330009,519.4615447920005,519.6804403330007,519.6804403330007,519.6804403330007,520.6286073749998,520.6286073749998,520.6286073749998,520.6286073749998,521.6482194170003,200005,205,2023-04-11_15h33.57.968,DMS_et_12-36,2022.2.4,None,
72,PRED,12,1.0553518990753048,2,images/picture_3.png,images/picture_1.png,0,"[-11.733433509789462, 11.733433509789464]",-11.733433509789462,11.733433509789464,images/picture_2.png,1,"[11.733433509789464, 11.733433509789462]",11.733433509789464,11.733433509789462,images/picture_3.png,2,"[-11.733433509789466, -11.733433509789462]",-11.733433509789464,-11.733433509789462,0,1,1,1.0553518990753048,2.055351899075305,0.9446481009246952,3.0,1,1.8053518990753048,0,4.0,3.0,1,2,8,0,8,0,0,7,7,0,,,,,,,521.6482194170003,521.6482194170003,522.6619239579995,523.4618509169995,523.6813862920008,523.6813862920008,523.6813862920008,524.6286142919998,524.6286142919998,524.6286142919998,524.6286142919998,525.6479797499996,200005,205,2023-04-11_15h33.57.968,DMS_et_12-36,2022.2.4,None,
76,PRED,12,1.0553518990753048,2,images/picture_3.png,images/picture_1.png,0,"[-11.733433509789466, -11.733433509789462]",-11.733433509789464,-11.733433509789462,images/picture_2.png,1,"[11.733433509789464, 11.733433509789462]",11.733433509789464,11.733433509789462,images/picture_3.png,2,"[-11.733433509789462, 11.733433509789464]",-11.733433509789462,11.733433509789464,0,1,1,1.0553518990753048,2.055351899075305,0.9446481009246952,3.0,1,1.8053518990753048,0,4.0,3.0,1,2,8,0,8,0,0,8,8,4,,,,,,,525.6479797499996,525.6479797499996,526.6618070420009,527.4618149170001,527.6814733330011,527.6814733330011,527.6814733330011,528.6285317500005,528.6285317500005,528.6285317500005,528.6285317500005,529.7077184999998,200005,205,2023-04-11_15h33.57.968,DMS_et_12-36,2022.2.4,None,
,,,,,,,,,,,,,,,,,,,,,,,,,,,,,,,,,,,8,0,8,0,,,,,,,,,529.7077184999998,541.7326335830003,,,,,,,,,,,,,200005,205,2023-04-11_15h33.57.968,DMS_et_12-36,2022.2.4,None,
85,UNPRED,12,1.0553518990753048,0,images/picture_1.png,images/picture_1.png,0,"[-11.733433509789462, 11.733433509789464]",-11.733433509789462,11.733433509789464,images/picture_2.png,1,"[-11.733433509789466, -11.733433509789462]",-11.733433509789464,-11.733433509789462,images/picture_3.png,2,"[11.733433509789462, -11.733433509789466]",11.733433509789462,-11.733433509789464,0,1,1,1.0553518990753048,2.055351899075305,0.9446481009246952,3.0,1,1.8053518990753048,0,4.0,3.0,1,2,9,0,9,0,0,0,0,4,,,,,,,541.7326335830003,541.7326335830003,542.7481392919999,543.5483052920008,543.781063167,543.781063167,543.781063167,544.7285603750006,544.7285603750006,544.7285603750006,544.7285603750006,545.7284455829995,200005,205,2023-04-11_15h33.57.968,DMS_et_12-36,2022.2.4,None,
81,UNPRED,12,1.0553518990753048,1,images/picture_2.png,images/picture_1.png,0,"[-11.733433509789466, -11.733433509789462]",-11.733433509789464,-11.733433509789462,images/picture_2.png,1,"[-11.733433509789462, 11.733433509789464]",-11.733433509789462,11.733433509789464,images/picture_3.png,2,"[11.733433509789464, 11.733433509789462]",11.733433509789464,11.733433509789462,0,1,1,1.0553518990753048,2.055351899075305,0.9446481009246952,3.0,1,1.8053518990753048,0,4.0,3.0,1,2,9,0,9,0,0,1,1,0,,,,,,,545.7284455829995,545.7284455829995,546.7286053330008,547.5480286670008,547.7815779579996,547.7815779579996,547.7815779579996,548.7284268330004,548.7284268330004,548.7284268330004,548.7284268330004,549.7474072500008,200005,205,2023-04-11_15h33.57.968,DMS_et_12-36,2022.2.4,None,
86,UNPRED,12,1.0553518990753048,2,images/picture_3.png,images/picture_1.png,0,"[11.733433509789464, 11.733433509789462]",11.733433509789464,11.733433509789462,images/picture_2.png,1,"[11.733433509789462, -11.733433509789466]",11.733433509789462,-11.733433509789464,images/picture_3.png,2,"[-11.733433509789462, 11.733433509789464]",-11.733433509789462,11.733433509789464,0,1,1,1.0553518990753048,2.055351899075305,0.9446481009246952,3.0,1,1.8053518990753048,0,4.0,3.0,1,2,9,0,9,0,0,2,2,5,,,,,,,549.7474072500008,549.7474072500008,550.7614947500006,551.56182825,551.7816965000002,551.7816965000002,551.7816965000002,552.728594917,552.728594917,552.728594917,552.728594917,553.7471319169999,200005,205,2023-04-11_15h33.57.968,DMS_et_12-36,2022.2.4,None,
89,UNPRED,12,1.0553518990753048,2,images/picture_3.png,images/picture_1.png,0,"[11.733433509789462, -11.733433509789466]",11.733433509789462,-11.733433509789464,images/picture_2.png,1,"[-11.733433509789462, 11.733433509789464]",-11.733433509789462,11.733433509789464,images/picture_3.png,2,"[-11.733433509789466, -11.733433509789462]",-11.733433509789464,-11.733433509789462,0,1,1,1.0553518990753048,2.055351899075305,0.9446481009246952,3.0,1,1.8053518990753048,0,4.0,3.0,1,2,9,0,9,0,0,3,3,8,,,,,,,553.7471319169999,553.7471319169999,554.7618669580006,555.561835333001,555.7813082499997,555.7813082499997,555.7813082499997,556.7285950000005,556.7285950000005,556.7285950000005,556.7285950000005,557.7477311670009,200005,205,2023-04-11_15h33.57.968,DMS_et_12-36,2022.2.4,None,
83,UNPRED,12,1.0553518990753048,2,images/picture_3.png,images/picture_1.png,0,"[11.733433509789462, -11.733433509789466]",11.733433509789462,-11.733433509789464,images/picture_2.png,1,"[-11.733433509789466, -11.733433509789462]",-11.733433509789464,-11.733433509789462,images/picture_3.png,2,"[-11.733433509789462, 11.733433509789464]",-11.733433509789462,11.733433509789464,0,1,1,1.0553518990753048,2.055351899075305,0.9446481009246952,3.0,1,1.8053518990753048,0,4.0,3.0,1,2,9,0,9,0,0,4,4,2,,,,,,,557.7477311670009,557.7477311670009,558.7618731250004,559.561816417001,559.7818006670004,559.7818006670004,559.7818006670004,560.7284129170002,560.7284129170002,560.7284129170002,560.7284129170002,561.7475817920003,200005,205,2023-04-11_15h33.57.968,DMS_et_12-36,2022.2.4,None,
87,UNPRED,12,1.0553518990753048,2,images/picture_3.png,images/picture_1.png,0,"[-11.733433509789462, 11.733433509789464]",-11.733433509789462,11.733433509789464,images/picture_2.png,1,"[11.733433509789464, 11.733433509789462]",11.733433509789464,11.733433509789462,images/picture_3.png,2,"[-11.733433509789466, -11.733433509789462]",-11.733433509789464,-11.733433509789462,0,1,1,1.0553518990753048,2.055351899075305,0.9446481009246952,3.0,1,1.8053518990753048,0,4.0,3.0,1,2,9,0,9,0,0,5,5,6,,,,,,,561.7475817920003,561.7475817920003,562.7618044999999,563.5618911250003,563.7817075830008,563.7817075830008,563.7817075830008,564.7286208330006,564.7286208330006,564.7286208330006,564.7286208330006,565.7483584170004,200005,205,2023-04-11_15h33.57.968,DMS_et_12-36,2022.2.4,None,
82,UNPRED,12,1.0553518990753048,1,images/picture_2.png,images/picture_1.png,0,"[-11.733433509789466, -11.733433509789462]",-11.733433509789464,-11.733433509789462,images/picture_2.png,1,"[11.733433509789462, -11.733433509789466]",11.733433509789462,-11.733433509789464,images/picture_3.png,2,"[11.733433509789464, 11.733433509789462]",11.733433509789464,11.733433509789462,0,1,1,1.0553518990753048,2.055351899075305,0.9446481009246952,3.0,1,1.8053518990753048,0,4.0,3.0,1,2,9,0,9,0,0,6,6,1,,,,,,,565.7483584170004,565.7483584170004,566.7618912079997,567.5618227920004,567.781250375001,567.781250375001,567.781250375001,568.7285539580007,568.7285539580007,568.7285539580007,568.7285539580007,569.7279288749996,200005,205,2023-04-11_15h33.57.968,DMS_et_12-36,2022.2.4,None,
84,UNPRED,12,1.0553518990753048,0,images/picture_1.png,images/picture_1.png,0,"[11.733433509789464, 11.733433509789462]",11.733433509789464,11.733433509789462,images/picture_2.png,1,"[11.733433509789462, -11.733433509789466]",11.733433509789462,-11.733433509789464,images/picture_3.png,2,"[-11.733433509789466, -11.733433509789462]",-11.733433509789464,-11.733433509789462,0,1,1,1.0553518990753048,2.055351899075305,0.9446481009246952,3.0,1,1.8053518990753048,0,4.0,3.0,1,2,9,0,9,0,0,7,7,3,,,,,,,569.7279288749996,569.7279288749996,570.7284672080004,571.5481055420005,571.7816672080007,571.7816672080007,571.7816672080007,572.7285795830012,572.7285795830012,572.7285795830012,572.7285795830012,573.747364750001,200005,205,2023-04-11_15h33.57.968,DMS_et_12-36,2022.2.4,None,
88,UNPRED,12,1.0553518990753048,2,images/picture_3.png,images/picture_1.png,0,"[11.733433509789464, 11.733433509789462]",11.733433509789464,11.733433509789462,images/picture_2.png,1,"[-11.733433509789462, 11.733433509789464]",-11.733433509789462,11.733433509789464,images/picture_3.png,2,"[-11.733433509789466, -11.733433509789462]",-11.733433509789464,-11.733433509789462,0,1,1,1.0553518990753048,2.055351899075305,0.9446481009246952,3.0,1,1.8053518990753048,0,4.0,3.0,1,2,9,0,9,0,0,8,8,7,,,,,,,573.747364750001,573.747364750001,574.7618252920001,575.5618768330005,575.7820268329997,575.7820268329997,575.7820268329997,576.7286471669995,576.7286471669995,576.7286471669995,576.7286471669995,577.8346294170005,200005,205,2023-04-11_15h33.57.968,DMS_et_12-36,2022.2.4,None,
,,,,,,,,,,,,,,,,,,,,,,,,,,,,,,,,,,,9,0,9,0,,,,,,,,,577.8346294170005,589.8741679169998,,,,,,,,,,,,,200005,205,2023-04-11_15h33.57.968,DMS_et_12-36,2022.2.4,None,
91,PRED,12,1.0553518990753048,2,images/picture_3.png,images/picture_1.png,0,"[-11.733433509789462, 11.733433509789464]",-11.733433509789462,11.733433509789464,images/picture_2.png,1,"[11.733433509789464, 11.733433509789462]",11.733433509789464,11.733433509789462,images/picture_3.png,2,"[-11.733433509789466, -11.733433509789462]",-11.733433509789464,-11.733433509789462,0,1,1,1.0553518990753048,2.055351899075305,0.9446481009246952,3.0,1,1.8053518990753048,0,4.0,3.0,1,2,10,0,10,0,0,0,0,1,,,,,,,589.8741679169998,589.8741679169998,590.8806255420004,591.6948761250005,591.9138315830005,591.9138315830005,591.9138315830005,592.861802708001,592.861802708001,592.861802708001,592.861802708001,593.8811124580006,200005,205,2023-04-11_15h33.57.968,DMS_et_12-36,2022.2.4,None,
97,PRED,12,1.0553518990753048,2,images/picture_3.png,images/picture_1.png,0,"[11.733433509789462, -11.733433509789466]",11.733433509789462,-11.733433509789464,images/picture_2.png,1,"[-11.733433509789462, 11.733433509789464]",-11.733433509789462,11.733433509789464,images/picture_3.png,2,"[-11.733433509789466, -11.733433509789462]",-11.733433509789464,-11.733433509789462,0,1,1,1.0553518990753048,2.055351899075305,0.9446481009246952,3.0,1,1.8053518990753048,0,4.0,3.0,1,2,10,0,10,0,0,1,1,7,,,,,,,593.8811124580006,593.8811124580006,594.8953455829997,595.6951490829997,595.9150213329995,595.9150213329995,595.9150213329995,596.861951750001,596.861951750001,596.861951750001,596.861951750001,597.881733708,200005,205,2023-04-11_15h33.57.968,DMS_et_12-36,2022.2.4,None,
90,PRED,12,1.0553518990753048,2,images/picture_3.png,images/picture_1.png,0,"[11.733433509789464, 11.733433509789462]",11.733433509789464,11.733433509789462,images/picture_2.png,1,"[11.733433509789462, -11.733433509789466]",11.733433509789462,-11.733433509789464,images/picture_3.png,2,"[-11.733433509789466, -11.733433509789462]",-11.733433509789464,-11.733433509789462,0,1,1,1.0553518990753048,2.055351899075305,0.9446481009246952,3.0,1,1.8053518990753048,0,4.0,3.0,1,2,10,0,10,0,0,2,2,0,,,,,,,597.881733708,597.881733708,598.8950954579996,599.695085667001,599.9144866670013,599.9144866670013,599.9144866670013,600.8616072919995,600.8616072919995,600.8616072919995,600.8616072919995,601.8629196250004,200005,205,2023-04-11_15h33.57.968,DMS_et_12-36,2022.2.4,None,
96,PRED,12,1.0553518990753048,2,images/picture_3.png,images/picture_1.png,0,"[-11.733433509789466, -11.733433509789462]",-11.733433509789464,-11.733433509789462,images/picture_2.png,1,"[11.733433509789462, -11.733433509789466]",11.733433509789462,-11.733433509789464,images/picture_3.png,2,"[-11.733433509789462, 11.733433509789464]",-11.733433509789462,11.733433509789464,0,1,1,1.0553518990753048,2.055351899075305,0.9446481009246952,3.0,1,1.8053518990753048,0,4.0,3.0,1,2,10,0,10,0,0,3,3,6,,,,,,,601.8629196250004,601.8629196250004,602.8618598329995,603.6816143329997,603.9147041249998,603.9147041249998,603.9147041249998,604.8618205000002,604.8618205000002,604.8618205000002,604.8618205000002,605.8813071250006,200005,205,2023-04-11_15h33.57.968,DMS_et_12-36,2022.2.4,None,
94,PRED,12,1.0553518990753048,2,images/picture_3.png,images/picture_1.png,0,"[-11.733433509789462, 11.733433509789464]",-11.733433509789462,11.733433509789464,images/picture_2.png,1,"[-11.733433509789466, -11.733433509789462]",-11.733433509789464,-11.733433509789462,images/picture_3.png,2,"[11.733433509789464, 11.733433509789462]",11.733433509789464,11.733433509789462,0,1,1,1.0553518990753048,2.055351899075305,0.9446481009246952,3.0,1,1.8053518990753048,0,4.0,3.0,1,2,10,0,10,0,0,4,4,4,,,,,,,605.8813071250006,605.8813071250006,606.895121208001,607.6951534170003,607.9145624169996,607.9145624169996,607.9145624169996,608.861888333,608.861888333,608.861888333,608.861888333,609.8812580000013,200005,205,2023-04-11_15h33.57.968,DMS_et_12-36,2022.2.4,None,
95,PRED,12,1.0553518990753048,2,images/picture_3.png,images/picture_1.png,0,"[11.733433509789462, -11.733433509789466]",11.733433509789462,-11.733433509789464,images/picture_2.png,1,"[-11.733433509789466, -11.733433509789462]",-11.733433509789464,-11.733433509789462,images/picture_3.png,2,"[11.733433509789464, 11.733433509789462]",11.733433509789464,11.733433509789462,0,1,1,1.0553518990753048,2.055351899075305,0.9446481009246952,3.0,1,1.8053518990753048,0,4.0,3.0,1,2,10,0,10,0,0,5,5,5,,,,,,,609.8812580000013,609.8812580000013,610.8953030419998,611.6949795,611.9136838750001,611.9136838750001,611.9136838750001,612.8618190420002,612.8618190420002,612.8618190420002,612.8618190420002,613.8804495420009,200005,205,2023-04-11_15h33.57.968,DMS_et_12-36,2022.2.4,None,
98,PRED,12,1.0553518990753048,2,images/picture_3.png,images/picture_1.png,0,"[-11.733433509789466, -11.733433509789462]",-11.733433509789464,-11.733433509789462,images/picture_2.png,1,"[-11.733433509789462, 11.733433509789464]",-11.733433509789462,11.733433509789464,images/picture_3.png,2,"[11.733433509789464, 11.733433509789462]",11.733433509789464,11.733433509789462,0,1,1,1.0553518990753048,2.055351899075305,0.9446481009246952,3.0,1,1.8053518990753048,0,4.0,3.0,1,2,10,0,10,0,0,6,6,8,,,,,,,613.8804495420009,613.8804495420009,614.8950776670008,615.6951725830004,615.9149882080001,615.9149882080001,615.9149882080001,616.8619440830007,616.8619440830007,616.8619440830007,616.8619440830007,617.8807278330005,200005,205,2023-04-11_15h33.57.968,DMS_et_12-36,2022.2.4,None,
93,PRED,12,1.0553518990753048,2,images/picture_3.png,images/picture_1.png,0,"[-11.733433509789466, -11.733433509789462]",-11.733433509789464,-11.733433509789462,images/picture_2.png,1,"[11.733433509789464, 11.733433509789462]",11.733433509789464,11.733433509789462,images/picture_3.png,2,"[11.733433509789462, -11.733433509789466]",11.733433509789462,-11.733433509789464,0,1,1,1.0553518990753048,2.055351899075305,0.9446481009246952,3.0,1,1.8053518990753048,0,4.0,3.0,1,2,10,0,10,0,0,7,7,3,,,,,,,617.8807278330005,617.8807278330005,618.8951247919995,619.6951237920002,619.9146362920001,619.9146362920001,619.9146362920001,620.8618473330007,620.8618473330007,620.8618473330007,620.8618473330007,621.8627271670011,200005,205,2023-04-11_15h33.57.968,DMS_et_12-36,2022.2.4,None,
92,PRED,12,1.0553518990753048,2,images/picture_3.png,images/picture_1.png,0,"[11.733433509789462, -11.733433509789466]",11.733433509789462,-11.733433509789464,images/picture_2.png,1,"[-11.733433509789466, -11.733433509789462]",-11.733433509789464,-11.733433509789462,images/picture_3.png,2,"[-11.733433509789462, 11.733433509789464]",-11.733433509789462,11.733433509789464,0,1,1,1.0553518990753048,2.055351899075305,0.9446481009246952,3.0,1,1.8053518990753048,0,4.0,3.0,1,2,10,0,10,0,0,8,8,2,,,,,,,621.8627271670011,621.8627271670011,622.8618774999995,623.6816634170009,623.9143322920008,623.9143322920008,623.9143322920008,624.8618298330002,624.8618298330002,624.8618298330002,624.8618298330002,625.9745825000009,200005,205,2023-04-11_15h33.57.968,DMS_et_12-36,2022.2.4,None,
,,,,,,,,,,,,,,,,,,,,,,,,,,,,,,,,,,,10,0,10,0,,,,,,,,,625.9745825000009,638.0012470830006,,,,,,,,,,,,,200005,205,2023-04-11_15h33.57.968,DMS_et_12-36,2022.2.4,None,
106,UNPRED,12,1.0553518990753048,0,images/picture_1.png,images/picture_1.png,0,"[11.733433509789462, -11.733433509789466]",11.733433509789462,-11.733433509789464,images/picture_2.png,1,"[-11.733433509789462, 11.733433509789464]",-11.733433509789462,11.733433509789464,images/picture_3.png,2,"[-11.733433509789466, -11.733433509789462]",-11.733433509789464,-11.733433509789462,0,1,1,1.0553518990753048,2.055351899075305,0.9446481009246952,3.0,1,1.8053518990753048,0,4.0,3.0,1,2,11,0,11,0,0,0,0,7,,,,,,,638.0012470830006,638.0012470830006,639.0145378750003,639.8148102920004,640.0619240830001,640.0619240830001,640.0619240830001,640.9952787500006,641.0150574170002,641.0150574170002,641.0150574170002,642.0136802920006,200005,205,2023-04-11_15h33.57.968,DMS_et_12-36,2022.2.4,None,
99,UNPRED,12,1.0553518990753048,2,images/picture_3.png,images/picture_1.png,0,"[-11.733433509789466, -11.733433509789462]",-11.733433509789464,-11.733433509789462,images/picture_2.png,1,"[11.733433509789462, -11.733433509789466]",11.733433509789462,-11.733433509789464,images/picture_3.png,2,"[-11.733433509789462, 11.733433509789464]",-11.733433509789462,11.733433509789464,0,1,1,1.0553518990753048,2.055351899075305,0.9446481009246952,3.0,1,1.8053518990753048,0,4.0,3.0,1,2,11,0,11,0,0,1,1,0,,,,,,,642.0136802920006,642.0136802920006,643.0282677499999,643.8285181250012,644.0485590830012,644.0485590830012,644.0485590830012,644.9952758750005,644.9952758750005,644.9952758750005,644.9952758750005,645.9943958750009,200005,205,2023-04-11_15h33.57.968,DMS_et_12-36,2022.2.4,None,
101,UNPRED,12,1.0553518990753048,0,images/picture_1.png,images/picture_1.png,0,"[-11.733433509789462, 11.733433509789464]",-11.733433509789462,11.733433509789464,images/picture_2.png,1,"[11.733433509789464, 11.733433509789462]",11.733433509789464,11.733433509789462,images/picture_3.png,2,"[11.733433509789462, -11.733433509789466]",11.733433509789462,-11.733433509789464,0,1,1,1.0553518990753048,2.055351899075305,0.9446481009246952,3.0,1,1.8053518990753048,0,4.0,3.0,1,2,11,0,11,0,0,2,2,2,,,,,,,645.9943958750009,645.9943958750009,646.9949391669998,647.815104708001,648.0487767080012,648.0487767080012,648.0487767080012,648.9951649579998,648.9951649579998,648.9951649579998,648.9951649579998,650.0139174579999,200005,205,2023-04-11_15h33.57.968,DMS_et_12-36,2022.2.4,None,
102,UNPRED,12,1.0553518990753048,2,images/picture_3.png,images/picture_1.png,0,"[11.733433509789462, -11.733433509789466]",11.733433509789462,-11.733433509789464,images/picture_2.png,1,"[-11.733433509789466, -11.733433509789462]",-11.733433509789464,-11.733433509789462,images/picture_3.png,2,"[11.733433509789464, 11.733433509789462]",11.733433509789464,11.733433509789462,0,1,1,1.0553518990753048,2.055351899075305,0.9446481009246952,3.0,1,1.8053518990753048,0,4.0,3.0,1,2,11,0,11,0,0,3,3,3,,,,,,,650.0139174579999,650.0139174579999,651.0285768329995,651.8286469169998,652.047986042,652.047986042,652.047986042,652.9949817500001,652.9949817500001,652.9949817500001,652.9949817500001,654.0138501250003,200005,205,2023-04-11_15h33.57.968,DMS_et_12-36,2022.2.4,None,
103,UNPRED,12,1.0553518990753048,2,images/picture_3.png,images/picture_1.png,0,"[-11.733433509789466, -11.733433509789462]",-11.733433509789464,-11.733433509789462,images/picture_2.png,1,"[11.733433509789464, 11.733433509789462]",11.733433509789464,11.733433509789462,images/picture_3.png,2,"[11.733433509789462, -11.733433509789466]",11.733433509789462,-11.733433509789464,0,1,1,1.0553518990753048,2.055351899075305,0.9446481009246952,3.0,1,1.8053518990753048,0,4.0,3.0,1,2,11,0,11,0,0,4,4,4,,,,,,,654.0138501250003,654.0138501250003,655.028618667,655.8284226670003,656.0479091249999,656.0479091249999,656.0479091249999,656.995225042001,656.995225042001,656.995225042001,656.995225042001,658.0138354580013,200005,205,2023-04-11_15h33.57.968,DMS_et_12-36,2022.2.4,None,
107,UNPRED,12,1.0553518990753048,2,images/picture_3.png,images/picture_1.png,0,"[11.733433509789464, 11.733433509789462]",11.733433509789464,11.733433509789462,images/picture_2.png,1,"[-11.733433509789466, -11.733433509789462]",-11.733433509789464,-11.733433509789462,images/picture_3.png,2,"[11.733433509789462, -11.733433509789466]",11.733433509789462,-11.733433509789464,0,1,1,1.0553518990753048,2.055351899075305,0.9446481009246952,3.0,1,1.8053518990753048,0,4.0,3.0,1,2,11,0,11,0,0,5,5,8,,,,,,,658.0138354580013,658.0138354580013,659.0286227500001,659.8285578329996,660.0481418750005,660.0481418750005,660.0481418750005,660.9951397919995,660.9951397919995,660.9951397919995,660.9951397919995,661.99472375,200005,205,2023-04-11_15h33.57.968,DMS_et_12-36,2022.2.4,None,
104,UNPRED,12,1.0553518990753048,0,images/picture_1.png,images/picture_1.png,0,"[11.733433509789462, -11.733433509789466]",11.733433509789462,-11.733433509789464,images/picture_2.png,1,"[-11.733433509789466, -11.733433509789462]",-11.733433509789464,-11.733433509789462,images/picture_3.png,2,"[11.733433509789464, 11.733433509789462]",11.733433509789464,11.733433509789462,0,1,1,1.0553518990753048,2.055351899075305,0.9446481009246952,3.0,1,1.8053518990753048,0,4.0,3.0,1,2,11,0,11,0,0,6,6,5,,,,,,,661.99472375,661.99472375,662.9950575000003,663.8148799580013,664.0480845000002,664.0480845000002,664.0480845000002,664.9953093750009,664.9953093750009,664.9953093750009,664.9953093750009,665.9959921669997,200005,205,2023-04-11_15h33.57.968,DMS_et_12-36,2022.2.4,None,
100,UNPRED,12,1.0553518990753048,1,images/picture_2.png,images/picture_1.png,0,"[-11.733433509789462, 11.733433509789464]",-11.733433509789462,11.733433509789464,images/picture_2.png,1,"[11.733433509789464, 11.733433509789462]",11.733433509789464,11.733433509789462,images/picture_3.png,2,"[-11.733433509789466, -11.733433509789462]",-11.733433509789464,-11.733433509789462,0,1,1,1.0553518990753048,2.055351899075305,0.9446481009246952,3.0,1,1.8053518990753048,0,4.0,3.0,1,2,11,0,11,0,0,7,7,1,,,,,,,665.9959921669997,665.9959921669997,666.9952874999999,667.8146164999998,668.047975292,668.047975292,668.047975292,668.9951417920001,668.9951417920001,668.9951417920001,668.9951417920001,669.9947590419997,200005,205,2023-04-11_15h33.57.968,DMS_et_12-36,2022.2.4,None,
105,UNPRED,12,1.0553518990753048,0,images/picture_1.png,images/picture_1.png,0,"[11.733433509789462, -11.733433509789466]",11.733433509789462,-11.733433509789464,images/picture_2.png,1,"[-11.733433509789466, -11.733433509789462]",-11.733433509789464,-11.733433509789462,images/picture_3.png,2,"[-11.733433509789462, 11.733433509789464]",-11.733433509789462,11.733433509789464,0,1,1,1.0553518990753048,2.055351899075305,0.9446481009246952,3.0,1,1.8053518990753048,0,4.0,3.0,1,2,11,0,11,0,0,8,8,6,,,,,,,669.9947590419997,669.9947590419997,670.9950977919998,671.8153409999995,672.0478904169995,672.0478904169995,672.0478904169995,672.9948732080011,672.9948732080011,672.9948732080011,672.9948732080011,674.1729930830006,200005,205,2023-04-11_15h33.57.968,DMS_et_12-36,2022.2.4,None,
,,,,,,,,,,,,,,,,,,,,,,,,,,,,,,,,,,,11,0,11,0,,,,,,,,,674.1729930830006,686.3087177079997,,,,,,,,,,,,,200005,205,2023-04-11_15h33.57.968,DMS_et_12-36,2022.2.4,None,
,,,,,,,,,,,,,,,,,,,,,,,,,,,,,,,,,,,,,,,,,,,,,,,686.3087177079997,698.8422311249997,,,,,,,,,,,,,,,,,,,
