trial_count,blockType,blockNum,delay_time,stimImage_i,stimImage,responseImage1,responseImage1_i,responseImage1_pos,responseImage1_X,responseImage1_Y,responseImage2,responseImage2_i,responseImage2_pos,responseImage2_X,responseImage2_Y,responseImage3,responseImage3_i,responseImage3_pos,responseImage3_X,responseImage3_Y,cue_onset,cue_dur,delay_onset,delay_dur,resp_onset,resp_dur,rest_onset,rest_dur,circle_dur,circle_onset,blocks.thisRepN,blocks.thisTrialN,blocks.thisN,blocks.thisIndex,trials.thisRepN,trials.thisTrialN,trials.thisN,trials.thisIndex,key_resp.started,text.started,key_resp.keys,key_resp.rt,text_2.started,text_2.stopped,etRecord.started,sample.started,Delay.started,sample.stopped,Delay.stopped,Response_1.started,Response_2.started,Response_3.started,polygon.started,Response_1.stopped,Response_2.stopped,Response_3.stopped,etRecord.stopped,polygon.stopped,participant,session,date,expName,psychopyVersion,frameRate,
,,,,,,,,,,,,,,,,,,,,,,,,,,,,,,,,,,,,,,,15.730944834002003,15.730944834002003,t,63.70460487499804,,,,,,,,,,,,,,,,,200001,001,2023-03-10_11h52.53.490,DMS_BEST_eyetracking_DAN_base_12-36_looped_10minWORKING,2022.2.4,None,
3,PRED,12,1.1938205159608626,1,images/picture_2.png,images/picture_1.png,0,"[11.733433509789464, 11.733433509789462]",11.733433509789464,11.733433509789462,images/picture_2.png,1,"[11.733433509789462, -11.733433509789466]",11.733433509789462,-11.733433509789464,images/picture_3.png,2,"[-11.733433509789466, -11.733433509789462]",-11.733433509789464,-11.733433509789462,0,1,1,1.1938205159608626,2.1938205159608626,0.8061794840391374,3,1,1.9438205159608624,0,0,0,0,0,0,0,0,3,,,,,79.44630662500276,91.48565104199952,,,,,,,,,,,,,,,200001,001,2023-03-10_11h52.53.490,DMS_BEST_eyetracking_DAN_base_12-36_looped_10minWORKING,2022.2.4,None,
3,PRED,12,1.1938205159608626,1,images/picture_2.png,images/picture_1.png,0,"[11.733433509789464, 11.733433509789462]",11.733433509789464,11.733433509789462,images/picture_2.png,1,"[11.733433509789462, -11.733433509789466]",11.733433509789462,-11.733433509789464,images/picture_3.png,2,"[-11.733433509789466, -11.733433509789462]",-11.733433509789464,-11.733433509789462,0,1,1,1.1938205159608626,2.1938205159608626,0.8061794840391374,3,1,1.9438205159608624,0,0,0,0,0,0,0,0,3,,,,,,,0.005440666998765664,91.48565104199952,91.48565104199952,92.49382854199939,93.4271341670028,93.67900487500083,93.67900487500083,93.67900487500083,94.47909224999967,94.49362312499943,94.49362312499943,94.49362312499943,4.0097832499996,95.51343650000126,200001,001,2023-03-10_11h52.53.490,DMS_BEST_eyetracking_DAN_base_12-36_looped_10minWORKING,2022.2.4,None,
6,PRED,12,0.9550047230070856,1,images/picture_2.png,images/picture_1.png,0,"[11.733433509789464, 11.733433509789462]",11.733433509789464,11.733433509789462,images/picture_2.png,1,"[-11.733433509789466, -11.733433509789462]",-11.733433509789464,-11.733433509789462,images/picture_3.png,2,"[-11.733433509789462, 11.733433509789464]",-11.733433509789462,11.733433509789464,0,1,1,0.9550047230070856,1.9550047230070853,1.0449952769929145,3,1,1.7050047230070855,0,0,0,0,0,0,1,1,6,,,,,,,,,,,,,,,,,,,,,200001,001,2023-03-10_11h52.53.490,DMS_BEST_eyetracking_DAN_base_12-36_looped_10minWORKING,2022.2.4,None,
6,PRED,12,0.9550047230070856,1,images/picture_2.png,images/picture_1.png,0,"[11.733433509789464, 11.733433509789462]",11.733433509789464,11.733433509789462,images/picture_2.png,1,"[-11.733433509789466, -11.733433509789462]",-11.733433509789464,-11.733433509789462,images/picture_3.png,2,"[-11.733433509789462, 11.733433509789464]",-11.733433509789462,11.733433509789464,0,1,1,0.9550047230070856,1.9550047230070853,1.0449952769929145,3,1,1.7050047230070855,0,0,0,0,0,0,1,1,6,,,,,,,0.005091999999422114,95.51343650000126,95.51343650000126,96.52713920899987,97.22710170900245,97.44638633400245,97.44638633400245,97.44638633400245,98.49380200000087,98.49380200000087,98.49380200000087,98.49380200000087,4.02986704200157,99.49384416700195,200001,001,2023-03-10_11h52.53.490,DMS_BEST_eyetracking_DAN_base_12-36_looped_10minWORKING,2022.2.4,None,
7,PRED,12,0.7318853340304521,1,images/picture_2.png,images/picture_1.png,0,"[-11.733433509789462, 11.733433509789464]",-11.733433509789462,11.733433509789464,images/picture_2.png,1,"[11.733433509789464, 11.733433509789462]",11.733433509789464,11.733433509789462,images/picture_3.png,2,"[-11.733433509789466, -11.733433509789462]",-11.733433509789464,-11.733433509789462,0,1,1,0.7318853340304521,1.731885334030452,1.268114665969548,3,1,1.481885334030452,0,0,0,0,0,0,2,2,7,,,,,,,,,,,,,,,,,,,,,200001,001,2023-03-10_11h52.53.490,DMS_BEST_eyetracking_DAN_base_12-36_looped_10minWORKING,2022.2.4,None,
7,PRED,12,0.7318853340304521,1,images/picture_2.png,images/picture_1.png,0,"[-11.733433509789462, 11.733433509789464]",-11.733433509789462,11.733433509789464,images/picture_2.png,1,"[11.733433509789464, 11.733433509789462]",11.733433509789464,11.733433509789462,images/picture_3.png,2,"[-11.733433509789466, -11.733433509789462]",-11.733433509789464,-11.733433509789462,0,1,1,0.7318853340304521,1.731885334030452,1.268114665969548,3,1,1.481885334030452,0,0,0,0,0,0,2,2,7,,,,,,,0.004984458999388153,99.54713987500145,99.54713987500145,100.56076112500159,101.02729441700285,101.26023875000101,101.26023875000101,101.26023875000101,102.52712900000188,102.52712900000188,102.52712900000188,102.52712900000188,4.029858124999009,103.527205917002,200001,001,2023-03-10_11h52.53.490,DMS_BEST_eyetracking_DAN_base_12-36_looped_10minWORKING,2022.2.4,None,
5,PRED,12,0.6693413888051982,1,images/picture_2.png,images/picture_1.png,0,"[-11.733433509789466, -11.733433509789462]",-11.733433509789464,-11.733433509789462,images/picture_2.png,1,"[11.733433509789462, -11.733433509789466]",11.733433509789462,-11.733433509789464,images/picture_3.png,2,"[-11.733433509789462, 11.733433509789464]",-11.733433509789462,11.733433509789464,0,1,1,0.6693413888051982,1.6693413888051982,1.3306586111948018,3,1,1.4193413888051982,0,0,0,0,0,0,3,3,5,,,,,,,,,,,,,,,,,,,,,200001,001,2023-03-10_11h52.53.490,DMS_BEST_eyetracking_DAN_base_12-36_looped_10minWORKING,2022.2.4,None,
5,PRED,12,0.6693413888051982,1,images/picture_2.png,images/picture_1.png,0,"[-11.733433509789466, -11.733433509789462]",-11.733433509789464,-11.733433509789462,images/picture_2.png,1,"[11.733433509789462, -11.733433509789466]",11.733433509789462,-11.733433509789464,images/picture_3.png,2,"[-11.733433509789462, 11.733433509789464]",-11.733433509789462,11.733433509789464,0,1,1,0.6693413888051982,1.6693413888051982,1.3306586111948018,3,1,1.4193413888051982,0,0,0,0,0,0,3,3,5,,,,,,,0.004815457999939099,103.58028395899964,103.58028395899964,104.59340412500023,105.01306170899989,105.2270973750019,105.2270973750019,105.2270973750019,106.56074200000148,106.56074200000148,106.56074200000148,106.56074200000148,4.03043466699819,107.56080245900012,200001,001,2023-03-10_11h52.53.490,DMS_BEST_eyetracking_DAN_base_12-36_looped_10minWORKING,2022.2.4,None,
2,PRED,12,1.1284230863117128,1,images/picture_2.png,images/picture_1.png,0,"[-11.733433509789462, 11.733433509789464]",-11.733433509789462,11.733433509789464,images/picture_2.png,1,"[11.733433509789464, 11.733433509789462]",11.733433509789464,11.733433509789462,images/picture_3.png,2,"[-11.733433509789466, -11.733433509789462]",-11.733433509789464,-11.733433509789462,0,1,1,1.1284230863117128,2.128423086311713,0.8715769136882869,3,1,1.878423086311713,0,0,0,0,0,0,4,4,2,,,,,,,,,,,,,,,,,,,,,200001,001,2023-03-10_11h52.53.490,DMS_BEST_eyetracking_DAN_base_12-36_looped_10minWORKING,2022.2.4,None,
2,PRED,12,1.1284230863117128,1,images/picture_2.png,images/picture_1.png,0,"[-11.733433509789462, 11.733433509789464]",-11.733433509789462,11.733433509789464,images/picture_2.png,1,"[11.733433509789464, 11.733433509789462]",11.733433509789464,11.733433509789462,images/picture_3.png,2,"[-11.733433509789466, -11.733433509789462]",-11.733433509789464,-11.733433509789462,0,1,1,1.1284230863117128,2.128423086311713,0.8715769136882869,3,1,1.878423086311713,0,0,0,0,0,0,4,4,2,,,,,,,0.004909957999188919,107.61370016699948,107.61370016699948,108.62714487500125,109.49397954199958,109.71373474999928,109.71373474999928,109.71373474999928,110.59383750000052,110.59383750000052,110.59383750000052,110.59383750000052,4.030587041001127,111.59405179200257,200001,001,2023-03-10_11h52.53.490,DMS_BEST_eyetracking_DAN_base_12-36_looped_10minWORKING,2022.2.4,None,
4,PRED,12,0.5949357833197901,1,images/picture_2.png,images/picture_1.png,0,"[11.733433509789462, -11.733433509789466]",11.733433509789462,-11.733433509789464,images/picture_2.png,1,"[-11.733433509789462, 11.733433509789464]",-11.733433509789462,11.733433509789464,images/picture_3.png,2,"[-11.733433509789466, -11.733433509789462]",-11.733433509789464,-11.733433509789462,0,1,1,0.5949357833197901,1.59493578331979,1.40506421668021,3,1,1.34493578331979,0,0,0,0,0,0,5,5,4,,,,,,,,,,,,,,,,,,,,,200001,001,2023-03-10_11h52.53.490,DMS_BEST_eyetracking_DAN_base_12-36_looped_10minWORKING,2022.2.4,None,
4,PRED,12,0.5949357833197901,1,images/picture_2.png,images/picture_1.png,0,"[11.733433509789462, -11.733433509789466]",11.733433509789462,-11.733433509789464,images/picture_2.png,1,"[-11.733433509789462, 11.733433509789464]",-11.733433509789462,11.733433509789464,images/picture_3.png,2,"[-11.733433509789466, -11.733433509789462]",-11.733433509789464,-11.733433509789462,0,1,1,0.5949357833197901,1.59493578331979,1.40506421668021,3,1,1.34493578331979,0,0,0,0,0,0,5,5,4,,,,,,,0.0049319999998260755,111.64662862499972,111.64662862499972,112.66054720900138,112.99390962500183,113.22705400000268,113.22705400000268,113.22705400000268,114.62672408400249,114.64584100000138,114.64584100000138,114.64584100000138,4.029486750001524,115.6273038750005,200001,001,2023-03-10_11h52.53.490,DMS_BEST_eyetracking_DAN_base_12-36_looped_10minWORKING,2022.2.4,None,
0,PRED,12,0.9326621247010212,1,images/picture_2.png,images/picture_1.png,0,"[11.733433509789464, 11.733433509789462]",11.733433509789464,11.733433509789462,images/picture_2.png,1,"[-11.733433509789466, -11.733433509789462]",-11.733433509789464,-11.733433509789462,images/picture_3.png,2,"[11.733433509789462, -11.733433509789466]",11.733433509789462,-11.733433509789464,0,1,1,0.9326621247010212,1.9326621247010207,1.0673378752989788,3,1,1.6826621247010212,0,0,0,0,0,0,6,6,0,,,,,,,,,,,,,,,,,,,,,200001,001,2023-03-10_11h52.53.490,DMS_BEST_eyetracking_DAN_base_12-36_looped_10minWORKING,2022.2.4,None,
0,PRED,12,0.9326621247010212,1,images/picture_2.png,images/picture_1.png,0,"[11.733433509789464, 11.733433509789462]",11.733433509789464,11.733433509789462,images/picture_2.png,1,"[-11.733433509789466, -11.733433509789462]",-11.733433509789464,-11.733433509789462,images/picture_3.png,2,"[11.733433509789462, -11.733433509789466]",11.733433509789462,-11.733433509789464,0,1,1,0.9326621247010212,1.9326621247010207,1.0673378752989788,3,1,1.6826621247010212,0,0,0,0,0,0,6,6,0,,,,,,,0.004812291997950524,115.67985625000074,115.67985625000074,116.6938473750015,117.36058475000027,117.59376970900121,117.59376970900121,117.59376970900121,118.6606007090013,118.6606007090013,118.6606007090013,118.6606007090013,4.031128791997617,119.6606512090002,200001,001,2023-03-10_11h52.53.490,DMS_BEST_eyetracking_DAN_base_12-36_looped_10minWORKING,2022.2.4,None,
1,PRED,12,1.000201767866499,1,images/picture_2.png,images/picture_1.png,0,"[-11.733433509789462, 11.733433509789464]",-11.733433509789462,11.733433509789464,images/picture_2.png,1,"[11.733433509789464, 11.733433509789462]",11.733433509789464,11.733433509789462,images/picture_3.png,2,"[-11.733433509789466, -11.733433509789462]",-11.733433509789464,-11.733433509789462,0,1,1,1.000201767866499,2.000201767866499,0.999798232133501,3,1,1.7502017678664992,0,0,0,0,0,0,7,7,1,,,,,,,,,,,,,,,,,,,,,200001,001,2023-03-10_11h52.53.490,DMS_BEST_eyetracking_DAN_base_12-36_looped_10minWORKING,2022.2.4,None,
1,PRED,12,1.000201767866499,1,images/picture_2.png,images/picture_1.png,0,"[-11.733433509789462, 11.733433509789464]",-11.733433509789462,11.733433509789464,images/picture_2.png,1,"[11.733433509789464, 11.733433509789462]",11.733433509789464,11.733433509789462,images/picture_3.png,2,"[-11.733433509789466, -11.733433509789462]",-11.733433509789464,-11.733433509789462,0,1,1,1.000201767866499,2.000201767866499,0.999798232133501,3,1,1.7502017678664992,0,0,0,0,0,0,7,7,1,,,,,,,0.0050007499994535465,119.7131766670027,119.7131766670027,120.72733750000043,121.46066224999959,121.69381658400016,121.69381658400016,121.69381658400016,122.69388504200106,122.69388504200106,122.69388504200106,122.69388504200106,4.029899124998337,123.693820667002,200001,001,2023-03-10_11h52.53.490,DMS_BEST_eyetracking_DAN_base_12-36_looped_10minWORKING,2022.2.4,None,
8,PRED,12,0.5293065498986157,1,images/picture_2.png,images/picture_1.png,0,"[11.733433509789464, 11.733433509789462]",11.733433509789464,11.733433509789462,images/picture_2.png,1,"[-11.733433509789462, 11.733433509789464]",-11.733433509789462,11.733433509789464,images/picture_3.png,2,"[-11.733433509789466, -11.733433509789462]",-11.733433509789464,-11.733433509789462,0,1,1,0.5293065498986157,1.5293065498986156,1.4706934501013844,3,1,1.2793065498986156,0,0,0,0,0,0,8,8,8,,,,,,,,,,,,,,,,,,,,,200001,001,2023-03-10_11h52.53.490,DMS_BEST_eyetracking_DAN_base_12-36_looped_10minWORKING,2022.2.4,None,
8,PRED,12,0.5293065498986157,1,images/picture_2.png,images/picture_1.png,0,"[11.733433509789464, 11.733433509789462]",11.733433509789464,11.733433509789462,images/picture_2.png,1,"[-11.733433509789462, 11.733433509789464]",-11.733433509789462,11.733433509789464,images/picture_3.png,2,"[-11.733433509789466, -11.733433509789462]",-11.733433509789464,-11.733433509789462,0,1,1,0.5293065498986157,1.5293065498986156,1.4706934501013844,3,1,1.2793065498986156,0,0,0,0,0,0,8,8,8,,,,,,,0.004962750001141103,123.74718570900222,123.74718570900222,124.76032074999966,125.0269413749993,125.26035425000009,125.26035425000009,125.26035425000009,126.72730829200009,126.72730829200009,126.72730829200009,126.72730829200009,4.029788332998578,127.72737487500126,200001,001,2023-03-10_11h52.53.490,DMS_BEST_eyetracking_DAN_base_12-36_looped_10minWORKING,2022.2.4,None,
,,,,,,,,,,,,,,,,,,,,,,,,,,,,,,,0,0,0,0,,,,,,,,,127.78817791700203,139.81432754200068,,,,,,,,,,,,,,,200001,001,2023-03-10_11h52.53.490,DMS_BEST_eyetracking_DAN_base_12-36_looped_10minWORKING,2022.2.4,None,
9,UNPRED,12,1.1629008669182763,1,images/picture_2.png,images/picture_1.png,0,"[11.733433509789464, 11.733433509789462]",11.733433509789464,11.733433509789462,images/picture_2.png,1,"[-11.733433509789462, 11.733433509789464]",-11.733433509789462,11.733433509789464,images/picture_3.png,2,"[-11.733433509789466, -11.733433509789462]",-11.733433509789464,-11.733433509789462,0,1,1,1.1629008669182763,2.1629008669182763,0.8370991330817237,3,1,1.9129008669182763,0,1,0,1,0,0,0,0,0,,,,,,,,,,,,,,,,,,,,,200001,001,2023-03-10_11h52.53.490,DMS_BEST_eyetracking_DAN_base_12-36_looped_10minWORKING,2022.2.4,None,
9,UNPRED,12,1.1629008669182763,1,images/picture_2.png,images/picture_1.png,0,"[11.733433509789464, 11.733433509789462]",11.733433509789464,11.733433509789462,images/picture_2.png,1,"[-11.733433509789462, 11.733433509789464]",-11.733433509789462,11.733433509789464,images/picture_3.png,2,"[-11.733433509789466, -11.733433509789462]",-11.733433509789464,-11.733433509789462,0,1,1,1.1629008669182763,2.1629008669182763,0.8370991330817237,3,1,1.9129008669182763,0,1,0,1,0,0,0,0,0,,,,,,,0.0038737499999115244,139.81432754200068,139.81432754200068,140.8273852090024,141.72738354200192,141.98044595900137,141.98044595900137,141.98044595900137,142.8133432499999,142.8273972090028,142.8273972090028,142.8273972090028,4.011045999999624,143.84697916699952,200001,001,2023-03-10_11h52.53.490,DMS_BEST_eyetracking_DAN_base_12-36_looped_10minWORKING,2022.2.4,None,
16,UNPRED,12,0.6944980881944949,1,images/picture_2.png,images/picture_1.png,0,"[11.733433509789464, 11.733433509789462]",11.733433509789464,11.733433509789462,images/picture_2.png,1,"[11.733433509789462, -11.733433509789466]",11.733433509789462,-11.733433509789464,images/picture_3.png,2,"[-11.733433509789466, -11.733433509789462]",-11.733433509789464,-11.733433509789462,0,1,1,0.6944980881944949,1.6944980881944949,1.3055019118055051,3,1,1.4444980881944949,0,1,0,1,0,0,1,1,7,,,,,,,,,,,,,,,,,,,,,200001,001,2023-03-10_11h52.53.490,DMS_BEST_eyetracking_DAN_base_12-36_looped_10minWORKING,2022.2.4,None,
16,UNPRED,12,0.6944980881944949,1,images/picture_2.png,images/picture_1.png,0,"[11.733433509789464, 11.733433509789462]",11.733433509789464,11.733433509789462,images/picture_2.png,1,"[11.733433509789462, -11.733433509789466]",11.733433509789462,-11.733433509789464,images/picture_3.png,2,"[-11.733433509789466, -11.733433509789462]",-11.733433509789464,-11.733433509789462,0,1,1,0.6944980881944949,1.6944980881944949,1.3055019118055051,3,1,1.4444980881944949,0,1,0,1,0,0,1,1,7,,,,,,,0.005041958000219893,143.84697916699952,143.84697916699952,144.8604964590013,145.29369695900095,145.51319195900214,145.51319195900214,145.51319195900214,146.82737070900112,146.82737070900112,146.82737070900112,146.82737070900112,4.029901249999966,147.82735516700268,200001,001,2023-03-10_11h52.53.490,DMS_BEST_eyetracking_DAN_base_12-36_looped_10minWORKING,2022.2.4,None,
12,UNPRED,12,1.140250018801408,1,images/picture_2.png,images/picture_1.png,0,"[11.733433509789462, -11.733433509789466]",11.733433509789462,-11.733433509789464,images/picture_2.png,1,"[-11.733433509789462, 11.733433509789464]",-11.733433509789462,11.733433509789464,images/picture_3.png,2,"[11.733433509789464, 11.733433509789462]",11.733433509789464,11.733433509789462,0,1,1,1.140250018801408,2.140250018801408,0.859749981198592,3,1,1.8902500188014082,0,1,0,1,0,0,2,2,3,,,,,,,,,,,,,,,,,,,,,200001,001,2023-03-10_11h52.53.490,DMS_BEST_eyetracking_DAN_base_12-36_looped_10minWORKING,2022.2.4,None,
12,UNPRED,12,1.140250018801408,1,images/picture_2.png,images/picture_1.png,0,"[11.733433509789462, -11.733433509789466]",11.733433509789462,-11.733433509789464,images/picture_2.png,1,"[-11.733433509789462, 11.733433509789464]",-11.733433509789462,11.733433509789464,images/picture_3.png,2,"[11.733433509789464, 11.733433509789462]",11.733433509789464,11.733433509789462,0,1,1,1.140250018801408,2.140250018801408,0.859749981198592,3,1,1.8902500188014082,0,1,0,1,0,0,2,2,3,,,,,,,0.004993708000256447,147.87989866700082,147.87989866700082,148.89417425000283,149.78023750000284,149.99393370899998,149.99393370899998,149.99393370899998,150.86083625000174,150.86083625000174,150.86083625000174,150.86083625000174,4.030550000003132,151.86087783400217,200001,001,2023-03-10_11h52.53.490,DMS_BEST_eyetracking_DAN_base_12-36_looped_10minWORKING,2022.2.4,None,
14,UNPRED,12,0.9370831974939748,0,images/picture_1.png,images/picture_1.png,0,"[-11.733433509789466, -11.733433509789462]",-11.733433509789464,-11.733433509789462,images/picture_2.png,1,"[11.733433509789464, 11.733433509789462]",11.733433509789464,11.733433509789462,images/picture_3.png,2,"[11.733433509789462, -11.733433509789466]",11.733433509789462,-11.733433509789464,0,1,1,0.9370831974939748,1.9370831974939748,1.0629168025060252,3,1,1.6870831974939748,0,1,0,1,0,0,3,3,5,,,,,,,,,,,,,,,,,,,,,200001,001,2023-03-10_11h52.53.490,DMS_BEST_eyetracking_DAN_base_12-36_looped_10minWORKING,2022.2.4,None,
14,UNPRED,12,0.9370831974939748,0,images/picture_1.png,images/picture_1.png,0,"[-11.733433509789466, -11.733433509789462]",-11.733433509789464,-11.733433509789462,images/picture_2.png,1,"[11.733433509789464, 11.733433509789462]",11.733433509789464,11.733433509789462,images/picture_3.png,2,"[11.733433509789462, -11.733433509789466]",11.733433509789462,-11.733433509789464,0,1,1,0.9370831974939748,1.9370831974939748,1.0629168025060252,3,1,1.6870831974939748,0,1,0,1,0,0,3,3,5,,,,,,,0.0047378750023199245,151.91337741700045,151.91337741700045,152.92736525000146,153.61378999999943,153.82720650000192,153.82720650000192,153.82720650000192,154.8936378340004,154.8936378340004,154.8936378340004,154.8936378340004,4.029735833999439,155.89413966700158,200001,001,2023-03-10_11h52.53.490,DMS_BEST_eyetracking_DAN_base_12-36_looped_10minWORKING,2022.2.4,None,
11,UNPRED,12,0.9624067860553336,0,images/picture_1.png,images/picture_1.png,0,"[11.733433509789462, -11.733433509789466]",11.733433509789462,-11.733433509789464,images/picture_2.png,1,"[-11.733433509789462, 11.733433509789464]",-11.733433509789462,11.733433509789464,images/picture_3.png,2,"[11.733433509789464, 11.733433509789462]",11.733433509789464,11.733433509789462,0,1,1,0.9624067860553336,1.9624067860553336,1.0375932139446664,3,1,1.7124067860553336,0,1,0,1,0,0,4,4,2,,,,,,,,,,,,,,,,,,,,,200001,001,2023-03-10_11h52.53.490,DMS_BEST_eyetracking_DAN_base_12-36_looped_10minWORKING,2022.2.4,None,
11,UNPRED,12,0.9624067860553336,0,images/picture_1.png,images/picture_1.png,0,"[11.733433509789462, -11.733433509789466]",11.733433509789462,-11.733433509789464,images/picture_2.png,1,"[-11.733433509789462, 11.733433509789464]",-11.733433509789462,11.733433509789464,images/picture_3.png,2,"[11.733433509789464, 11.733433509789462]",11.733433509789464,11.733433509789462,0,1,1,0.9624067860553336,1.9624067860553336,1.0375932139446664,3,1,1.7124067860553336,0,1,0,1,0,0,4,4,2,,,,,,,0.003500250000797678,155.94720266700097,155.94720266700097,156.96080041700043,157.66082733400253,157.89406858400253,157.89406858400253,157.89406858400253,158.92736154200247,158.9467163340014,158.9467163340014,158.9467163340014,4.029641417000676,159.92756504200224,200001,001,2023-03-10_11h52.53.490,DMS_BEST_eyetracking_DAN_base_12-36_looped_10minWORKING,2022.2.4,None,
15,UNPRED,12,1.010608679892368,0,images/picture_1.png,images/picture_1.png,0,"[11.733433509789464, 11.733433509789462]",11.733433509789464,11.733433509789462,images/picture_2.png,1,"[11.733433509789462, -11.733433509789466]",11.733433509789462,-11.733433509789464,images/picture_3.png,2,"[-11.733433509789462, 11.733433509789464]",-11.733433509789462,11.733433509789464,0,1,1,1.010608679892368,2.010608679892368,0.989391320107632,3,1,1.760608679892368,0,1,0,1,0,0,5,5,6,,,,,,,,,,,,,,,,,,,,,200001,001,2023-03-10_11h52.53.490,DMS_BEST_eyetracking_DAN_base_12-36_looped_10minWORKING,2022.2.4,None,
15,UNPRED,12,1.010608679892368,0,images/picture_1.png,images/picture_1.png,0,"[11.733433509789464, 11.733433509789462]",11.733433509789464,11.733433509789462,images/picture_2.png,1,"[11.733433509789462, -11.733433509789466]",11.733433509789462,-11.733433509789464,images/picture_3.png,2,"[-11.733433509789462, 11.733433509789464]",-11.733433509789462,11.733433509789464,0,1,1,1.010608679892368,2.010608679892368,0.989391320107632,3,1,1.760608679892368,0,1,0,1,0,0,5,5,6,,,,,,,0.003495624998322455,159.98022666700126,159.98022666700126,160.99409854199985,161.7469899170028,161.96070616699944,161.96070616699944,161.96070616699944,162.96080775000155,162.96080775000155,162.96080775000155,162.96080775000155,4.029784624999593,163.960866292,200001,001,2023-03-10_11h52.53.490,DMS_BEST_eyetracking_DAN_base_12-36_looped_10minWORKING,2022.2.4,None,
10,UNPRED,12,1.1875632207539752,1,images/picture_2.png,images/picture_1.png,0,"[11.733433509789462, -11.733433509789466]",11.733433509789462,-11.733433509789464,images/picture_2.png,1,"[-11.733433509789466, -11.733433509789462]",-11.733433509789464,-11.733433509789462,images/picture_3.png,2,"[-11.733433509789462, 11.733433509789464]",-11.733433509789462,11.733433509789464,0,1,1,1.1875632207539752,2.187563220753975,0.8124367792460248,3,1,1.9375632207539752,0,1,0,1,0,0,6,6,1,,,,,,,,,,,,,,,,,,,,,200001,001,2023-03-10_11h52.53.490,DMS_BEST_eyetracking_DAN_base_12-36_looped_10minWORKING,2022.2.4,None,
10,UNPRED,12,1.1875632207539752,1,images/picture_2.png,images/picture_1.png,0,"[11.733433509789462, -11.733433509789466]",11.733433509789462,-11.733433509789464,images/picture_2.png,1,"[-11.733433509789466, -11.733433509789462]",-11.733433509789464,-11.733433509789462,images/picture_3.png,2,"[-11.733433509789462, 11.733433509789464]",-11.733433509789462,11.733433509789464,0,1,1,1.1875632207539752,2.187563220753975,0.8124367792460248,3,1,1.9375632207539752,0,1,0,1,0,0,6,6,1,,,,,,,0.005967540997517062,164.0139690420001,164.0139690420001,165.02700808400186,165.96064699999988,166.18058083399956,166.18058083399956,166.18058083399956,166.99408795899944,166.99408795899944,166.99408795899944,166.99408795899944,4.029789415999403,167.99429666700235,200001,001,2023-03-10_11h52.53.490,DMS_BEST_eyetracking_DAN_base_12-36_looped_10minWORKING,2022.2.4,None,
13,UNPRED,12,1.1450232458513585,2,images/picture_3.png,images/picture_1.png,0,"[11.733433509789464, 11.733433509789462]",11.733433509789464,11.733433509789462,images/picture_2.png,1,"[-11.733433509789462, 11.733433509789464]",-11.733433509789462,11.733433509789464,images/picture_3.png,2,"[11.733433509789462, -11.733433509789466]",11.733433509789462,-11.733433509789464,0,1,1,1.1450232458513585,2.145023245851358,0.8549767541486417,3,1,1.8950232458513583,0,1,0,1,0,0,7,7,4,,,,,,,,,,,,,,,,,,,,,200001,001,2023-03-10_11h52.53.490,DMS_BEST_eyetracking_DAN_base_12-36_looped_10minWORKING,2022.2.4,None,
13,UNPRED,12,1.1450232458513585,2,images/picture_3.png,images/picture_1.png,0,"[11.733433509789464, 11.733433509789462]",11.733433509789464,11.733433509789462,images/picture_2.png,1,"[-11.733433509789462, 11.733433509789464]",-11.733433509789462,11.733433509789464,images/picture_3.png,2,"[11.733433509789462, -11.733433509789466]",11.733433509789462,-11.733433509789464,0,1,1,1.1450232458513585,2.145023245851358,0.8549767541486417,3,1,1.8950232458513583,0,1,0,1,0,0,7,7,4,,,,,,,0.0033467919965914916,168.02825679200032,168.02825679200032,169.02757433400257,169.92758862499977,170.16058579200035,170.16058579200035,170.16058579200035,171.02754016700055,171.02754016700055,171.02754016700055,171.02754016700055,3.9972824999967997,172.0468639589999,200001,001,2023-03-10_11h52.53.490,DMS_BEST_eyetracking_DAN_base_12-36_looped_10minWORKING,2022.2.4,None,
17,UNPRED,12,0.6695860544134581,0,images/picture_1.png,images/picture_1.png,0,"[11.733433509789462, -11.733433509789466]",11.733433509789462,-11.733433509789464,images/picture_2.png,1,"[-11.733433509789466, -11.733433509789462]",-11.733433509789464,-11.733433509789462,images/picture_3.png,2,"[11.733433509789464, 11.733433509789462]",11.733433509789464,11.733433509789462,0,1,1,0.6695860544134581,1.6695860544134582,1.330413945586542,3,1,1.4195860544134582,0,1,0,1,0,0,8,8,8,,,,,,,,,,,,,,,,,,,,,200001,001,2023-03-10_11h52.53.490,DMS_BEST_eyetracking_DAN_base_12-36_looped_10minWORKING,2022.2.4,None,
17,UNPRED,12,0.6695860544134581,0,images/picture_1.png,images/picture_1.png,0,"[11.733433509789462, -11.733433509789466]",11.733433509789462,-11.733433509789464,images/picture_2.png,1,"[-11.733433509789466, -11.733433509789462]",-11.733433509789464,-11.733433509789462,images/picture_3.png,2,"[11.733433509789464, 11.733433509789462]",11.733433509789464,11.733433509789462,0,1,1,0.6695860544134581,1.6695860544134582,1.330413945586542,3,1,1.4195860544134582,0,1,0,1,0,0,8,8,8,,,,,,,0.004686333999416092,172.0468639589999,172.0468639589999,173.06084929200006,173.4802707500021,173.69410758400045,173.69410758400045,173.69410758400045,175.02712145899932,175.02712145899932,175.02712145899932,175.02712145899932,4.029377792001469,176.0274392499996,200001,001,2023-03-10_11h52.53.490,DMS_BEST_eyetracking_DAN_base_12-36_looped_10minWORKING,2022.2.4,None,
,,,,,,,,,,,,,,,,,,,,,,,,,,,,,,,1,0,1,0,,,,,,,,,176.10437820900188,188.12893075000102,,,,,,,,,,,,,,,200001,001,2023-03-10_11h52.53.490,DMS_BEST_eyetracking_DAN_base_12-36_looped_10minWORKING,2022.2.4,None,
20,PRED,12,0.6578832456457935,2,images/picture_3.png,images/picture_1.png,0,"[11.733433509789462, -11.733433509789466]",11.733433509789462,-11.733433509789464,images/picture_2.png,1,"[-11.733433509789462, 11.733433509789464]",-11.733433509789462,11.733433509789464,images/picture_3.png,2,"[-11.733433509789466, -11.733433509789462]",-11.733433509789464,-11.733433509789462,0,1,1,0.6578832456457935,1.6578832456457937,1.3421167543542063,3,1,1.4078832456457937,0,2,0,2,0,0,0,0,2,,,,,,,,,,,,,,,,,,,,,200001,001,2023-03-10_11h52.53.490,DMS_BEST_eyetracking_DAN_base_12-36_looped_10minWORKING,2022.2.4,None,
20,PRED,12,0.6578832456457935,2,images/picture_3.png,images/picture_1.png,0,"[11.733433509789462, -11.733433509789466]",11.733433509789462,-11.733433509789464,images/picture_2.png,1,"[-11.733433509789462, 11.733433509789464]",-11.733433509789462,11.733433509789464,images/picture_3.png,2,"[-11.733433509789466, -11.733433509789462]",-11.733433509789464,-11.733433509789462,0,1,1,0.6578832456457935,1.6578832456457937,1.3421167543542063,3,1,1.4078832456457937,0,2,0,2,0,0,0,0,2,,,,,,,0.003754458997718757,188.12893075000102,188.12893075000102,189.1275412089999,189.5468545420008,189.78075704200091,189.78075704200091,189.78075704200091,191.1276414999993,191.1276414999993,191.1276414999993,191.1276414999993,3.996019209000224,192.1287784590022,200001,001,2023-03-10_11h52.53.490,DMS_BEST_eyetracking_DAN_base_12-36_looped_10minWORKING,2022.2.4,None,
26,PRED,12,0.8215674352047992,2,images/picture_3.png,images/picture_1.png,0,"[11.733433509789464, 11.733433509789462]",11.733433509789464,11.733433509789462,images/picture_2.png,1,"[-11.733433509789462, 11.733433509789464]",-11.733433509789462,11.733433509789464,images/picture_3.png,2,"[-11.733433509789466, -11.733433509789462]",-11.733433509789464,-11.733433509789462,0,1,1,0.8215674352047992,1.8215674352047992,1.1784325647952008,3,1,1.5715674352047992,0,2,0,2,0,0,1,1,8,,,,,,,,,,,,,,,,,,,,,200001,001,2023-03-10_11h52.53.490,DMS_BEST_eyetracking_DAN_base_12-36_looped_10minWORKING,2022.2.4,None,
26,PRED,12,0.8215674352047992,2,images/picture_3.png,images/picture_1.png,0,"[11.733433509789464, 11.733433509789462]",11.733433509789464,11.733433509789462,images/picture_2.png,1,"[-11.733433509789462, 11.733433509789464]",-11.733433509789462,11.733433509789464,images/picture_3.png,2,"[-11.733433509789466, -11.733433509789462]",-11.733433509789464,-11.733433509789462,0,1,1,0.8215674352047992,1.8215674352047992,1.1784325647952008,3,1,1.5715674352047992,0,2,0,2,0,0,1,1,8,,,,,,,0.0034182919989689253,192.1287784590022,192.1287784590022,193.1275605840019,193.7136649999993,193.94687737500135,193.94687737500135,193.94687737500135,195.1277283340023,195.1277283340023,195.1277283340023,195.1277283340023,3.9961508749984205,196.1270083340023,200001,001,2023-03-10_11h52.53.490,DMS_BEST_eyetracking_DAN_base_12-36_looped_10minWORKING,2022.2.4,None,
24,PRED,12,1.0453326764671962,2,images/picture_3.png,images/picture_1.png,0,"[-11.733433509789462, 11.733433509789464]",-11.733433509789462,11.733433509789464,images/picture_2.png,1,"[11.733433509789462, -11.733433509789466]",11.733433509789462,-11.733433509789464,images/picture_3.png,2,"[-11.733433509789466, -11.733433509789462]",-11.733433509789464,-11.733433509789462,0,1,1,1.0453326764671962,2.045332676467196,0.9546673235328038,3,1,1.7953326764671962,0,2,0,2,0,0,2,2,6,,,,,,,,,,,,,,,,,,,,,200001,001,2023-03-10_11h52.53.490,DMS_BEST_eyetracking_DAN_base_12-36_looped_10minWORKING,2022.2.4,None,
24,PRED,12,1.0453326764671962,2,images/picture_3.png,images/picture_1.png,0,"[-11.733433509789462, 11.733433509789464]",-11.733433509789462,11.733433509789464,images/picture_2.png,1,"[11.733433509789462, -11.733433509789466]",11.733433509789462,-11.733433509789464,images/picture_3.png,2,"[-11.733433509789466, -11.733433509789462]",-11.733433509789464,-11.733433509789462,0,1,1,1.0453326764671962,2.045332676467196,0.9546673235328038,3,1,1.7953326764671962,0,2,0,2,0,0,2,2,6,,,,,,,0.0013925830025982577,196.1270083340023,196.1270083340023,197.127573709,197.92759941700206,198.16079783399982,198.16079783399982,198.16079783399982,199.12780945900158,199.12780945900158,199.12780945900158,199.12780945900158,3.9972377920021245,200.12813900000037,200001,001,2023-03-10_11h52.53.490,DMS_BEST_eyetracking_DAN_base_12-36_looped_10minWORKING,2022.2.4,None,
18,PRED,12,1.0671284116887678,2,images/picture_3.png,images/picture_1.png,0,"[11.733433509789464, 11.733433509789462]",11.733433509789464,11.733433509789462,images/picture_2.png,1,"[-11.733433509789462, 11.733433509789464]",-11.733433509789462,11.733433509789464,images/picture_3.png,2,"[-11.733433509789466, -11.733433509789462]",-11.733433509789464,-11.733433509789462,0,1,1,1.0671284116887678,2.067128411688768,0.9328715883112322,3,1,1.817128411688768,0,2,0,2,0,0,3,3,0,,,,,,,,,,,,,,,,,,,,,200001,001,2023-03-10_11h52.53.490,DMS_BEST_eyetracking_DAN_base_12-36_looped_10minWORKING,2022.2.4,None,
18,PRED,12,1.0671284116887678,2,images/picture_3.png,images/picture_1.png,0,"[11.733433509789464, 11.733433509789462]",11.733433509789464,11.733433509789462,images/picture_2.png,1,"[-11.733433509789462, 11.733433509789464]",-11.733433509789462,11.733433509789464,images/picture_3.png,2,"[-11.733433509789466, -11.733433509789462]",-11.733433509789464,-11.733433509789462,0,1,1,1.0671284116887678,2.067128411688768,0.9328715883112322,3,1,1.817128411688768,0,2,0,2,0,0,3,3,0,,,,,,,0.003347000001667766,200.12813900000037,200.12813900000037,201.1275986670007,201.9610304170019,202.1941056249998,202.1941056249998,202.1941056249998,203.1276535420002,203.1276535420002,203.1276535420002,203.1276535420002,3.9968232909996004,204.12844283400045,200001,001,2023-03-10_11h52.53.490,DMS_BEST_eyetracking_DAN_base_12-36_looped_10minWORKING,2022.2.4,None,
19,PRED,12,0.9195534727287024,2,images/picture_3.png,images/picture_1.png,0,"[11.733433509789462, -11.733433509789466]",11.733433509789462,-11.733433509789464,images/picture_2.png,1,"[-11.733433509789466, -11.733433509789462]",-11.733433509789464,-11.733433509789462,images/picture_3.png,2,"[11.733433509789464, 11.733433509789462]",11.733433509789464,11.733433509789462,0,1,1,0.9195534727287024,1.9195534727287025,1.0804465272712975,3,1,1.6695534727287025,0,2,0,2,0,0,4,4,1,,,,,,,,,,,,,,,,,,,,,200001,001,2023-03-10_11h52.53.490,DMS_BEST_eyetracking_DAN_base_12-36_looped_10minWORKING,2022.2.4,None,
19,PRED,12,0.9195534727287024,2,images/picture_3.png,images/picture_1.png,0,"[11.733433509789462, -11.733433509789466]",11.733433509789462,-11.733433509789464,images/picture_2.png,1,"[-11.733433509789466, -11.733433509789462]",-11.733433509789464,-11.733433509789462,images/picture_3.png,2,"[11.733433509789464, 11.733433509789462]",11.733433509789464,11.733433509789462,0,1,1,0.9195534727287024,1.9195534727287025,1.0804465272712975,3,1,1.6695534727287025,0,2,0,2,0,0,4,4,1,,,,,,,0.003381541999260662,204.12844283400045,204.12844283400045,205.12763816699953,205.81308195900056,206.0469197090024,206.0469197090024,206.0469197090024,207.1278666670005,207.1278666670005,207.1278666670005,207.1278666670005,3.9971721670008264,208.14702895899973,200001,001,2023-03-10_11h52.53.490,DMS_BEST_eyetracking_DAN_base_12-36_looped_10minWORKING,2022.2.4,None,
25,PRED,12,0.5248553740323447,2,images/picture_3.png,images/picture_1.png,0,"[11.733433509789462, -11.733433509789466]",11.733433509789462,-11.733433509789464,images/picture_2.png,1,"[-11.733433509789466, -11.733433509789462]",-11.733433509789464,-11.733433509789462,images/picture_3.png,2,"[-11.733433509789462, 11.733433509789464]",-11.733433509789462,11.733433509789464,0,1,1,0.5248553740323447,1.5248553740323447,1.4751446259676553,3,1,1.2748553740323447,0,2,0,2,0,0,5,5,7,,,,,,,,,,,,,,,,,,,,,200001,001,2023-03-10_11h52.53.490,DMS_BEST_eyetracking_DAN_base_12-36_looped_10minWORKING,2022.2.4,None,
25,PRED,12,0.5248553740323447,2,images/picture_3.png,images/picture_1.png,0,"[11.733433509789462, -11.733433509789466]",11.733433509789462,-11.733433509789464,images/picture_2.png,1,"[-11.733433509789466, -11.733433509789462]",-11.733433509789464,-11.733433509789462,images/picture_3.png,2,"[-11.733433509789462, 11.733433509789464]",-11.733433509789462,11.733433509789464,0,1,1,0.5248553740323447,1.5248553740323447,1.4751446259676553,3,1,1.2748553740323447,0,2,0,2,0,0,5,5,7,,,,,,,0.0034149999992223457,208.14702895899973,208.14702895899973,209.1610857500018,209.42779333400176,209.64692362500136,209.64692362500136,209.64692362500136,211.12780933400063,211.12780933400063,211.12780933400063,211.12780933400063,4.0299562079999305,212.12779729199974,200001,001,2023-03-10_11h52.53.490,DMS_BEST_eyetracking_DAN_base_12-36_looped_10minWORKING,2022.2.4,None,
21,PRED,12,0.9950765628971576,2,images/picture_3.png,images/picture_1.png,0,"[11.733433509789462, -11.733433509789466]",11.733433509789462,-11.733433509789464,images/picture_2.png,1,"[11.733433509789464, 11.733433509789462]",11.733433509789464,11.733433509789462,images/picture_3.png,2,"[-11.733433509789462, 11.733433509789464]",-11.733433509789462,11.733433509789464,0,1,1,0.9950765628971576,1.9950765628971576,1.0049234371028424,3,1,1.7450765628971576,0,2,0,2,0,0,6,6,3,,,,,,,,,,,,,,,,,,,,,200001,001,2023-03-10_11h52.53.490,DMS_BEST_eyetracking_DAN_base_12-36_looped_10minWORKING,2022.2.4,None,
21,PRED,12,0.9950765628971576,2,images/picture_3.png,images/picture_1.png,0,"[11.733433509789462, -11.733433509789466]",11.733433509789462,-11.733433509789464,images/picture_2.png,1,"[11.733433509789464, 11.733433509789462]",11.733433509789464,11.733433509789462,images/picture_3.png,2,"[-11.733433509789462, 11.733433509789464]",-11.733433509789462,11.733433509789464,0,1,1,0.9950765628971576,1.9950765628971576,1.0049234371028424,3,1,1.7450765628971576,0,2,0,2,0,0,6,6,3,,,,,,,0.0033556669986865018,212.1622177499994,212.1622177499994,213.16119883400097,213.91376624999975,214.16085799999928,214.16085799999928,214.16085799999928,215.16113133399995,215.1806847500011,215.1806847500011,215.1806847500011,3.995969542000239,216.1602995840003,200001,001,2023-03-10_11h52.53.490,DMS_BEST_eyetracking_DAN_base_12-36_looped_10minWORKING,2022.2.4,None,
22,PRED,12,0.8141443066049704,2,images/picture_3.png,images/picture_1.png,0,"[-11.733433509789462, 11.733433509789464]",-11.733433509789462,11.733433509789464,images/picture_2.png,1,"[-11.733433509789466, -11.733433509789462]",-11.733433509789464,-11.733433509789462,images/picture_3.png,2,"[11.733433509789462, -11.733433509789466]",11.733433509789462,-11.733433509789464,0,1,1,0.8141443066049704,1.8141443066049705,1.1858556933950295,3,1,1.5641443066049705,0,2,0,2,0,0,7,7,4,,,,,,,,,,,,,,,,,,,,,200001,001,2023-03-10_11h52.53.490,DMS_BEST_eyetracking_DAN_base_12-36_looped_10minWORKING,2022.2.4,None,
22,PRED,12,0.8141443066049704,2,images/picture_3.png,images/picture_1.png,0,"[-11.733433509789462, 11.733433509789464]",-11.733433509789462,11.733433509789464,images/picture_2.png,1,"[-11.733433509789466, -11.733433509789462]",-11.733433509789464,-11.733433509789462,images/picture_3.png,2,"[11.733433509789462, -11.733433509789466]",11.733433509789462,-11.733433509789464,0,1,1,0.8141443066049704,1.8141443066049705,1.1858556933950295,3,1,1.5641443066049705,0,2,0,2,0,0,7,7,4,,,,,,,0.001490916998591274,216.1602995840003,216.1602995840003,217.1610981670019,217.72783875000096,217.96083716700014,217.96083716700014,217.96083716700014,219.1612723750004,219.1612723750004,219.1612723750004,219.1612723750004,3.997420666997641,220.1621822920024,200001,001,2023-03-10_11h52.53.490,DMS_BEST_eyetracking_DAN_base_12-36_looped_10minWORKING,2022.2.4,None,
23,PRED,12,1.0459940099528031,2,images/picture_3.png,images/picture_1.png,0,"[-11.733433509789466, -11.733433509789462]",-11.733433509789464,-11.733433509789462,images/picture_2.png,1,"[11.733433509789462, -11.733433509789466]",11.733433509789462,-11.733433509789464,images/picture_3.png,2,"[-11.733433509789462, 11.733433509789464]",-11.733433509789462,11.733433509789464,0,1,1,1.0459940099528031,2.045994009952804,0.9540059900471968,3,1,1.7959940099528031,0,2,0,2,0,0,8,8,5,,,,,,,,,,,,,,,,,,,,,200001,001,2023-03-10_11h52.53.490,DMS_BEST_eyetracking_DAN_base_12-36_looped_10minWORKING,2022.2.4,None,
23,PRED,12,1.0459940099528031,2,images/picture_3.png,images/picture_1.png,0,"[-11.733433509789466, -11.733433509789462]",-11.733433509789464,-11.733433509789462,images/picture_2.png,1,"[11.733433509789462, -11.733433509789466]",11.733433509789462,-11.733433509789464,images/picture_3.png,2,"[-11.733433509789462, 11.733433509789464]",-11.733433509789462,11.733433509789464,0,1,1,1.0459940099528031,2.045994009952804,0.9540059900471968,3,1,1.7959940099528031,0,2,0,2,0,0,8,8,5,,,,,,,0.003310125001007691,220.1621822920024,220.1621822920024,221.16111362499942,221.96114329200282,222.19433779199971,222.19433779199971,222.19433779199971,223.16108058400278,223.16108058400278,223.16108058400278,223.16108058400278,3.9964630829999805,224.21390149999934,200001,001,2023-03-10_11h52.53.490,DMS_BEST_eyetracking_DAN_base_12-36_looped_10minWORKING,2022.2.4,None,
,,,,,,,,,,,,,,,,,,,,,,,,,,,,,,,2,0,2,0,,,,,,,,,224.21390149999934,236.24713541700112,,,,,,,,,,,,,,,200001,001,2023-03-10_11h52.53.490,DMS_BEST_eyetracking_DAN_base_12-36_looped_10minWORKING,2022.2.4,None,
30,UNPRED,12,1.0211852787374238,2,images/picture_3.png,images/picture_1.png,0,"[-11.733433509789462, 11.733433509789464]",-11.733433509789462,11.733433509789464,images/picture_2.png,1,"[11.733433509789462, -11.733433509789466]",11.733433509789462,-11.733433509789464,images/picture_3.png,2,"[11.733433509789464, 11.733433509789462]",11.733433509789464,11.733433509789462,0,1,1,1.0211852787374238,2.021185278737424,0.9788147212625762,3,1,1.7711852787374238,0,3,0,3,0,0,0,0,3,,,,,,,,,,,,,,,,,,,,,200001,001,2023-03-10_11h52.53.490,DMS_BEST_eyetracking_DAN_base_12-36_looped_10minWORKING,2022.2.4,None,
30,UNPRED,12,1.0211852787374238,2,images/picture_3.png,images/picture_1.png,0,"[-11.733433509789462, 11.733433509789464]",-11.733433509789462,11.733433509789464,images/picture_2.png,1,"[11.733433509789462, -11.733433509789466]",11.733433509789462,-11.733433509789464,images/picture_3.png,2,"[11.733433509789464, 11.733433509789462]",11.733433509789464,11.733433509789462,0,1,1,1.0211852787374238,2.021185278737424,0.9788147212625762,3,1,1.7711852787374238,0,3,0,3,0,0,0,0,3,,,,,,,0.00128158399820677,236.24713541700112,236.24713541700112,237.2613367920021,238.02786579200256,238.24774700000125,238.24774700000125,238.24774700000125,239.22789608400126,239.22789608400126,239.22789608400126,239.22789608400126,4.023192500000732,240.22798533400055,200001,001,2023-03-10_11h52.53.490,DMS_BEST_eyetracking_DAN_base_12-36_looped_10minWORKING,2022.2.4,None,
33,UNPRED,12,0.6256357302753932,0,images/picture_1.png,images/picture_1.png,0,"[11.733433509789462, -11.733433509789466]",11.733433509789462,-11.733433509789464,images/picture_2.png,1,"[-11.733433509789466, -11.733433509789462]",-11.733433509789464,-11.733433509789462,images/picture_3.png,2,"[-11.733433509789462, 11.733433509789464]",-11.733433509789462,11.733433509789464,0,1,1,0.6256357302753932,1.6256357302753932,1.3743642697246068,3,1,1.3756357302753932,0,3,0,3,0,0,1,1,6,,,,,,,,,,,,,,,,,,,,,200001,001,2023-03-10_11h52.53.490,DMS_BEST_eyetracking_DAN_base_12-36_looped_10minWORKING,2022.2.4,None,
33,UNPRED,12,0.6256357302753932,0,images/picture_1.png,images/picture_1.png,0,"[11.733433509789462, -11.733433509789466]",11.733433509789462,-11.733433509789464,images/picture_2.png,1,"[-11.733433509789466, -11.733433509789462]",-11.733433509789464,-11.733433509789462,images/picture_3.png,2,"[-11.733433509789462, 11.733433509789464]",-11.733433509789462,11.733433509789464,0,1,1,0.6256357302753932,1.6256357302753932,1.3743642697246068,3,1,1.3756357302753932,0,3,0,3,0,0,1,1,6,,,,,,,0.004680707999796141,240.28048754200063,240.28048754200063,241.294598667002,241.66115195900056,241.88127729200278,241.88127729200278,241.88127729200278,243.26120962500136,243.26120962500136,243.26120962500136,243.26120962500136,4.029626249997818,244.26130462500078,200001,001,2023-03-10_11h52.53.490,DMS_BEST_eyetracking_DAN_base_12-36_looped_10minWORKING,2022.2.4,None,
28,UNPRED,12,0.7789077192069318,1,images/picture_2.png,images/picture_1.png,0,"[-11.733433509789462, 11.733433509789464]",-11.733433509789462,11.733433509789464,images/picture_2.png,1,"[11.733433509789464, 11.733433509789462]",11.733433509789464,11.733433509789462,images/picture_3.png,2,"[11.733433509789462, -11.733433509789466]",11.733433509789462,-11.733433509789464,0,1,1,0.7789077192069318,1.7789077192069318,1.2210922807930682,3,1,1.5289077192069318,0,3,0,3,0,0,2,2,1,,,,,,,,,,,,,,,,,,,,,200001,001,2023-03-10_11h52.53.490,DMS_BEST_eyetracking_DAN_base_12-36_looped_10minWORKING,2022.2.4,None,
28,UNPRED,12,0.7789077192069318,1,images/picture_2.png,images/picture_1.png,0,"[-11.733433509789462, 11.733433509789464]",-11.733433509789462,11.733433509789464,images/picture_2.png,1,"[11.733433509789464, 11.733433509789462]",11.733433509789464,11.733433509789462,images/picture_3.png,2,"[11.733433509789462, -11.733433509789466]",11.733433509789462,-11.733433509789464,0,1,1,0.7789077192069318,1.7789077192069318,1.2210922807930682,3,1,1.5289077192069318,0,3,0,3,0,0,2,2,1,,,,,,,0.005934791999607114,244.31402875000276,244.31402875000276,245.32800687500276,245.8472622920017,246.06103258400253,246.06103258400253,246.06103258400253,247.29418079199968,247.29418079199968,247.29418079199968,247.29418079199968,4.029827916998329,248.29454995900232,200001,001,2023-03-10_11h52.53.490,DMS_BEST_eyetracking_DAN_base_12-36_looped_10minWORKING,2022.2.4,None,
29,UNPRED,12,0.7500445585221972,2,images/picture_3.png,images/picture_1.png,0,"[11.733433509789464, 11.733433509789462]",11.733433509789464,11.733433509789462,images/picture_2.png,1,"[-11.733433509789462, 11.733433509789464]",-11.733433509789462,11.733433509789464,images/picture_3.png,2,"[11.733433509789462, -11.733433509789466]",11.733433509789462,-11.733433509789464,0,1,1,0.7500445585221972,1.750044558522197,1.249955441477803,3,1,1.500044558522197,0,3,0,3,0,0,3,3,2,,,,,,,,,,,,,,,,,,,,,200001,001,2023-03-10_11h52.53.490,DMS_BEST_eyetracking_DAN_base_12-36_looped_10minWORKING,2022.2.4,None,
29,UNPRED,12,0.7500445585221972,2,images/picture_3.png,images/picture_1.png,0,"[11.733433509789464, 11.733433509789462]",11.733433509789464,11.733433509789462,images/picture_2.png,1,"[-11.733433509789462, 11.733433509789464]",-11.733433509789462,11.733433509789464,images/picture_3.png,2,"[11.733433509789462, -11.733433509789466]",11.733433509789462,-11.733433509789464,0,1,1,0.7500445585221972,1.750044558522197,1.249955441477803,3,1,1.500044558522197,0,3,0,3,0,0,3,3,2,,,,,,,0.0032763749986770563,248.3283884170014,248.3283884170014,249.32788058400183,249.82801787500284,250.0813699169994,250.0813699169994,250.0813699169994,251.3278922919999,251.3278922919999,251.3278922919999,251.3278922919999,3.9969972079998115,252.3282182920011,200001,001,2023-03-10_11h52.53.490,DMS_BEST_eyetracking_DAN_base_12-36_looped_10minWORKING,2022.2.4,None,
32,UNPRED,12,1.0559026184673694,2,images/picture_3.png,images/picture_1.png,0,"[-11.733433509789462, 11.733433509789464]",-11.733433509789462,11.733433509789464,images/picture_2.png,1,"[11.733433509789462, -11.733433509789466]",11.733433509789462,-11.733433509789464,images/picture_3.png,2,"[11.733433509789464, 11.733433509789462]",11.733433509789464,11.733433509789462,0,1,1,1.0559026184673694,2.055902618467369,0.9440973815326306,3,1,1.8059026184673692,0,3,0,3,0,0,4,4,5,,,,,,,,,,,,,,,,,,,,,200001,001,2023-03-10_11h52.53.490,DMS_BEST_eyetracking_DAN_base_12-36_looped_10minWORKING,2022.2.4,None,
32,UNPRED,12,1.0559026184673694,2,images/picture_3.png,images/picture_1.png,0,"[-11.733433509789462, 11.733433509789464]",-11.733433509789462,11.733433509789464,images/picture_2.png,1,"[11.733433509789462, -11.733433509789466]",11.733433509789462,-11.733433509789464,images/picture_3.png,2,"[11.733433509789464, 11.733433509789462]",11.733433509789464,11.733433509789462,0,1,1,1.0559026184673694,2.055902618467369,0.9440973815326306,3,1,1.8059026184673692,0,3,0,3,0,0,4,4,5,,,,,,,0.0032983329983835574,252.3282182920011,252.3282182920011,253.32808120900154,254.14789787500195,254.38079208400086,254.38079208400086,254.38079208400086,255.32802508399982,255.32802508399982,255.32802508399982,255.32802508399982,3.997030750000704,256.34753370900216,200001,001,2023-03-10_11h52.53.490,DMS_BEST_eyetracking_DAN_base_12-36_looped_10minWORKING,2022.2.4,None,
35,UNPRED,12,0.9302859250844162,2,images/picture_3.png,images/picture_1.png,0,"[-11.733433509789462, 11.733433509789464]",-11.733433509789462,11.733433509789464,images/picture_2.png,1,"[-11.733433509789466, -11.733433509789462]",-11.733433509789464,-11.733433509789462,images/picture_3.png,2,"[11.733433509789464, 11.733433509789462]",11.733433509789464,11.733433509789462,0,1,1,0.9302859250844162,1.930285925084416,1.0697140749155838,3,1,1.6802859250844162,0,3,0,3,0,0,5,5,8,,,,,,,,,,,,,,,,,,,,,200001,001,2023-03-10_11h52.53.490,DMS_BEST_eyetracking_DAN_base_12-36_looped_10minWORKING,2022.2.4,None,
35,UNPRED,12,0.9302859250844162,2,images/picture_3.png,images/picture_1.png,0,"[-11.733433509789462, 11.733433509789464]",-11.733433509789462,11.733433509789464,images/picture_2.png,1,"[-11.733433509789466, -11.733433509789462]",-11.733433509789464,-11.733433509789462,images/picture_3.png,2,"[11.733433509789464, 11.733433509789462]",11.733433509789464,11.733433509789462,0,1,1,0.9302859250844162,1.930285925084416,1.0697140749155838,3,1,1.6802859250844162,0,3,0,3,0,0,5,5,8,,,,,,,0.003594875000999309,256.34753370900216,256.34753370900216,257.36078954200275,258.02800754200143,258.261118917002,258.261118917002,258.261118917002,259.32804899999974,259.32804899999974,259.32804899999974,259.32804899999974,4.029339791999519,260.32805550000194,200001,001,2023-03-10_11h52.53.490,DMS_BEST_eyetracking_DAN_base_12-36_looped_10minWORKING,2022.2.4,None,
27,UNPRED,12,0.9472403729420918,0,images/picture_1.png,images/picture_1.png,0,"[-11.733433509789462, 11.733433509789464]",-11.733433509789462,11.733433509789464,images/picture_2.png,1,"[11.733433509789462, -11.733433509789466]",11.733433509789462,-11.733433509789464,images/picture_3.png,2,"[-11.733433509789466, -11.733433509789462]",-11.733433509789464,-11.733433509789462,0,1,1,0.9472403729420918,1.947240372942092,1.0527596270579085,3,1,1.6972403729420915,0,3,0,3,0,0,6,6,0,,,,,,,,,,,,,,,,,,,,,200001,001,2023-03-10_11h52.53.490,DMS_BEST_eyetracking_DAN_base_12-36_looped_10minWORKING,2022.2.4,None,
27,UNPRED,12,0.9472403729420918,0,images/picture_1.png,images/picture_1.png,0,"[-11.733433509789462, 11.733433509789464]",-11.733433509789462,11.733433509789464,images/picture_2.png,1,"[11.733433509789462, -11.733433509789466]",11.733433509789462,-11.733433509789464,images/picture_3.png,2,"[-11.733433509789466, -11.733433509789462]",-11.733433509789464,-11.733433509789462,0,1,1,0.9472403729420918,1.947240372942092,1.0527596270579085,3,1,1.6972403729420915,0,3,0,3,0,0,6,6,0,,,,,,,0.004615000001649605,260.38072549999924,260.38072549999924,261.39478724999935,262.0808462919995,262.2944685420007,262.2944685420007,262.2944685420007,263.3612912089993,263.3612912089993,263.3612912089993,263.3612912089993,4.030547917001968,264.36134295900047,200001,001,2023-03-10_11h52.53.490,DMS_BEST_eyetracking_DAN_base_12-36_looped_10minWORKING,2022.2.4,None,
34,UNPRED,12,0.6367547735513425,0,images/picture_1.png,images/picture_1.png,0,"[11.733433509789462, -11.733433509789466]",11.733433509789462,-11.733433509789464,images/picture_2.png,1,"[-11.733433509789466, -11.733433509789462]",-11.733433509789464,-11.733433509789462,images/picture_3.png,2,"[-11.733433509789462, 11.733433509789464]",-11.733433509789462,11.733433509789464,0,1,1,0.6367547735513425,1.6367547735513424,1.3632452264486576,3,1,1.3867547735513424,0,3,0,3,0,0,7,7,7,,,,,,,,,,,,,,,,,,,,,200001,001,2023-03-10_11h52.53.490,DMS_BEST_eyetracking_DAN_base_12-36_looped_10minWORKING,2022.2.4,None,
34,UNPRED,12,0.6367547735513425,0,images/picture_1.png,images/picture_1.png,0,"[11.733433509789462, -11.733433509789466]",11.733433509789462,-11.733433509789464,images/picture_2.png,1,"[-11.733433509789466, -11.733433509789462]",-11.733433509789464,-11.733433509789462,images/picture_3.png,2,"[-11.733433509789462, 11.733433509789464]",-11.733433509789462,11.733433509789464,0,1,1,0.6367547735513425,1.6367547735513424,1.3632452264486576,3,1,1.3867547735513424,0,3,0,3,0,0,7,7,7,,,,,,,0.0035160000006726477,264.3958336249998,264.3958336249998,265.39462237500265,265.79459133400087,266.02796412500174,266.02796412500174,266.02796412500174,267.3942017920017,267.3942017920017,267.3942017920017,267.3942017920017,3.9966148329986027,268.41425150000214,200001,001,2023-03-10_11h52.53.490,DMS_BEST_eyetracking_DAN_base_12-36_looped_10minWORKING,2022.2.4,None,
31,UNPRED,12,0.7785501938971229,1,images/picture_2.png,images/picture_1.png,0,"[11.733433509789464, 11.733433509789462]",11.733433509789464,11.733433509789462,images/picture_2.png,1,"[-11.733433509789466, -11.733433509789462]",-11.733433509789464,-11.733433509789462,images/picture_3.png,2,"[11.733433509789462, -11.733433509789466]",11.733433509789462,-11.733433509789464,0,1,1,0.7785501938971229,1.7785501938971229,1.2214498061028771,3,1,1.5285501938971229,0,3,0,3,0,0,8,8,4,,,,,,,,,,,,,,,,,,,,,200001,001,2023-03-10_11h52.53.490,DMS_BEST_eyetracking_DAN_base_12-36_looped_10minWORKING,2022.2.4,None,
31,UNPRED,12,0.7785501938971229,1,images/picture_2.png,images/picture_1.png,0,"[11.733433509789464, 11.733433509789462]",11.733433509789464,11.733433509789462,images/picture_2.png,1,"[-11.733433509789466, -11.733433509789462]",-11.733433509789464,-11.733433509789462,images/picture_3.png,2,"[11.733433509789462, -11.733433509789466]",11.733433509789462,-11.733433509789464,0,1,1,0.7785501938971229,1.7785501938971229,1.2214498061028771,3,1,1.5285501938971229,0,3,0,3,0,0,8,8,4,,,,,,,0.006053957997210091,268.41425150000214,268.41425150000214,269.42806841700076,269.9475970420026,270.16104404200087,270.16104404200087,270.16104404200087,271.394804167001,271.394804167001,271.394804167001,271.394804167001,4.029841374998796,272.3948055000001,200001,001,2023-03-10_11h52.53.490,DMS_BEST_eyetracking_DAN_base_12-36_looped_10minWORKING,2022.2.4,None,
,,,,,,,,,,,,,,,,,,,,,,,,,,,,,,,3,0,3,0,,,,,,,,,272.49129783399985,284.5139257920018,,,,,,,,,,,,,,,200001,001,2023-03-10_11h52.53.490,DMS_BEST_eyetracking_DAN_base_12-36_looped_10minWORKING,2022.2.4,None,
40,PRED,12,0.6633734717875879,2,images/picture_3.png,images/picture_1.png,0,"[11.733433509789464, 11.733433509789462]",11.733433509789464,11.733433509789462,images/picture_2.png,1,"[-11.733433509789466, -11.733433509789462]",-11.733433509789464,-11.733433509789462,images/picture_3.png,2,"[-11.733433509789462, 11.733433509789464]",-11.733433509789462,11.733433509789464,0,1,1,0.6633734717875879,1.663373471787588,1.336626528212412,3,1,1.413373471787588,0,4,0,4,0,0,0,0,4,,,,,,,,,,,,,,,,,,,,,200001,001,2023-03-10_11h52.53.490,DMS_BEST_eyetracking_DAN_base_12-36_looped_10minWORKING,2022.2.4,None,
40,PRED,12,0.6633734717875879,2,images/picture_3.png,images/picture_1.png,0,"[11.733433509789464, 11.733433509789462]",11.733433509789464,11.733433509789462,images/picture_2.png,1,"[-11.733433509789466, -11.733433509789462]",-11.733433509789464,-11.733433509789462,images/picture_3.png,2,"[-11.733433509789462, 11.733433509789464]",-11.733433509789462,11.733433509789464,0,1,1,0.6633734717875879,1.663373471787588,1.336626528212412,3,1,1.413373471787588,0,4,0,4,0,0,0,0,4,,,,,,,0.0026576669988571666,284.5139257920018,284.5139257920018,285.52812395900037,285.92809766700157,286.1816436670015,286.1816436670015,286.1816436670015,287.51355770900045,287.52760641699933,287.52760641699933,287.52760641699933,4.011328708998917,288.5282415420006,200001,001,2023-03-10_11h52.53.490,DMS_BEST_eyetracking_DAN_base_12-36_looped_10minWORKING,2022.2.4,None,
42,PRED,12,0.7228800652150004,2,images/picture_3.png,images/picture_1.png,0,"[-11.733433509789466, -11.733433509789462]",-11.733433509789464,-11.733433509789462,images/picture_2.png,1,"[11.733433509789464, 11.733433509789462]",11.733433509789464,11.733433509789462,images/picture_3.png,2,"[-11.733433509789462, 11.733433509789464]",-11.733433509789462,11.733433509789464,0,1,1,0.7228800652150004,1.7228800652150005,1.2771199347849995,3,1,1.4728800652150005,0,4,0,4,0,0,1,1,6,,,,,,,,,,,,,,,,,,,,,200001,001,2023-03-10_11h52.53.490,DMS_BEST_eyetracking_DAN_base_12-36_looped_10minWORKING,2022.2.4,None,
42,PRED,12,0.7228800652150004,2,images/picture_3.png,images/picture_1.png,0,"[-11.733433509789466, -11.733433509789462]",-11.733433509789464,-11.733433509789462,images/picture_2.png,1,"[11.733433509789464, 11.733433509789462]",11.733433509789464,11.733433509789462,images/picture_3.png,2,"[-11.733433509789462, 11.733433509789464]",-11.733433509789462,11.733433509789464,0,1,1,0.7228800652150004,1.7228800652150005,1.2771199347849995,3,1,1.4728800652150005,0,4,0,4,0,0,1,1,6,,,,,,,0.003129624998109648,288.5282415420006,288.5282415420006,289.528083084002,290.0140963340018,290.2474815420028,290.2474815420028,290.2474815420028,291.5281257500028,291.5281257500028,291.5281257500028,291.5281257500028,3.9971709169985843,292.5280652090005,200001,001,2023-03-10_11h52.53.490,DMS_BEST_eyetracking_DAN_base_12-36_looped_10minWORKING,2022.2.4,None,
43,PRED,12,1.1241702146809538,2,images/picture_3.png,images/picture_1.png,0,"[-11.733433509789462, 11.733433509789464]",-11.733433509789462,11.733433509789464,images/picture_2.png,1,"[11.733433509789462, -11.733433509789466]",11.733433509789462,-11.733433509789464,images/picture_3.png,2,"[-11.733433509789466, -11.733433509789462]",-11.733433509789464,-11.733433509789462,0,1,1,1.1241702146809538,2.1241702146809542,0.8758297853190462,3,1,1.8741702146809536,0,4,0,4,0,0,2,2,7,,,,,,,,,,,,,,,,,,,,,200001,001,2023-03-10_11h52.53.490,DMS_BEST_eyetracking_DAN_base_12-36_looped_10minWORKING,2022.2.4,None,
43,PRED,12,1.1241702146809538,2,images/picture_3.png,images/picture_1.png,0,"[-11.733433509789462, 11.733433509789464]",-11.733433509789462,11.733433509789464,images/picture_2.png,1,"[11.733433509789462, -11.733433509789466]",11.733433509789462,-11.733433509789464,images/picture_3.png,2,"[-11.733433509789466, -11.733433509789462]",-11.733433509789464,-11.733433509789462,0,1,1,1.1241702146809538,2.1241702146809542,0.8758297853190462,3,1,1.8741702146809536,0,4,0,4,0,0,2,2,7,,,,,,,0.003137583000352606,292.5280652090005,292.5280652090005,293.528123125001,294.4143035840025,294.6476563340002,294.6476563340002,294.6476563340002,295.52811125000153,295.52811125000153,295.52811125000153,295.52811125000153,3.9970413750015723,296.52819633400213,200001,001,2023-03-10_11h52.53.490,DMS_BEST_eyetracking_DAN_base_12-36_looped_10minWORKING,2022.2.4,None,
44,PRED,12,0.7934405621380527,2,images/picture_3.png,images/picture_1.png,0,"[-11.733433509789466, -11.733433509789462]",-11.733433509789464,-11.733433509789462,images/picture_2.png,1,"[11.733433509789462, -11.733433509789466]",11.733433509789462,-11.733433509789464,images/picture_3.png,2,"[-11.733433509789462, 11.733433509789464]",-11.733433509789462,11.733433509789464,0,1,1,0.7934405621380527,1.7934405621380527,1.2065594378619473,3,1,1.5434405621380527,0,4,0,4,0,0,3,3,8,,,,,,,,,,,,,,,,,,,,,200001,001,2023-03-10_11h52.53.490,DMS_BEST_eyetracking_DAN_base_12-36_looped_10minWORKING,2022.2.4,None,
44,PRED,12,0.7934405621380527,2,images/picture_3.png,images/picture_1.png,0,"[-11.733433509789466, -11.733433509789462]",-11.733433509789464,-11.733433509789462,images/picture_2.png,1,"[11.733433509789462, -11.733433509789466]",11.733433509789462,-11.733433509789464,images/picture_3.png,2,"[-11.733433509789462, 11.733433509789464]",-11.733433509789462,11.733433509789464,0,1,1,0.7934405621380527,1.7934405621380527,1.2065594378619473,3,1,1.5434405621380527,0,4,0,4,0,0,3,3,8,,,,,,,0.0030593339979532175,296.52819633400213,296.52819633400213,297.5276714169995,298.0801209170022,298.31377975000214,298.31377975000214,298.31377975000214,299.5281352500024,299.5281352500024,299.5281352500024,299.5281352500024,3.9974155419986346,300.547599542002,200001,001,2023-03-10_11h52.53.490,DMS_BEST_eyetracking_DAN_base_12-36_looped_10minWORKING,2022.2.4,None,
38,PRED,12,0.8490717860495209,2,images/picture_3.png,images/picture_1.png,0,"[11.733433509789462, -11.733433509789466]",11.733433509789462,-11.733433509789464,images/picture_2.png,1,"[-11.733433509789462, 11.733433509789464]",-11.733433509789462,11.733433509789464,images/picture_3.png,2,"[-11.733433509789466, -11.733433509789462]",-11.733433509789464,-11.733433509789462,0,1,1,0.8490717860495209,1.849071786049521,1.150928213950479,3,1,1.599071786049521,0,4,0,4,0,0,4,4,2,,,,,,,,,,,,,,,,,,,,,200001,001,2023-03-10_11h52.53.490,DMS_BEST_eyetracking_DAN_base_12-36_looped_10minWORKING,2022.2.4,None,
38,PRED,12,0.8490717860495209,2,images/picture_3.png,images/picture_1.png,0,"[11.733433509789462, -11.733433509789466]",11.733433509789462,-11.733433509789464,images/picture_2.png,1,"[-11.733433509789462, 11.733433509789464]",-11.733433509789462,11.733433509789464,images/picture_3.png,2,"[-11.733433509789466, -11.733433509789462]",-11.733433509789464,-11.733433509789462,0,1,1,0.8490717860495209,1.849071786049521,1.150928213950479,3,1,1.599071786049521,0,4,0,4,0,0,4,4,2,,,,,,,0.003396416999748908,300.547599542002,300.547599542002,301.5616354170015,302.1615034589995,302.38167383399923,302.38167383399923,302.38167383399923,303.528270584,303.5476738340003,303.5476738340003,303.5476738340003,4.029670582996914,304.52813779200005,200001,001,2023-03-10_11h52.53.490,DMS_BEST_eyetracking_DAN_base_12-36_looped_10minWORKING,2022.2.4,None,
41,PRED,12,0.7128858234742107,2,images/picture_3.png,images/picture_1.png,0,"[-11.733433509789462, 11.733433509789464]",-11.733433509789462,11.733433509789464,images/picture_2.png,1,"[11.733433509789462, -11.733433509789466]",11.733433509789462,-11.733433509789464,images/picture_3.png,2,"[-11.733433509789466, -11.733433509789462]",-11.733433509789464,-11.733433509789462,0,1,1,0.7128858234742107,1.7128858234742106,1.2871141765257894,3,1,1.4628858234742106,0,4,0,4,0,0,5,5,5,,,,,,,,,,,,,,,,,,,,,200001,001,2023-03-10_11h52.53.490,DMS_BEST_eyetracking_DAN_base_12-36_looped_10minWORKING,2022.2.4,None,
41,PRED,12,0.7128858234742107,2,images/picture_3.png,images/picture_1.png,0,"[-11.733433509789462, 11.733433509789464]",-11.733433509789462,11.733433509789464,images/picture_2.png,1,"[11.733433509789462, -11.733433509789466]",11.733433509789462,-11.733433509789464,images/picture_3.png,2,"[-11.733433509789466, -11.733433509789462]",-11.733433509789464,-11.733433509789462,0,1,1,0.7128858234742107,1.7128858234742106,1.2871141765257894,3,1,1.4628858234742106,0,4,0,4,0,0,5,5,5,,,,,,,0.0030515420003212057,304.56145729200216,304.56145729200216,305.5615340000004,306.02824120900186,306.2612692500006,306.2612692500006,306.2612692500006,307.56137920900073,307.56137920900073,307.56137920900073,307.56137920900073,3.9968295420003415,308.5622378750013,200001,001,2023-03-10_11h52.53.490,DMS_BEST_eyetracking_DAN_base_12-36_looped_10minWORKING,2022.2.4,None,
37,PRED,12,1.010474884336548,2,images/picture_3.png,images/picture_1.png,0,"[-11.733433509789462, 11.733433509789464]",-11.733433509789462,11.733433509789464,images/picture_2.png,1,"[11.733433509789464, 11.733433509789462]",11.733433509789464,11.733433509789462,images/picture_3.png,2,"[11.733433509789462, -11.733433509789466]",11.733433509789462,-11.733433509789464,0,1,1,1.010474884336548,2.0104748843365483,0.989525115663452,3,1,1.760474884336548,0,4,0,4,0,0,6,6,1,,,,,,,,,,,,,,,,,,,,,200001,001,2023-03-10_11h52.53.490,DMS_BEST_eyetracking_DAN_base_12-36_looped_10minWORKING,2022.2.4,None,
37,PRED,12,1.010474884336548,2,images/picture_3.png,images/picture_1.png,0,"[-11.733433509789462, 11.733433509789464]",-11.733433509789462,11.733433509789464,images/picture_2.png,1,"[11.733433509789464, 11.733433509789462]",11.733433509789464,11.733433509789462,images/picture_3.png,2,"[11.733433509789462, -11.733433509789466]",11.733433509789462,-11.733433509789464,0,1,1,1.010474884336548,2.0104748843365483,0.989525115663452,3,1,1.760474884336548,0,4,0,4,0,0,6,6,1,,,,,,,0.003066167002543807,308.5622378750013,308.5622378750013,309.56158416700055,310.3283160840001,310.5615250840019,310.5615250840019,310.5615250840019,311.5615543340027,311.5615543340027,311.5615543340027,311.5615543340027,3.9966647080000257,312.581125834,200001,001,2023-03-10_11h52.53.490,DMS_BEST_eyetracking_DAN_base_12-36_looped_10minWORKING,2022.2.4,None,
39,PRED,12,0.9459786747211666,2,images/picture_3.png,images/picture_1.png,0,"[11.733433509789462, -11.733433509789466]",11.733433509789462,-11.733433509789464,images/picture_2.png,1,"[11.733433509789464, 11.733433509789462]",11.733433509789464,11.733433509789462,images/picture_3.png,2,"[-11.733433509789462, 11.733433509789464]",-11.733433509789462,11.733433509789464,0,1,1,0.9459786747211666,1.9459786747211667,1.0540213252788333,3,1,1.6959786747211667,0,4,0,4,0,0,7,7,3,,,,,,,,,,,,,,,,,,,,,200001,001,2023-03-10_11h52.53.490,DMS_BEST_eyetracking_DAN_base_12-36_looped_10minWORKING,2022.2.4,None,
39,PRED,12,0.9459786747211666,2,images/picture_3.png,images/picture_1.png,0,"[11.733433509789462, -11.733433509789466]",11.733433509789462,-11.733433509789464,images/picture_2.png,1,"[11.733433509789464, 11.733433509789462]",11.733433509789464,11.733433509789462,images/picture_3.png,2,"[-11.733433509789462, 11.733433509789464]",-11.733433509789462,11.733433509789464,0,1,1,0.9459786747211666,1.9459786747211667,1.0540213252788333,3,1,1.6959786747211667,0,4,0,4,0,0,7,7,3,,,,,,,0.003597209000872681,312.581125834,312.581125834,313.5948911250016,314.2811556250017,314.4946888750019,314.4946888750019,314.4946888750019,315.56160566700055,315.56160566700055,315.56160566700055,315.56160566700055,4.02922050000052,316.56160645899945,200001,001,2023-03-10_11h52.53.490,DMS_BEST_eyetracking_DAN_base_12-36_looped_10minWORKING,2022.2.4,None,
36,PRED,12,0.5150090774811503,2,images/picture_3.png,images/picture_1.png,0,"[-11.733433509789462, 11.733433509789464]",-11.733433509789462,11.733433509789464,images/picture_2.png,1,"[11.733433509789462, -11.733433509789466]",11.733433509789462,-11.733433509789464,images/picture_3.png,2,"[11.733433509789464, 11.733433509789462]",11.733433509789464,11.733433509789462,0,1,1,0.5150090774811503,1.5150090774811504,1.4849909225188496,3,1,1.2650090774811504,0,4,0,4,0,0,8,8,0,,,,,,,,,,,,,,,,,,,,,200001,001,2023-03-10_11h52.53.490,DMS_BEST_eyetracking_DAN_base_12-36_looped_10minWORKING,2022.2.4,None,
36,PRED,12,0.5150090774811503,2,images/picture_3.png,images/picture_1.png,0,"[-11.733433509789462, 11.733433509789464]",-11.733433509789462,11.733433509789464,images/picture_2.png,1,"[11.733433509789462, -11.733433509789466]",11.733433509789462,-11.733433509789464,images/picture_3.png,2,"[11.733433509789464, 11.733433509789462]",11.733433509789464,11.733433509789462,0,1,1,0.5150090774811503,1.5150090774811504,1.4849909225188496,3,1,1.2650090774811504,0,4,0,4,0,0,8,8,0,,,,,,,0.003432458997849608,316.59563608400276,316.59563608400276,317.59460683400175,317.86120975000085,318.1136985000012,318.1136985000012,318.1136985000012,319.59495416700156,319.59495416700156,319.59495416700156,319.59495416700156,3.9966368339992187,320.64859741700275,200001,001,2023-03-10_11h52.53.490,DMS_BEST_eyetracking_DAN_base_12-36_looped_10minWORKING,2022.2.4,None,
,,,,,,,,,,,,,,,,,,,,,,,,,,,,,,,4,0,4,0,,,,,,,,,320.64859741700275,332.68127749999985,,,,,,,,,,,,,,,200001,001,2023-03-10_11h52.53.490,DMS_BEST_eyetracking_DAN_base_12-36_looped_10minWORKING,2022.2.4,None,
49,UNPRED,12,0.8043179469084802,0,images/picture_1.png,images/picture_1.png,0,"[-11.733433509789462, 11.733433509789464]",-11.733433509789462,11.733433509789464,images/picture_2.png,1,"[11.733433509789462, -11.733433509789466]",11.733433509789462,-11.733433509789464,images/picture_3.png,2,"[-11.733433509789466, -11.733433509789462]",-11.733433509789464,-11.733433509789462,0,1,1,0.8043179469084802,1.80431794690848,1.1956820530915198,3,1,1.5543179469084802,0,5,0,5,0,0,0,0,4,,,,,,,,,,,,,,,,,,,,,200001,001,2023-03-10_11h52.53.490,DMS_BEST_eyetracking_DAN_base_12-36_looped_10minWORKING,2022.2.4,None,
49,UNPRED,12,0.8043179469084802,0,images/picture_1.png,images/picture_1.png,0,"[-11.733433509789462, 11.733433509789464]",-11.733433509789462,11.733433509789464,images/picture_2.png,1,"[11.733433509789462, -11.733433509789466]",11.733433509789462,-11.733433509789464,images/picture_3.png,2,"[-11.733433509789466, -11.733433509789462]",-11.733433509789464,-11.733433509789462,0,1,1,0.8043179469084802,1.80431794690848,1.1956820530915198,3,1,1.5543179469084802,0,5,0,5,0,0,0,0,4,,,,,,,0.0036387079999258276,332.68127749999985,332.68127749999985,333.69509912500143,334.2480416670005,334.48126470900024,334.48126470900024,334.48126470900024,335.6813660000007,335.6813660000007,335.6813660000007,335.6813660000007,4.011712499999703,336.71451433400216,200001,001,2023-03-10_11h52.53.490,DMS_BEST_eyetracking_DAN_base_12-36_looped_10minWORKING,2022.2.4,None,
45,UNPRED,12,0.8222671281421783,1,images/picture_2.png,images/picture_1.png,0,"[-11.733433509789466, -11.733433509789462]",-11.733433509789464,-11.733433509789462,images/picture_2.png,1,"[11.733433509789464, 11.733433509789462]",11.733433509789464,11.733433509789462,images/picture_3.png,2,"[11.733433509789462, -11.733433509789466]",11.733433509789462,-11.733433509789464,0,1,1,0.8222671281421783,1.8222671281421785,1.1777328718578215,3,1,1.5722671281421785,0,5,0,5,0,0,1,1,0,,,,,,,,,,,,,,,,,,,,,200001,001,2023-03-10_11h52.53.490,DMS_BEST_eyetracking_DAN_base_12-36_looped_10minWORKING,2022.2.4,None,
45,UNPRED,12,0.8222671281421783,1,images/picture_2.png,images/picture_1.png,0,"[-11.733433509789466, -11.733433509789462]",-11.733433509789464,-11.733433509789462,images/picture_2.png,1,"[11.733433509789464, 11.733433509789462]",11.733433509789464,11.733433509789462,images/picture_3.png,2,"[11.733433509789462, -11.733433509789466]",11.733433509789462,-11.733433509789464,0,1,1,0.8222671281421783,1.8222671281421785,1.1777328718578215,3,1,1.5722671281421785,0,5,0,5,0,0,1,1,0,,,,,,,0.006053290999261662,336.71451433400216,336.71451433400216,337.7283770419999,338.29461729200193,338.5136673750021,338.5136673750021,338.5136673750021,339.6950648750026,339.6950648750026,339.6950648750026,339.6950648750026,4.0293075000008685,340.6950885840015,200001,001,2023-03-10_11h52.53.490,DMS_BEST_eyetracking_DAN_base_12-36_looped_10minWORKING,2022.2.4,None,
52,UNPRED,12,0.8293812592105079,1,images/picture_2.png,images/picture_1.png,0,"[-11.733433509789466, -11.733433509789462]",-11.733433509789464,-11.733433509789462,images/picture_2.png,1,"[11.733433509789464, 11.733433509789462]",11.733433509789464,11.733433509789462,images/picture_3.png,2,"[11.733433509789462, -11.733433509789466]",11.733433509789462,-11.733433509789464,0,1,1,0.8293812592105079,1.829381259210508,1.170618740789492,3,1,1.579381259210508,0,5,0,5,0,0,2,2,7,,,,,,,,,,,,,,,,,,,,,200001,001,2023-03-10_11h52.53.490,DMS_BEST_eyetracking_DAN_base_12-36_looped_10minWORKING,2022.2.4,None,
52,UNPRED,12,0.8293812592105079,1,images/picture_2.png,images/picture_1.png,0,"[-11.733433509789466, -11.733433509789462]",-11.733433509789464,-11.733433509789462,images/picture_2.png,1,"[11.733433509789464, 11.733433509789462]",11.733433509789464,11.733433509789462,images/picture_3.png,2,"[11.733433509789462, -11.733433509789466]",11.733433509789462,-11.733433509789464,0,1,1,0.8293812592105079,1.829381259210508,1.170618740789492,3,1,1.579381259210508,0,5,0,5,0,0,2,2,7,,,,,,,0.004930916999001056,340.74798991699936,340.74798991699936,341.76170479199936,342.328349667001,342.5615820000021,342.5615820000021,342.5615820000021,343.728290250001,343.74738329200045,343.74738329200045,343.74738329200045,4.031174499999906,344.72837962500125,200001,001,2023-03-10_11h52.53.490,DMS_BEST_eyetracking_DAN_base_12-36_looped_10minWORKING,2022.2.4,None,
46,UNPRED,12,0.5515573476686633,2,images/picture_3.png,images/picture_1.png,0,"[11.733433509789464, 11.733433509789462]",11.733433509789464,11.733433509789462,images/picture_2.png,1,"[-11.733433509789462, 11.733433509789464]",-11.733433509789462,11.733433509789464,images/picture_3.png,2,"[11.733433509789462, -11.733433509789466]",11.733433509789462,-11.733433509789464,0,1,1,0.5515573476686633,1.5515573476686633,1.4484426523313367,3,1,1.3015573476686633,0,5,0,5,0,0,3,3,1,,,,,,,,,,,,,,,,,,,,,200001,001,2023-03-10_11h52.53.490,DMS_BEST_eyetracking_DAN_base_12-36_looped_10minWORKING,2022.2.4,None,
46,UNPRED,12,0.5515573476686633,2,images/picture_3.png,images/picture_1.png,0,"[11.733433509789464, 11.733433509789462]",11.733433509789464,11.733433509789462,images/picture_2.png,1,"[-11.733433509789462, 11.733433509789464]",-11.733433509789462,11.733433509789464,images/picture_3.png,2,"[11.733433509789462, -11.733433509789466]",11.733433509789462,-11.733433509789464,0,1,1,0.5515573476686633,1.5515573476686633,1.4484426523313367,3,1,1.3015573476686633,0,5,0,5,0,0,3,3,1,,,,,,,0.003364583000802668,344.7812213340003,344.7812213340003,345.79506233400025,346.09506958400016,346.3145870420012,346.3145870420012,346.3145870420012,347.7618435840013,347.7618435840013,347.7618435840013,347.7618435840013,4.0285546660015825,348.7613122920011,200001,001,2023-03-10_11h52.53.490,DMS_BEST_eyetracking_DAN_base_12-36_looped_10minWORKING,2022.2.4,None,
48,UNPRED,12,0.9001215323149871,2,images/picture_3.png,images/picture_1.png,0,"[11.733433509789464, 11.733433509789462]",11.733433509789464,11.733433509789462,images/picture_2.png,1,"[-11.733433509789466, -11.733433509789462]",-11.733433509789464,-11.733433509789462,images/picture_3.png,2,"[11.733433509789462, -11.733433509789466]",11.733433509789462,-11.733433509789464,0,1,1,0.9001215323149871,1.9001215323149871,1.0998784676850129,3,1,1.6501215323149871,0,5,0,5,0,0,4,4,3,,,,,,,,,,,,,,,,,,,,,200001,001,2023-03-10_11h52.53.490,DMS_BEST_eyetracking_DAN_base_12-36_looped_10minWORKING,2022.2.4,None,
48,UNPRED,12,0.9001215323149871,2,images/picture_3.png,images/picture_1.png,0,"[11.733433509789464, 11.733433509789462]",11.733433509789464,11.733433509789462,images/picture_2.png,1,"[-11.733433509789466, -11.733433509789462]",-11.733433509789464,-11.733433509789462,images/picture_3.png,2,"[11.733433509789462, -11.733433509789466]",11.733433509789462,-11.733433509789464,0,1,1,0.9001215323149871,1.9001215323149871,1.0998784676850129,3,1,1.6501215323149871,0,5,0,5,0,0,4,4,3,,,,,,,0.0013608330009446945,348.7946140839995,348.7946140839995,349.7951514590022,350.4480512090013,350.6950819170015,350.6950819170015,350.6950819170015,351.7950750000018,351.7950750000018,351.7950750000018,351.7950750000018,3.997903541003325,352.814671084001,200001,001,2023-03-10_11h52.53.490,DMS_BEST_eyetracking_DAN_base_12-36_looped_10minWORKING,2022.2.4,None,
53,UNPRED,12,0.8550931454530375,0,images/picture_1.png,images/picture_1.png,0,"[11.733433509789464, 11.733433509789462]",11.733433509789464,11.733433509789462,images/picture_2.png,1,"[-11.733433509789466, -11.733433509789462]",-11.733433509789464,-11.733433509789462,images/picture_3.png,2,"[-11.733433509789462, 11.733433509789464]",-11.733433509789462,11.733433509789464,0,1,1,0.8550931454530375,1.8550931454530373,1.1449068545469625,3,1,1.6050931454530375,0,5,0,5,0,0,5,5,8,,,,,,,,,,,,,,,,,,,,,200001,001,2023-03-10_11h52.53.490,DMS_BEST_eyetracking_DAN_base_12-36_looped_10minWORKING,2022.2.4,None,
53,UNPRED,12,0.8550931454530375,0,images/picture_1.png,images/picture_1.png,0,"[11.733433509789464, 11.733433509789462]",11.733433509789464,11.733433509789462,images/picture_2.png,1,"[-11.733433509789466, -11.733433509789462]",-11.733433509789464,-11.733433509789462,images/picture_3.png,2,"[-11.733433509789462, 11.733433509789464]",-11.733433509789462,11.733433509789464,0,1,1,0.8550931454530375,1.8550931454530373,1.1449068545469625,3,1,1.6050931454530375,0,5,0,5,0,0,5,5,8,,,,,,,0.004576791001454694,352.814671084001,352.814671084001,353.8284348340021,354.4285896250003,354.64836041700255,354.64836041700255,354.64836041700255,355.79511866699977,355.79511866699977,355.79511866699977,355.79511866699977,4.0299352500005625,356.7951224999997,200001,001,2023-03-10_11h52.53.490,DMS_BEST_eyetracking_DAN_base_12-36_looped_10minWORKING,2022.2.4,None,
50,UNPRED,12,1.126945668477071,2,images/picture_3.png,images/picture_1.png,0,"[11.733433509789462, -11.733433509789466]",11.733433509789462,-11.733433509789464,images/picture_2.png,1,"[-11.733433509789462, 11.733433509789464]",-11.733433509789462,11.733433509789464,images/picture_3.png,2,"[11.733433509789464, 11.733433509789462]",11.733433509789464,11.733433509789462,0,1,1,1.126945668477071,2.1269456684770707,0.8730543315229293,3,1,1.876945668477071,0,5,0,5,0,0,6,6,5,,,,,,,,,,,,,,,,,,,,,200001,001,2023-03-10_11h52.53.490,DMS_BEST_eyetracking_DAN_base_12-36_looped_10minWORKING,2022.2.4,None,
50,UNPRED,12,1.126945668477071,2,images/picture_3.png,images/picture_1.png,0,"[11.733433509789462, -11.733433509789466]",11.733433509789462,-11.733433509789464,images/picture_2.png,1,"[-11.733433509789462, 11.733433509789464]",-11.733433509789462,11.733433509789464,images/picture_3.png,2,"[11.733433509789464, 11.733433509789462]",11.733433509789464,11.733433509789462,0,1,1,1.126945668477071,2.1269456684770707,0.8730543315229293,3,1,1.876945668477071,0,5,0,5,0,0,6,6,5,,,,,,,0.0043553340001381,356.847963917,356.847963917,357.86182679200283,358.72804216700024,358.94713287500053,358.94713287500053,358.94713287500053,359.8283712500015,359.8283712500015,359.8283712500015,359.8283712500015,4.029801042001054,360.8285175420024,200001,001,2023-03-10_11h52.53.490,DMS_BEST_eyetracking_DAN_base_12-36_looped_10minWORKING,2022.2.4,None,
51,UNPRED,12,1.0278713745054764,1,images/picture_2.png,images/picture_1.png,0,"[-11.733433509789466, -11.733433509789462]",-11.733433509789464,-11.733433509789462,images/picture_2.png,1,"[11.733433509789464, 11.733433509789462]",11.733433509789464,11.733433509789462,images/picture_3.png,2,"[11.733433509789462, -11.733433509789466]",11.733433509789462,-11.733433509789464,0,1,1,1.0278713745054764,2.0278713745054766,0.9721286254945236,3,1,1.7778713745054766,0,5,0,5,0,0,7,7,6,,,,,,,,,,,,,,,,,,,,,200001,001,2023-03-10_11h52.53.490,DMS_BEST_eyetracking_DAN_base_12-36_looped_10minWORKING,2022.2.4,None,
51,UNPRED,12,1.0278713745054764,1,images/picture_2.png,images/picture_1.png,0,"[-11.733433509789466, -11.733433509789462]",-11.733433509789464,-11.733433509789462,images/picture_2.png,1,"[11.733433509789464, 11.733433509789462]",11.733433509789464,11.733433509789462,images/picture_3.png,2,"[11.733433509789462, -11.733433509789466]",11.733433509789462,-11.733433509789464,0,1,1,1.0278713745054764,2.0278713745054766,0.9721286254945236,3,1,1.7778713745054766,0,5,0,5,0,0,7,7,6,,,,,,,0.004997416999685811,360.88103350000165,360.88103350000165,361.89513562499997,362.66195354199954,362.8816415000001,362.8816415000001,362.8816415000001,363.86189037499935,363.86189037499935,363.86189037499935,363.86189037499935,4.029885791998822,364.86179420900226,200001,001,2023-03-10_11h52.53.490,DMS_BEST_eyetracking_DAN_base_12-36_looped_10minWORKING,2022.2.4,None,
47,UNPRED,12,1.1597741178053549,1,images/picture_2.png,images/picture_1.png,0,"[-11.733433509789462, 11.733433509789464]",-11.733433509789462,11.733433509789464,images/picture_2.png,1,"[-11.733433509789466, -11.733433509789462]",-11.733433509789464,-11.733433509789462,images/picture_3.png,2,"[11.733433509789464, 11.733433509789462]",11.733433509789464,11.733433509789462,0,1,1,1.1597741178053549,2.159774117805355,0.8402258821946451,3,1,1.9097741178053549,0,5,0,5,0,0,8,8,2,,,,,,,,,,,,,,,,,,,,,200001,001,2023-03-10_11h52.53.490,DMS_BEST_eyetracking_DAN_base_12-36_looped_10minWORKING,2022.2.4,None,
47,UNPRED,12,1.1597741178053549,1,images/picture_2.png,images/picture_1.png,0,"[-11.733433509789462, 11.733433509789464]",-11.733433509789462,11.733433509789464,images/picture_2.png,1,"[-11.733433509789466, -11.733433509789462]",-11.733433509789464,-11.733433509789462,images/picture_3.png,2,"[11.733433509789464, 11.733433509789462]",11.733433509789464,11.733433509789462,0,1,1,1.1597741178053549,2.159774117805355,0.8402258821946451,3,1,1.9097741178053549,0,5,0,5,0,0,8,8,2,,,,,,,0.004972124999767402,364.914530459002,364.914530459002,365.9285789170026,366.8286277920015,367.0480567500017,367.0480567500017,367.0480567500017,367.8951755840026,367.8951755840026,367.8951755840026,367.8951755840026,4.029331834000914,368.8947157920011,200001,001,2023-03-10_11h52.53.490,DMS_BEST_eyetracking_DAN_base_12-36_looped_10minWORKING,2022.2.4,None,
,,,,,,,,,,,,,,,,,,,,,,,,,,,,,,,5,0,5,0,,,,,,,,,368.97895487500136,380.99618487500265,,,,,,,,,,,,,,,200001,001,2023-03-10_11h52.53.490,DMS_BEST_eyetracking_DAN_base_12-36_looped_10minWORKING,2022.2.4,None,
61,PRED,12,1.1840495440516086,0,images/picture_1.png,images/picture_1.png,0,"[11.733433509789462, -11.733433509789466]",11.733433509789462,-11.733433509789464,images/picture_2.png,1,"[-11.733433509789462, 11.733433509789464]",-11.733433509789462,11.733433509789464,images/picture_3.png,2,"[-11.733433509789466, -11.733433509789462]",-11.733433509789464,-11.733433509789462,0,1,1,1.1840495440516086,2.184049544051609,0.8159504559483914,3,1,1.9340495440516088,0,6,0,6,0,0,0,0,7,,,,,,,,,,,,,,,,,,,,,200001,001,2023-03-10_11h52.53.490,DMS_BEST_eyetracking_DAN_base_12-36_looped_10minWORKING,2022.2.4,None,
61,PRED,12,1.1840495440516086,0,images/picture_1.png,images/picture_1.png,0,"[11.733433509789462, -11.733433509789466]",11.733433509789462,-11.733433509789464,images/picture_2.png,1,"[-11.733433509789462, 11.733433509789464]",-11.733433509789462,11.733433509789464,images/picture_3.png,2,"[-11.733433509789466, -11.733433509789462]",-11.733433509789464,-11.733433509789462,0,1,1,1.1840495440516086,2.184049544051609,0.8159504559483914,3,1,1.9340495440516088,0,6,0,6,0,0,0,0,7,,,,,,,0.003903165998053737,380.99618487500265,380.99618487500265,381.9954067920007,382.928578250001,383.1815122090011,383.1815122090011,383.1815122090011,383.9951506670004,383.9951506670004,383.9951506670004,383.9951506670004,3.9965679999986605,384.99567424999987,200001,001,2023-03-10_11h52.53.490,DMS_BEST_eyetracking_DAN_base_12-36_looped_10minWORKING,2022.2.4,None,
57,PRED,12,0.7575108936760029,0,images/picture_1.png,images/picture_1.png,0,"[11.733433509789462, -11.733433509789466]",11.733433509789462,-11.733433509789464,images/picture_2.png,1,"[11.733433509789464, 11.733433509789462]",11.733433509789464,11.733433509789462,images/picture_3.png,2,"[-11.733433509789466, -11.733433509789462]",-11.733433509789464,-11.733433509789462,0,1,1,0.7575108936760029,1.7575108936760029,1.2424891063239971,3,1,1.5075108936760029,0,6,0,6,0,0,1,1,3,,,,,,,,,,,,,,,,,,,,,200001,001,2023-03-10_11h52.53.490,DMS_BEST_eyetracking_DAN_base_12-36_looped_10minWORKING,2022.2.4,None,
57,PRED,12,0.7575108936760029,0,images/picture_1.png,images/picture_1.png,0,"[11.733433509789462, -11.733433509789466]",11.733433509789462,-11.733433509789464,images/picture_2.png,1,"[11.733433509789464, 11.733433509789462]",11.733433509789464,11.733433509789462,images/picture_3.png,2,"[-11.733433509789466, -11.733433509789462]",-11.733433509789464,-11.733433509789462,0,1,1,0.7575108936760029,1.7575108936760029,1.2424891063239971,3,1,1.5075108936760029,0,6,0,6,0,0,1,1,3,,,,,,,0.003435916998569155,384.99567424999987,384.99567424999987,385.99529104199974,386.5147116670014,386.74816258400097,386.74816258400097,386.74816258400097,387.99532812500183,387.99532812500183,387.99532812500183,387.99532812500183,3.9968204999968293,388.9947648340021,200001,001,2023-03-10_11h52.53.490,DMS_BEST_eyetracking_DAN_base_12-36_looped_10minWORKING,2022.2.4,None,
58,PRED,12,0.7826112059369981,0,images/picture_1.png,images/picture_1.png,0,"[-11.733433509789466, -11.733433509789462]",-11.733433509789464,-11.733433509789462,images/picture_2.png,1,"[-11.733433509789462, 11.733433509789464]",-11.733433509789462,11.733433509789464,images/picture_3.png,2,"[11.733433509789464, 11.733433509789462]",11.733433509789464,11.733433509789462,0,1,1,0.7826112059369981,1.782611205936998,1.217388794063002,3,1,1.532611205936998,0,6,0,6,0,0,2,2,4,,,,,,,,,,,,,,,,,,,,,200001,001,2023-03-10_11h52.53.490,DMS_BEST_eyetracking_DAN_base_12-36_looped_10minWORKING,2022.2.4,None,
58,PRED,12,0.7826112059369981,0,images/picture_1.png,images/picture_1.png,0,"[-11.733433509789466, -11.733433509789462]",-11.733433509789464,-11.733433509789462,images/picture_2.png,1,"[-11.733433509789462, 11.733433509789464]",-11.733433509789462,11.733433509789464,images/picture_3.png,2,"[11.733433509789464, 11.733433509789462]",11.733433509789464,11.733433509789462,0,1,1,0.7826112059369981,1.782611205936998,1.217388794063002,3,1,1.532611205936998,0,6,0,6,0,0,2,2,4,,,,,,,0.001326083998719696,388.9947648340021,388.9947648340021,389.99571387499964,390.5286329590017,390.7616785419996,390.7616785419996,390.7616785419996,391.995344125,391.9810424999996,391.9810424999996,391.9810424999996,3.999146334001125,392.9959652920006,200001,001,2023-03-10_11h52.53.490,DMS_BEST_eyetracking_DAN_base_12-36_looped_10minWORKING,2022.2.4,None,
54,PRED,12,0.844980308126152,0,images/picture_1.png,images/picture_1.png,0,"[-11.733433509789466, -11.733433509789462]",-11.733433509789464,-11.733433509789462,images/picture_2.png,1,"[11.733433509789462, -11.733433509789466]",11.733433509789462,-11.733433509789464,images/picture_3.png,2,"[11.733433509789464, 11.733433509789462]",11.733433509789464,11.733433509789462,0,1,1,0.844980308126152,1.8449803081261518,1.1550196918738478,3,1,1.5949803081261518,0,6,0,6,0,0,3,3,0,,,,,,,,,,,,,,,,,,,,,200001,001,2023-03-10_11h52.53.490,DMS_BEST_eyetracking_DAN_base_12-36_looped_10minWORKING,2022.2.4,None,
54,PRED,12,0.844980308126152,0,images/picture_1.png,images/picture_1.png,0,"[-11.733433509789466, -11.733433509789462]",-11.733433509789464,-11.733433509789462,images/picture_2.png,1,"[11.733433509789462, -11.733433509789466]",11.733433509789462,-11.733433509789464,images/picture_3.png,2,"[11.733433509789464, 11.733433509789462]",11.733433509789464,11.733433509789462,0,1,1,0.844980308126152,1.8449803081261518,1.1550196918738478,3,1,1.5949803081261518,0,6,0,6,0,0,3,3,0,,,,,,,0.003465999998297775,392.9959652920006,392.9959652920006,393.99535641700277,394.5953424170002,394.8286034590019,394.8286034590019,394.8286034590019,395.99531879200003,395.99531879200003,395.99531879200003,395.99531879200003,3.9971872079986497,397.0148440840021,200001,001,2023-03-10_11h52.53.490,DMS_BEST_eyetracking_DAN_base_12-36_looped_10minWORKING,2022.2.4,None,
60,PRED,12,0.8674963051011286,0,images/picture_1.png,images/picture_1.png,0,"[-11.733433509789462, 11.733433509789464]",-11.733433509789462,11.733433509789464,images/picture_2.png,1,"[-11.733433509789466, -11.733433509789462]",-11.733433509789464,-11.733433509789462,images/picture_3.png,2,"[11.733433509789464, 11.733433509789462]",11.733433509789464,11.733433509789462,0,1,1,0.8674963051011286,1.8674963051011289,1.1325036948988714,3,1,1.6174963051011286,0,6,0,6,0,0,4,4,6,,,,,,,,,,,,,,,,,,,,,200001,001,2023-03-10_11h52.53.490,DMS_BEST_eyetracking_DAN_base_12-36_looped_10minWORKING,2022.2.4,None,
60,PRED,12,0.8674963051011286,0,images/picture_1.png,images/picture_1.png,0,"[-11.733433509789462, 11.733433509789464]",-11.733433509789462,11.733433509789464,images/picture_2.png,1,"[-11.733433509789466, -11.733433509789462]",-11.733433509789464,-11.733433509789462,images/picture_3.png,2,"[11.733433509789464, 11.733433509789462]",11.733433509789464,11.733433509789462,0,1,1,0.8674963051011286,1.8674963051011289,1.1325036948988714,3,1,1.6174963051011286,0,6,0,6,0,0,4,4,6,,,,,,,0.0034775409985741135,397.0148440840021,397.0148440840021,398.02885629199955,398.6290588340016,398.8618608750003,398.8618608750003,398.8618608750003,399.9949997920012,399.9949997920012,399.9949997920012,399.9949997920012,4.03053508299854,400.99532883400025,200001,001,2023-03-10_11h52.53.490,DMS_BEST_eyetracking_DAN_base_12-36_looped_10minWORKING,2022.2.4,None,
55,PRED,12,0.9717038653354422,0,images/picture_1.png,images/picture_1.png,0,"[11.733433509789464, 11.733433509789462]",11.733433509789464,11.733433509789462,images/picture_2.png,1,"[-11.733433509789462, 11.733433509789464]",-11.733433509789462,11.733433509789464,images/picture_3.png,2,"[-11.733433509789466, -11.733433509789462]",-11.733433509789464,-11.733433509789462,0,1,1,0.9717038653354422,1.9717038653354424,1.0282961346645578,3,1,1.7217038653354422,0,6,0,6,0,0,5,5,1,,,,,,,,,,,,,,,,,,,,,200001,001,2023-03-10_11h52.53.490,DMS_BEST_eyetracking_DAN_base_12-36_looped_10minWORKING,2022.2.4,None,
55,PRED,12,0.9717038653354422,0,images/picture_1.png,images/picture_1.png,0,"[11.733433509789464, 11.733433509789462]",11.733433509789464,11.733433509789462,images/picture_2.png,1,"[-11.733433509789462, 11.733433509789464]",-11.733433509789462,11.733433509789464,images/picture_3.png,2,"[-11.733433509789466, -11.733433509789462]",-11.733433509789464,-11.733433509789462,0,1,1,0.9717038653354422,1.9717038653354424,1.0282961346645578,3,1,1.7217038653354422,0,6,0,6,0,0,5,5,1,,,,,,,0.0034954590009874664,401.04845637499966,401.04845637499966,402.06204708400037,402.78143425000235,402.9950672090017,402.9950672090017,402.9950672090017,404.0286933749994,404.0286933749994,404.0286933749994,404.0286933749994,4.029722416998993,405.02886429200225,200001,001,2023-03-10_11h52.53.490,DMS_BEST_eyetracking_DAN_base_12-36_looped_10minWORKING,2022.2.4,None,
59,PRED,12,0.93041871564331,0,images/picture_1.png,images/picture_1.png,0,"[11.733433509789464, 11.733433509789462]",11.733433509789464,11.733433509789462,images/picture_2.png,1,"[-11.733433509789466, -11.733433509789462]",-11.733433509789464,-11.733433509789462,images/picture_3.png,2,"[-11.733433509789462, 11.733433509789464]",-11.733433509789462,11.733433509789464,0,1,1,0.93041871564331,1.93041871564331,1.06958128435669,3,1,1.68041871564331,0,6,0,6,0,0,6,6,5,,,,,,,,,,,,,,,,,,,,,200001,001,2023-03-10_11h52.53.490,DMS_BEST_eyetracking_DAN_base_12-36_looped_10minWORKING,2022.2.4,None,
59,PRED,12,0.93041871564331,0,images/picture_1.png,images/picture_1.png,0,"[11.733433509789464, 11.733433509789462]",11.733433509789464,11.733433509789462,images/picture_2.png,1,"[-11.733433509789466, -11.733433509789462]",-11.733433509789464,-11.733433509789462,images/picture_3.png,2,"[-11.733433509789462, 11.733433509789464]",-11.733433509789462,11.733433509789464,0,1,1,0.93041871564331,1.93041871564331,1.06958128435669,3,1,1.68041871564331,0,6,0,6,0,0,6,6,5,,,,,,,0.003374374999111751,405.08157754200147,405.08157754200147,406.0954601670019,406.7620604590011,406.9951366250025,406.9951366250025,406.9951366250025,408.06203079199986,408.06203079199986,408.06203079199986,408.06203079199986,4.029897459000495,409.0620132090007,200001,001,2023-03-10_11h52.53.490,DMS_BEST_eyetracking_DAN_base_12-36_looped_10minWORKING,2022.2.4,None,
56,PRED,12,0.8038885712077103,0,images/picture_1.png,images/picture_1.png,0,"[11.733433509789462, -11.733433509789466]",11.733433509789462,-11.733433509789464,images/picture_2.png,1,"[-11.733433509789466, -11.733433509789462]",-11.733433509789464,-11.733433509789462,images/picture_3.png,2,"[11.733433509789464, 11.733433509789462]",11.733433509789464,11.733433509789462,0,1,1,0.8038885712077103,1.8038885712077104,1.1961114287922898,3,1,1.5538885712077102,0,6,0,6,0,0,7,7,2,,,,,,,,,,,,,,,,,,,,,200001,001,2023-03-10_11h52.53.490,DMS_BEST_eyetracking_DAN_base_12-36_looped_10minWORKING,2022.2.4,None,
56,PRED,12,0.8038885712077103,0,images/picture_1.png,images/picture_1.png,0,"[11.733433509789462, -11.733433509789466]",11.733433509789462,-11.733433509789464,images/picture_2.png,1,"[-11.733433509789466, -11.733433509789462]",-11.733433509789464,-11.733433509789462,images/picture_3.png,2,"[11.733433509789464, 11.733433509789462]",11.733433509789464,11.733433509789462,0,1,1,0.8038885712077103,1.8038885712077104,1.1961114287922898,3,1,1.5538885712077102,0,6,0,6,0,0,7,7,2,,,,,,,0.0034442910000507254,409.11501304200283,409.11501304200283,410.1283324590004,410.68149895900206,410.8951383750027,410.8951383750027,410.8951383750027,412.09540887500043,412.09540887500043,412.09540887500043,412.09540887500043,4.029547875001299,413.0954300000012,200001,001,2023-03-10_11h52.53.490,DMS_BEST_eyetracking_DAN_base_12-36_looped_10minWORKING,2022.2.4,None,
62,PRED,12,0.6297463478586743,0,images/picture_1.png,images/picture_1.png,0,"[11.733433509789464, 11.733433509789462]",11.733433509789464,11.733433509789462,images/picture_2.png,1,"[-11.733433509789462, 11.733433509789464]",-11.733433509789462,11.733433509789464,images/picture_3.png,2,"[-11.733433509789466, -11.733433509789462]",-11.733433509789464,-11.733433509789462,0,1,1,0.6297463478586743,1.6297463478586742,1.3702536521413258,3,1,1.3797463478586742,0,6,0,6,0,0,8,8,8,,,,,,,,,,,,,,,,,,,,,200001,001,2023-03-10_11h52.53.490,DMS_BEST_eyetracking_DAN_base_12-36_looped_10minWORKING,2022.2.4,None,
62,PRED,12,0.6297463478586743,0,images/picture_1.png,images/picture_1.png,0,"[11.733433509789464, 11.733433509789462]",11.733433509789464,11.733433509789462,images/picture_2.png,1,"[-11.733433509789462, 11.733433509789464]",-11.733433509789462,11.733433509789464,images/picture_3.png,2,"[-11.733433509789466, -11.733433509789462]",-11.733433509789464,-11.733433509789462,0,1,1,0.6297463478586743,1.6297463478586742,1.3702536521413258,3,1,1.3797463478586742,0,6,0,6,0,0,8,8,8,,,,,,,0.0034784589988703374,413.129634375,413.129634375,414.12875429199994,414.51497437500075,414.7620855000023,414.7620855000023,414.7620855000023,416.12877025000125,416.12877025000125,416.12877025000125,416.12877025000125,3.997257125000033,417.21925845900114,200001,001,2023-03-10_11h52.53.490,DMS_BEST_eyetracking_DAN_base_12-36_looped_10minWORKING,2022.2.4,None,
,,,,,,,,,,,,,,,,,,,,,,,,,,,,,,,6,0,6,0,,,,,,,,,417.21925845900114,429.2481985000013,,,,,,,,,,,,,,,200001,001,2023-03-10_11h52.53.490,DMS_BEST_eyetracking_DAN_base_12-36_looped_10minWORKING,2022.2.4,None,
63,UNPRED,12,0.9986564426308998,2,images/picture_3.png,images/picture_1.png,0,"[11.733433509789462, -11.733433509789466]",11.733433509789462,-11.733433509789464,images/picture_2.png,1,"[-11.733433509789466, -11.733433509789462]",-11.733433509789464,-11.733433509789462,images/picture_3.png,2,"[-11.733433509789462, 11.733433509789464]",-11.733433509789462,11.733433509789464,0,1,1,0.9986564426308998,1.9986564426309,1.0013435573691,3,1,1.7486564426309,0,7,0,7,0,0,0,0,0,,,,,,,,,,,,,,,,,,,,,200001,001,2023-03-10_11h52.53.490,DMS_BEST_eyetracking_DAN_base_12-36_looped_10minWORKING,2022.2.4,None,
63,UNPRED,12,0.9986564426308998,2,images/picture_3.png,images/picture_1.png,0,"[11.733433509789462, -11.733433509789466]",11.733433509789462,-11.733433509789464,images/picture_2.png,1,"[-11.733433509789466, -11.733433509789462]",-11.733433509789464,-11.733433509789462,images/picture_3.png,2,"[-11.733433509789462, 11.733433509789464]",-11.733433509789462,11.733433509789464,0,1,1,0.9986564426308998,1.9986564426309,1.0013435573691,3,1,1.7486564426309,0,7,0,7,0,0,0,0,0,,,,,,,0.0034355839998170268,429.2481985000013,429.2481985000013,430.2617131670013,430.9955722920022,431.2484535000003,431.2484535000003,431.2484535000003,432.24840354200205,432.26206458399975,432.26206458399975,432.26206458399975,4.011299249999865,433.2814340840014,200001,001,2023-03-10_11h52.53.490,DMS_BEST_eyetracking_DAN_base_12-36_looped_10minWORKING,2022.2.4,None,
64,UNPRED,12,0.8863031540050528,1,images/picture_2.png,images/picture_1.png,0,"[11.733433509789462, -11.733433509789466]",11.733433509789462,-11.733433509789464,images/picture_2.png,1,"[-11.733433509789466, -11.733433509789462]",-11.733433509789464,-11.733433509789462,images/picture_3.png,2,"[-11.733433509789462, 11.733433509789464]",-11.733433509789462,11.733433509789464,0,1,1,0.8863031540050528,1.8863031540050528,1.1136968459949472,3,1,1.6363031540050528,0,7,0,7,0,0,1,1,1,,,,,,,,,,,,,,,,,,,,,200001,001,2023-03-10_11h52.53.490,DMS_BEST_eyetracking_DAN_base_12-36_looped_10minWORKING,2022.2.4,None,
64,UNPRED,12,0.8863031540050528,1,images/picture_2.png,images/picture_1.png,0,"[11.733433509789462, -11.733433509789466]",11.733433509789462,-11.733433509789464,images/picture_2.png,1,"[-11.733433509789466, -11.733433509789462]",-11.733433509789464,-11.733433509789462,images/picture_3.png,2,"[-11.733433509789462, 11.733433509789464]",-11.733433509789462,11.733433509789464,0,1,1,0.8863031540050528,1.8863031540050528,1.1136968459949472,3,1,1.6363031540050528,0,7,0,7,0,0,1,1,1,,,,,,,0.005071583000244573,433.2814340840014,433.2814340840014,434.2955650840013,434.92886433400054,435.1476473340008,435.1476473340008,435.1476473340008,436.2622067090015,436.2622067090015,436.2622067090015,436.2622067090015,4.029721582999628,437.26215908400263,200001,001,2023-03-10_11h52.53.490,DMS_BEST_eyetracking_DAN_base_12-36_looped_10minWORKING,2022.2.4,None,
71,UNPRED,12,0.7688190996988566,0,images/picture_1.png,images/picture_1.png,0,"[-11.733433509789466, -11.733433509789462]",-11.733433509789464,-11.733433509789462,images/picture_2.png,1,"[-11.733433509789462, 11.733433509789464]",-11.733433509789462,11.733433509789464,images/picture_3.png,2,"[11.733433509789464, 11.733433509789462]",11.733433509789464,11.733433509789462,0,1,1,0.7688190996988566,1.7688190996988566,1.2311809003011434,3,1,1.5188190996988566,0,7,0,7,0,0,2,2,8,,,,,,,,,,,,,,,,,,,,,200001,001,2023-03-10_11h52.53.490,DMS_BEST_eyetracking_DAN_base_12-36_looped_10minWORKING,2022.2.4,None,
71,UNPRED,12,0.7688190996988566,0,images/picture_1.png,images/picture_1.png,0,"[-11.733433509789466, -11.733433509789462]",-11.733433509789464,-11.733433509789462,images/picture_2.png,1,"[-11.733433509789462, 11.733433509789464]",-11.733433509789462,11.733433509789464,images/picture_3.png,2,"[11.733433509789464, 11.733433509789462]",11.733433509789464,11.733433509789462,0,1,1,0.7688190996988566,1.7688190996988566,1.2311809003011434,3,1,1.5188190996988566,0,7,0,7,0,0,2,2,8,,,,,,,0.004447749997780193,437.3149318750002,437.3149318750002,438.3289825840002,438.84799908400237,439.0619337499993,439.0619337499993,439.0619337499993,440.2951548750025,440.2951548750025,440.2951548750025,440.2951548750025,4.029666541999177,441.29559220900046,200001,001,2023-03-10_11h52.53.490,DMS_BEST_eyetracking_DAN_base_12-36_looped_10minWORKING,2022.2.4,None,
65,UNPRED,12,0.5193886820390219,2,images/picture_3.png,images/picture_1.png,0,"[11.733433509789462, -11.733433509789466]",11.733433509789462,-11.733433509789464,images/picture_2.png,1,"[-11.733433509789466, -11.733433509789462]",-11.733433509789464,-11.733433509789462,images/picture_3.png,2,"[11.733433509789464, 11.733433509789462]",11.733433509789464,11.733433509789462,0,1,1,0.5193886820390219,1.519388682039022,1.480611317960978,3,1,1.269388682039022,0,7,0,7,0,0,3,3,2,,,,,,,,,,,,,,,,,,,,,200001,001,2023-03-10_11h52.53.490,DMS_BEST_eyetracking_DAN_base_12-36_looped_10minWORKING,2022.2.4,None,
65,UNPRED,12,0.5193886820390219,2,images/picture_3.png,images/picture_1.png,0,"[11.733433509789462, -11.733433509789466]",11.733433509789462,-11.733433509789464,images/picture_2.png,1,"[-11.733433509789466, -11.733433509789462]",-11.733433509789464,-11.733433509789462,images/picture_3.png,2,"[11.733433509789464, 11.733433509789462]",11.733433509789464,11.733433509789462,0,1,1,0.5193886820390219,1.519388682039022,1.480611317960978,3,1,1.269388682039022,0,7,0,7,0,0,3,3,2,,,,,,,0.004372125000372762,441.34806495900193,441.34806495900193,442.36229095900126,442.6288522089999,442.84889379200104,442.84889379200104,442.84889379200104,444.32882695900116,444.32882695900116,444.32882695900116,444.32882695900116,4.029940249998617,445.32890254200174,200001,001,2023-03-10_11h52.53.490,DMS_BEST_eyetracking_DAN_base_12-36_looped_10minWORKING,2022.2.4,None,
