trial_count,blockType,blockNum,delay_time,stimImage_i,stimImage,responseImage1,responseImage1_i,responseImage1_pos,responseImage1_X,responseImage1_Y,responseImage2,responseImage2_i,responseImage2_pos,responseImage2_X,responseImage2_Y,responseImage3,responseImage3_i,responseImage3_pos,responseImage3_X,responseImage3_Y,cue_onset,cue_dur,delay_onset,delay_dur,resp_onset,resp_dur,rest_onset,rest_dur,circle_dur,circle_onset,total_dur,cross_onset,cross_dur,delay_resp_period,blocks.thisRepN,blocks.thisTrialN,blocks.thisN,blocks.thisIndex,trials.thisRepN,trials.thisTrialN,trials.thisN,trials.thisIndex,key_resp.started,text.started,key_resp.keys,key_resp.rt,text_2.started,text_2.stopped,sample.started,Delay.started,sample.stopped,Delay.stopped,Response_1.started,Response_2.started,Response_3.started,Response_1.stopped,Response_2.stopped,Response_3.stopped,polygon.started,polygon.stopped,participant,session,date,expName,psychopyVersion,frameRate,
,,,,,,,,,,,,,,,,,,,,,,,,,,,,,,,,,,,,,,,,,,,48.78420866699889,48.78420866699889,t,72.44421566699748,,,,,,,,,,,,,,,200003,302,2023-04-07_12h53.09.225,DMS_et_12-36,2022.2.4,None,
8,PRED,12,0.5383025052125467,0,images/picture_1.png,images/picture_1.png,0,"[11.733433509789462, -11.733433509789466]",11.733433509789462,-11.733433509789464,images/picture_2.png,1,"[-11.733433509789466, -11.733433509789462]",-11.733433509789464,-11.733433509789462,images/picture_3.png,2,"[-11.733433509789462, 11.733433509789464]",-11.733433509789462,11.733433509789464,0,1,1,0.5383025052125467,1.5383025052125467,1.4616974947874533,3.0,1,1.2883025052125467,0,4.0,3.0,1,2,0,0,0,0,0,0,0,8,,,,,121.74674816698825,133.77459212500253,133.77459212500253,133.77459212500253,134.77227479199064,135.07241858298949,135.30566287499096,135.30566287499096,135.30566287499096,136.77228458299942,136.77228458299942,136.77228458299942,136.77228458299942,137.7717503749882,200003,302,2023-04-07_12h53.09.225,DMS_et_12-36,2022.2.4,None,
1,PRED,12,0.5383025052125467,0,images/picture_1.png,images/picture_1.png,0,"[-11.733433509789462, 11.733433509789464]",-11.733433509789462,11.733433509789464,images/picture_2.png,1,"[-11.733433509789466, -11.733433509789462]",-11.733433509789464,-11.733433509789462,images/picture_3.png,2,"[11.733433509789464, 11.733433509789462]",11.733433509789464,11.733433509789462,0,1,1,0.5383025052125467,1.5383025052125467,1.4616974947874533,3.0,1,1.2883025052125467,0,4.0,3.0,1,2,0,0,0,0,0,1,1,1,,,,,,,137.7717503749882,137.7717503749882,138.77245495800162,139.0725865419954,139.30550974998914,139.30550974998914,139.30550974998914,140.77176516699546,140.77176516699546,140.77176516699546,140.77176516699546,141.7717875829985,200003,302,2023-04-07_12h53.09.225,DMS_et_12-36,2022.2.4,None,
7,PRED,12,0.5383025052125467,0,images/picture_1.png,images/picture_1.png,0,"[11.733433509789464, 11.733433509789462]",11.733433509789464,11.733433509789462,images/picture_2.png,1,"[-11.733433509789462, 11.733433509789464]",-11.733433509789462,11.733433509789464,images/picture_3.png,2,"[11.733433509789462, -11.733433509789466]",11.733433509789462,-11.733433509789464,0,1,1,0.5383025052125467,1.5383025052125467,1.4616974947874533,3.0,1,1.2883025052125467,0,4.0,3.0,1,2,0,0,0,0,0,2,2,7,,,,,,,141.7717875829985,141.7717875829985,142.77225845798966,143.072267208001,143.30547062499681,143.30547062499681,143.30547062499681,144.7722543330019,144.7722543330019,144.7722543330019,144.7722543330019,145.77176929199777,200003,302,2023-04-07_12h53.09.225,DMS_et_12-36,2022.2.4,None,
3,PRED,12,0.5383025052125467,0,images/picture_1.png,images/picture_1.png,0,"[11.733433509789464, 11.733433509789462]",11.733433509789464,11.733433509789462,images/picture_2.png,1,"[-11.733433509789462, 11.733433509789464]",-11.733433509789462,11.733433509789464,images/picture_3.png,2,"[-11.733433509789466, -11.733433509789462]",-11.733433509789464,-11.733433509789462,0,1,1,0.5383025052125467,1.5383025052125467,1.4616974947874533,3.0,1,1.2883025052125467,0,4.0,3.0,1,2,0,0,0,0,0,3,3,3,,,,,,,145.77176929199777,145.77176929199777,146.77223991700157,147.07243766699685,147.3054759999941,147.3054759999941,147.3054759999941,148.77228262499557,148.77228262499557,148.77228262499557,148.77228262499557,149.7716612919903,200003,302,2023-04-07_12h53.09.225,DMS_et_12-36,2022.2.4,None,
0,PRED,12,0.5383025052125467,0,images/picture_1.png,images/picture_1.png,0,"[11.733433509789464, 11.733433509789462]",11.733433509789464,11.733433509789462,images/picture_2.png,1,"[-11.733433509789462, 11.733433509789464]",-11.733433509789462,11.733433509789464,images/picture_3.png,2,"[11.733433509789462, -11.733433509789466]",11.733433509789462,-11.733433509789464,0,1,1,0.5383025052125467,1.5383025052125467,1.4616974947874533,3.0,1,1.2883025052125467,0,4.0,3.0,1,2,0,0,0,0,0,4,4,0,,,,,,,149.7716612919903,149.7716612919903,150.77199958299752,151.07201849999547,151.3054124170012,151.3054124170012,151.3054124170012,152.77221341698896,152.77221341698896,152.77221341698896,152.77221341698896,153.7717502079904,200003,302,2023-04-07_12h53.09.225,DMS_et_12-36,2022.2.4,None,
6,PRED,12,0.5383025052125467,0,images/picture_1.png,images/picture_1.png,0,"[-11.733433509789462, 11.733433509789464]",-11.733433509789462,11.733433509789464,images/picture_2.png,1,"[-11.733433509789466, -11.733433509789462]",-11.733433509789464,-11.733433509789462,images/picture_3.png,2,"[11.733433509789464, 11.733433509789462]",11.733433509789464,11.733433509789462,0,1,1,0.5383025052125467,1.5383025052125467,1.4616974947874533,3.0,1,1.2883025052125467,0,4.0,3.0,1,2,0,0,0,0,0,5,5,6,,,,,,,153.7717502079904,153.7717502079904,154.77229579199047,155.07235695800046,155.30566354199254,155.30566354199254,155.30566354199254,156.772161957997,156.772161957997,156.772161957997,156.772161957997,157.77172766700096,200003,302,2023-04-07_12h53.09.225,DMS_et_12-36,2022.2.4,None,
5,PRED,12,0.5383025052125467,0,images/picture_1.png,images/picture_1.png,0,"[11.733433509789464, 11.733433509789462]",11.733433509789464,11.733433509789462,images/picture_2.png,1,"[-11.733433509789466, -11.733433509789462]",-11.733433509789464,-11.733433509789462,images/picture_3.png,2,"[-11.733433509789462, 11.733433509789464]",-11.733433509789462,11.733433509789464,0,1,1,0.5383025052125467,1.5383025052125467,1.4616974947874533,3.0,1,1.2883025052125467,0,4.0,3.0,1,2,0,0,0,0,0,6,6,5,,,,,,,157.77172766700096,157.77172766700096,158.77227533300174,159.07250449999992,159.30546879199392,159.30546879199392,159.30546879199392,160.77227624999068,160.77227624999068,160.77227624999068,160.77227624999068,161.77195229199424,200003,302,2023-04-07_12h53.09.225,DMS_et_12-36,2022.2.4,None,
2,PRED,12,0.5383025052125467,0,images/picture_1.png,images/picture_1.png,0,"[-11.733433509789466, -11.733433509789462]",-11.733433509789464,-11.733433509789462,images/picture_2.png,1,"[-11.733433509789462, 11.733433509789464]",-11.733433509789462,11.733433509789464,images/picture_3.png,2,"[11.733433509789464, 11.733433509789462]",11.733433509789464,11.733433509789462,0,1,1,0.5383025052125467,1.5383025052125467,1.4616974947874533,3.0,1,1.2883025052125467,0,4.0,3.0,1,2,0,0,0,0,0,7,7,2,,,,,,,161.77195229199424,161.77195229199424,162.77245229198888,163.07241679199797,163.30575545800093,163.30575545800093,163.30575545800093,164.7725147500023,164.7725147500023,164.7725147500023,164.7725147500023,165.77175312499458,200003,302,2023-04-07_12h53.09.225,DMS_et_12-36,2022.2.4,None,
4,PRED,12,0.5383025052125467,0,images/picture_1.png,images/picture_1.png,0,"[-11.733433509789462, 11.733433509789464]",-11.733433509789462,11.733433509789464,images/picture_2.png,1,"[11.733433509789464, 11.733433509789462]",11.733433509789464,11.733433509789462,images/picture_3.png,2,"[11.733433509789462, -11.733433509789466]",11.733433509789462,-11.733433509789464,0,1,1,0.5383025052125467,1.5383025052125467,1.4616974947874533,3.0,1,1.2883025052125467,0,4.0,3.0,1,2,0,0,0,0,0,8,8,4,,,,,,,165.77175312499458,165.77175312499458,166.77222120799706,167.07246749999467,167.3054473749944,167.3054473749944,167.3054473749944,168.77245045799646,168.77245045799646,168.77245045799646,168.77245045799646,169.7918801670021,200003,302,2023-04-07_12h53.09.225,DMS_et_12-36,2022.2.4,None,
,,,,,,,,,,,,,,,,,,,,,,,,,,,,,,,,,,,0,0,0,0,,,,,,,,,169.7918801670021,181.82402945798822,,,,,,,,,,,,,200003,302,2023-04-07_12h53.09.225,DMS_et_12-36,2022.2.4,None,
16,UNPRED,12,0.5383025052125467,2,images/picture_3.png,images/picture_1.png,0,"[11.733433509789464, 11.733433509789462]",11.733433509789464,11.733433509789462,images/picture_2.png,1,"[11.733433509789462, -11.733433509789466]",11.733433509789462,-11.733433509789464,images/picture_3.png,2,"[-11.733433509789466, -11.733433509789462]",-11.733433509789464,-11.733433509789462,0,1,1,0.5383025052125467,1.5383025052125467,1.4616974947874533,3.0,1,1.2883025052125467,0,4.0,3.0,1,2,1,0,1,0,0,0,0,7,,,,,,,181.82402945798822,181.82402945798822,182.83899291699345,183.12485300000117,183.3390525829891,183.3390525829891,183.3390525829891,184.80583499999193,184.80583499999193,184.80583499999193,184.80583499999193,185.82457616699685,200003,302,2023-04-07_12h53.09.225,DMS_et_12-36,2022.2.4,None,
12,UNPRED,12,0.5383025052125467,2,images/picture_3.png,images/picture_1.png,0,"[11.733433509789464, 11.733433509789462]",11.733433509789464,11.733433509789462,images/picture_2.png,1,"[-11.733433509789462, 11.733433509789464]",-11.733433509789462,11.733433509789464,images/picture_3.png,2,"[-11.733433509789466, -11.733433509789462]",-11.733433509789464,-11.733433509789462,0,1,1,0.5383025052125467,1.5383025052125467,1.4616974947874533,3.0,1,1.2883025052125467,0,4.0,3.0,1,2,1,0,1,0,0,1,1,3,,,,,,,185.82457616699685,185.82457616699685,186.8390134999936,187.12504108299618,187.3390091249894,187.3390091249894,187.3390091249894,188.805714874994,188.805714874994,188.805714874994,188.805714874994,189.8053336669982,200003,302,2023-04-07_12h53.09.225,DMS_et_12-36,2022.2.4,None,
9,UNPRED,12,0.5383025052125467,0,images/picture_1.png,images/picture_1.png,0,"[-11.733433509789462, 11.733433509789464]",-11.733433509789462,11.733433509789464,images/picture_2.png,1,"[11.733433509789464, 11.733433509789462]",11.733433509789464,11.733433509789462,images/picture_3.png,2,"[-11.733433509789466, -11.733433509789462]",-11.733433509789464,-11.733433509789462,0,1,1,0.5383025052125467,1.5383025052125467,1.4616974947874533,3.0,1,1.2883025052125467,0,4.0,3.0,1,2,1,0,1,0,0,2,2,0,,,,,,,189.8053336669982,189.8053336669982,190.80571783299092,191.1058031249995,191.33871029199508,191.33871029199508,191.33871029199508,192.80550679199223,192.80550679199223,192.80550679199223,192.80550679199223,193.80508637499588,200003,302,2023-04-07_12h53.09.225,DMS_et_12-36,2022.2.4,None,
14,UNPRED,12,0.5383025052125467,0,images/picture_1.png,images/picture_1.png,0,"[11.733433509789462, -11.733433509789466]",11.733433509789462,-11.733433509789464,images/picture_2.png,1,"[-11.733433509789462, 11.733433509789464]",-11.733433509789462,11.733433509789464,images/picture_3.png,2,"[11.733433509789464, 11.733433509789462]",11.733433509789464,11.733433509789462,0,1,1,0.5383025052125467,1.5383025052125467,1.4616974947874533,3.0,1,1.2883025052125467,0,4.0,3.0,1,2,1,0,1,0,0,3,3,5,,,,,,,193.80508637499588,193.80508637499588,194.8057649169932,195.1057687499997,195.3390201250004,195.3390201250004,195.3390201250004,196.80581808299758,196.80581808299758,196.80581808299758,196.80581808299758,197.82430395799747,200003,302,2023-04-07_12h53.09.225,DMS_et_12-36,2022.2.4,None,
11,UNPRED,12,0.5383025052125467,2,images/picture_3.png,images/picture_1.png,0,"[11.733433509789462, -11.733433509789466]",11.733433509789462,-11.733433509789464,images/picture_2.png,1,"[11.733433509789464, 11.733433509789462]",11.733433509789464,11.733433509789462,images/picture_3.png,2,"[-11.733433509789462, 11.733433509789464]",-11.733433509789462,11.733433509789464,0,1,1,0.5383025052125467,1.5383025052125467,1.4616974947874533,3.0,1,1.2883025052125467,0,4.0,3.0,1,2,1,0,1,0,0,4,4,2,,,,,,,197.82430395799747,197.82430395799747,198.83917779198964,199.12512270799198,199.33900766698935,199.33900766698935,199.33900766698935,200.80577774999256,200.80577774999256,200.80577774999256,200.80577774999256,201.8053022499953,200003,302,2023-04-07_12h53.09.225,DMS_et_12-36,2022.2.4,None,
17,UNPRED,12,0.5383025052125467,0,images/picture_1.png,images/picture_1.png,0,"[11.733433509789464, 11.733433509789462]",11.733433509789464,11.733433509789462,images/picture_2.png,1,"[-11.733433509789466, -11.733433509789462]",-11.733433509789464,-11.733433509789462,images/picture_3.png,2,"[11.733433509789462, -11.733433509789466]",11.733433509789462,-11.733433509789464,0,1,1,0.5383025052125467,1.5383025052125467,1.4616974947874533,3.0,1,1.2883025052125467,0,4.0,3.0,1,2,1,0,1,0,0,5,5,8,,,,,,,201.8053022499953,201.8053022499953,202.80572562498855,203.1056802499952,203.33900295798958,203.33900295798958,203.33900295798958,204.80572870800097,204.80572870800097,204.80572870800097,204.80572870800097,205.8245307920006,200003,302,2023-04-07_12h53.09.225,DMS_et_12-36,2022.2.4,None,
10,UNPRED,12,0.5383025052125467,2,images/picture_3.png,images/picture_1.png,0,"[11.733433509789462, -11.733433509789466]",11.733433509789462,-11.733433509789464,images/picture_2.png,1,"[-11.733433509789462, 11.733433509789464]",-11.733433509789462,11.733433509789464,images/picture_3.png,2,"[11.733433509789464, 11.733433509789462]",11.733433509789464,11.733433509789462,0,1,1,0.5383025052125467,1.5383025052125467,1.4616974947874533,3.0,1,1.2883025052125467,0,4.0,3.0,1,2,1,0,1,0,0,6,6,1,,,,,,,205.8245307920006,205.8245307920006,206.83899583299353,207.1249470420007,207.3389980829961,207.3389980829961,207.3389980829961,208.80579929199303,208.80579929199303,208.80579929199303,208.80579929199303,209.82462641700113,200003,302,2023-04-07_12h53.09.225,DMS_et_12-36,2022.2.4,None,
13,UNPRED,12,0.5383025052125467,2,images/picture_3.png,images/picture_1.png,0,"[11.733433509789462, -11.733433509789466]",11.733433509789462,-11.733433509789464,images/picture_2.png,1,"[-11.733433509789466, -11.733433509789462]",-11.733433509789464,-11.733433509789462,images/picture_3.png,2,"[-11.733433509789462, 11.733433509789464]",-11.733433509789462,11.733433509789464,0,1,1,0.5383025052125467,1.5383025052125467,1.4616974947874533,3.0,1,1.2883025052125467,0,4.0,3.0,1,2,1,0,1,0,0,7,7,4,,,,,,,209.82462641700113,209.82462641700113,210.83918299998913,211.12504604199785,211.33876916699228,211.33876916699228,211.33876916699228,212.80556258300203,212.80556258300203,212.80556258300203,212.80556258300203,213.8057132499962,200003,302,2023-04-07_12h53.09.225,DMS_et_12-36,2022.2.4,None,
15,UNPRED,12,0.5383025052125467,0,images/picture_1.png,images/picture_1.png,0,"[-11.733433509789466, -11.733433509789462]",-11.733433509789464,-11.733433509789462,images/picture_2.png,1,"[11.733433509789464, 11.733433509789462]",11.733433509789464,11.733433509789462,images/picture_3.png,2,"[-11.733433509789462, 11.733433509789464]",-11.733433509789462,11.733433509789464,0,1,1,0.5383025052125467,1.5383025052125467,1.4616974947874533,3.0,1,1.2883025052125467,0,4.0,3.0,1,2,1,0,1,0,0,8,8,6,,,,,,,213.8057132499962,213.8057132499962,214.8058749579941,215.10570437498973,215.33925904199714,215.33925904199714,215.33925904199714,216.80569924999145,216.80569924999145,216.80569924999145,216.80569924999145,217.84128324998892,200003,302,2023-04-07_12h53.09.225,DMS_et_12-36,2022.2.4,None,
,,,,,,,,,,,,,,,,,,,,,,,,,,,,,,,,,,,1,0,1,0,,,,,,,,,217.84128324998892,229.86732458299957,,,,,,,,,,,,,200003,302,2023-04-07_12h53.09.225,DMS_et_12-36,2022.2.4,None,
19,PRED,12,0.5383025052125467,2,images/picture_3.png,images/picture_1.png,0,"[-11.733433509789462, 11.733433509789464]",-11.733433509789462,11.733433509789464,images/picture_2.png,1,"[-11.733433509789466, -11.733433509789462]",-11.733433509789464,-11.733433509789462,images/picture_3.png,2,"[11.733433509789462, -11.733433509789466]",11.733433509789462,-11.733433509789464,0,1,1,0.5383025052125467,1.5383025052125467,1.4616974947874533,3.0,1,1.2883025052125467,0,4.0,3.0,1,2,2,0,2,0,0,0,0,1,,,,,,,229.86732458299957,229.86732458299957,230.87254841699905,231.15865120799572,231.3917162079888,231.3917162079888,231.3917162079888,232.85767583300185,232.85767583300185,232.85767583300185,232.85767583300185,233.8923540419928,200003,302,2023-04-07_12h53.09.225,DMS_et_12-36,2022.2.4,None,
26,PRED,12,0.5383025052125467,2,images/picture_3.png,images/picture_1.png,0,"[11.733433509789462, -11.733433509789466]",11.733433509789462,-11.733433509789464,images/picture_2.png,1,"[-11.733433509789466, -11.733433509789462]",-11.733433509789464,-11.733433509789462,images/picture_3.png,2,"[11.733433509789464, 11.733433509789462]",11.733433509789464,11.733433509789462,0,1,1,0.5383025052125467,1.5383025052125467,1.4616974947874533,3.0,1,1.2883025052125467,0,4.0,3.0,1,2,2,0,2,0,0,1,1,8,,,,,,,233.8923540419928,233.8923540419928,234.90572358299687,235.19191695799236,235.40576741698897,235.40576741698897,235.40576741698897,236.87248924998858,236.87248924998858,236.87248924998858,236.87248924998858,237.89179708299343,200003,302,2023-04-07_12h53.09.225,DMS_et_12-36,2022.2.4,None,
23,PRED,12,0.5383025052125467,2,images/picture_3.png,images/picture_1.png,0,"[-11.733433509789466, -11.733433509789462]",-11.733433509789464,-11.733433509789462,images/picture_2.png,1,"[11.733433509789462, -11.733433509789466]",11.733433509789462,-11.733433509789464,images/picture_3.png,2,"[-11.733433509789462, 11.733433509789464]",-11.733433509789462,11.733433509789464,0,1,1,0.5383025052125467,1.5383025052125467,1.4616974947874533,3.0,1,1.2883025052125467,0,4.0,3.0,1,2,2,0,2,0,0,2,2,5,,,,,,,237.89179708299343,237.89179708299343,238.90574295799888,239.1917878749955,239.40576533299463,239.40576533299463,239.40576533299463,240.8724331669946,240.8724331669946,240.8724331669946,240.8724331669946,241.8910098329943,200003,302,2023-04-07_12h53.09.225,DMS_et_12-36,2022.2.4,None,
25,PRED,12,0.5383025052125467,2,images/picture_3.png,images/picture_1.png,0,"[11.733433509789462, -11.733433509789466]",11.733433509789462,-11.733433509789464,images/picture_2.png,1,"[-11.733433509789466, -11.733433509789462]",-11.733433509789464,-11.733433509789462,images/picture_3.png,2,"[-11.733433509789462, 11.733433509789464]",-11.733433509789462,11.733433509789464,0,1,1,0.5383025052125467,1.5383025052125467,1.4616974947874533,3.0,1,1.2883025052125467,0,4.0,3.0,1,2,2,0,2,0,0,3,3,7,,,,,,,241.8910098329943,241.8910098329943,242.90557012498903,243.1915340419946,243.4054511669965,243.4054511669965,243.4054511669965,244.8724706669891,244.8724706669891,244.8724706669891,244.8724706669891,245.8914096669905,200003,302,2023-04-07_12h53.09.225,DMS_et_12-36,2022.2.4,None,
24,PRED,12,0.5383025052125467,2,images/picture_3.png,images/picture_1.png,0,"[11.733433509789462, -11.733433509789466]",11.733433509789462,-11.733433509789464,images/picture_2.png,1,"[11.733433509789464, 11.733433509789462]",11.733433509789464,11.733433509789462,images/picture_3.png,2,"[-11.733433509789466, -11.733433509789462]",-11.733433509789464,-11.733433509789462,0,1,1,0.5383025052125467,1.5383025052125467,1.4616974947874533,3.0,1,1.2883025052125467,0,4.0,3.0,1,2,2,0,2,0,0,4,4,6,,,,,,,245.8914096669905,245.8914096669905,246.9057449999964,247.1917539579881,247.40579508298833,247.40579508298833,247.40579508298833,248.87248129199725,248.87248129199725,248.87248129199725,248.87248129199725,249.89163225000084,200003,302,2023-04-07_12h53.09.225,DMS_et_12-36,2022.2.4,None,
18,PRED,12,0.5383025052125467,2,images/picture_3.png,images/picture_1.png,0,"[-11.733433509789466, -11.733433509789462]",-11.733433509789464,-11.733433509789462,images/picture_2.png,1,"[11.733433509789464, 11.733433509789462]",11.733433509789464,11.733433509789462,images/picture_3.png,2,"[-11.733433509789462, 11.733433509789464]",-11.733433509789462,11.733433509789464,0,1,1,0.5383025052125467,1.5383025052125467,1.4616974947874533,3.0,1,1.2883025052125467,0,4.0,3.0,1,2,2,0,2,0,0,5,5,0,,,,,,,249.89163225000084,249.89163225000084,250.90573562499776,251.19176799998968,251.40571579198877,251.40571579198877,251.40571579198877,252.87223479199747,252.87223479199747,252.87223479199747,252.87223479199747,253.8910414580023,200003,302,2023-04-07_12h53.09.225,DMS_et_12-36,2022.2.4,None,
20,PRED,12,0.5383025052125467,2,images/picture_3.png,images/picture_1.png,0,"[11.733433509789462, -11.733433509789466]",11.733433509789462,-11.733433509789464,images/picture_2.png,1,"[-11.733433509789462, 11.733433509789464]",-11.733433509789462,11.733433509789464,images/picture_3.png,2,"[11.733433509789464, 11.733433509789462]",11.733433509789464,11.733433509789462,0,1,1,0.5383025052125467,1.5383025052125467,1.4616974947874533,3.0,1,1.2883025052125467,0,4.0,3.0,1,2,2,0,2,0,0,6,6,2,,,,,,,253.8910414580023,253.8910414580023,254.9057292919897,255.19189387500228,255.4056849579938,255.4056849579938,255.4056849579938,256.8724722920015,256.8724722920015,256.8724722920015,256.8724722920015,257.89100399999006,200003,302,2023-04-07_12h53.09.225,DMS_et_12-36,2022.2.4,None,
22,PRED,12,0.5383025052125467,2,images/picture_3.png,images/picture_1.png,0,"[-11.733433509789462, 11.733433509789464]",-11.733433509789462,11.733433509789464,images/picture_2.png,1,"[-11.733433509789466, -11.733433509789462]",-11.733433509789464,-11.733433509789462,images/picture_3.png,2,"[11.733433509789462, -11.733433509789466]",11.733433509789462,-11.733433509789464,0,1,1,0.5383025052125467,1.5383025052125467,1.4616974947874533,3.0,1,1.2883025052125467,0,4.0,3.0,1,2,2,0,2,0,0,7,7,4,,,,,,,257.89100399999006,257.89100399999006,258.90578108299815,259.1920660829928,259.4057511669962,259.4057511669962,259.4057511669962,260.8724204169994,260.8724204169994,260.8724204169994,260.8724204169994,261.8917026249983,200003,302,2023-04-07_12h53.09.225,DMS_et_12-36,2022.2.4,None,
21,PRED,12,0.5383025052125467,2,images/picture_3.png,images/picture_1.png,0,"[11.733433509789462, -11.733433509789466]",11.733433509789462,-11.733433509789464,images/picture_2.png,1,"[11.733433509789464, 11.733433509789462]",11.733433509789464,11.733433509789462,images/picture_3.png,2,"[-11.733433509789462, 11.733433509789464]",-11.733433509789462,11.733433509789464,0,1,1,0.5383025052125467,1.5383025052125467,1.4616974947874533,3.0,1,1.2883025052125467,0,4.0,3.0,1,2,2,0,2,0,0,8,8,3,,,,,,,261.8917026249983,261.8917026249983,262.90544945799047,263.1910262500023,263.40540783299366,263.40540783299366,263.40540783299366,264.87235254199186,264.87235254199186,264.87235254199186,264.87235254199186,265.9147088329919,200003,302,2023-04-07_12h53.09.225,DMS_et_12-36,2022.2.4,None,
,,,,,,,,,,,,,,,,,,,,,,,,,,,,,,,,,,,2,0,2,0,,,,,,,,,265.9147088329919,277.9415583749942,,,,,,,,,,,,,200003,302,2023-04-07_12h53.09.225,DMS_et_12-36,2022.2.4,None,
29,UNPRED,12,0.5383025052125467,1,images/picture_2.png,images/picture_1.png,0,"[11.733433509789462, -11.733433509789466]",11.733433509789462,-11.733433509789464,images/picture_2.png,1,"[-11.733433509789462, 11.733433509789464]",-11.733433509789462,11.733433509789464,images/picture_3.png,2,"[11.733433509789464, 11.733433509789462]",11.733433509789464,11.733433509789462,0,1,1,0.5383025052125467,1.5383025052125467,1.4616974947874533,3.0,1,1.2883025052125467,0,4.0,3.0,1,2,3,0,3,0,0,0,0,2,,,,,,,277.9415583749942,277.9415583749942,278.93922558300255,279.2390299169929,279.47255399999267,279.47255399999267,279.47255399999267,280.93918958299037,280.93918958299037,280.93918958299037,280.93918958299037,281.9578488749976,200003,302,2023-04-07_12h53.09.225,DMS_et_12-36,2022.2.4,None,
30,UNPRED,12,0.5383025052125467,2,images/picture_3.png,images/picture_1.png,0,"[-11.733433509789466, -11.733433509789462]",-11.733433509789464,-11.733433509789462,images/picture_2.png,1,"[11.733433509789464, 11.733433509789462]",11.733433509789464,11.733433509789462,images/picture_3.png,2,"[11.733433509789462, -11.733433509789466]",11.733433509789462,-11.733433509789464,0,1,1,0.5383025052125467,1.5383025052125467,1.4616974947874533,3.0,1,1.2883025052125467,0,4.0,3.0,1,2,3,0,3,0,0,1,1,3,,,,,,,281.9578488749976,281.9578488749976,282.97249629200087,283.2576554999978,283.4721772079938,283.4721772079938,283.4721772079938,284.93927858299867,284.93927858299867,284.93927858299867,284.93927858299867,285.93990149999445,200003,302,2023-04-07_12h53.09.225,DMS_et_12-36,2022.2.4,None,
28,UNPRED,12,0.5383025052125467,1,images/picture_2.png,images/picture_1.png,0,"[-11.733433509789462, 11.733433509789464]",-11.733433509789462,11.733433509789464,images/picture_2.png,1,"[11.733433509789462, -11.733433509789466]",11.733433509789462,-11.733433509789464,images/picture_3.png,2,"[-11.733433509789466, -11.733433509789462]",-11.733433509789464,-11.733433509789462,0,1,1,0.5383025052125467,1.5383025052125467,1.4616974947874533,3.0,1,1.2883025052125467,0,4.0,3.0,1,2,3,0,3,0,0,2,2,1,,,,,,,285.93990149999445,285.93990149999445,286.93921483299346,287.23917945798894,287.47247462499945,287.47247462499945,287.47247462499945,288.9392465830024,288.9392465830024,288.9392465830024,288.9392465830024,289.9389204170002,200003,302,2023-04-07_12h53.09.225,DMS_et_12-36,2022.2.4,None,
31,UNPRED,12,0.5383025052125467,1,images/picture_2.png,images/picture_1.png,0,"[11.733433509789462, -11.733433509789466]",11.733433509789462,-11.733433509789464,images/picture_2.png,1,"[11.733433509789464, 11.733433509789462]",11.733433509789464,11.733433509789462,images/picture_3.png,2,"[-11.733433509789462, 11.733433509789464]",-11.733433509789462,11.733433509789464,0,1,1,0.5383025052125467,1.5383025052125467,1.4616974947874533,3.0,1,1.2883025052125467,0,4.0,3.0,1,2,3,0,3,0,0,3,3,4,,,,,,,289.9389204170002,289.9389204170002,290.9390281669912,291.2392525829928,291.4728424579953,291.4728424579953,291.4728424579953,292.93922795799153,292.93922795799153,292.93922795799153,292.93922795799153,293.9387914580002,200003,302,2023-04-07_12h53.09.225,DMS_et_12-36,2022.2.4,None,
33,UNPRED,12,0.5383025052125467,0,images/picture_1.png,images/picture_1.png,0,"[-11.733433509789462, 11.733433509789464]",-11.733433509789462,11.733433509789464,images/picture_2.png,1,"[11.733433509789464, 11.733433509789462]",11.733433509789464,11.733433509789462,images/picture_3.png,2,"[-11.733433509789466, -11.733433509789462]",-11.733433509789464,-11.733433509789462,0,1,1,0.5383025052125467,1.5383025052125467,1.4616974947874533,3.0,1,1.2883025052125467,0,4.0,3.0,1,2,3,0,3,0,0,4,4,6,,,,,,,293.9387914580002,293.9387914580002,294.9392754579894,295.23898187499435,295.4725300419959,295.4725300419959,295.4725300419959,296.9389799999917,296.9389799999917,296.9389799999917,296.9389799999917,297.93879129199195,200003,302,2023-04-07_12h53.09.225,DMS_et_12-36,2022.2.4,None,
35,UNPRED,12,0.5383025052125467,0,images/picture_1.png,images/picture_1.png,0,"[11.733433509789462, -11.733433509789466]",11.733433509789462,-11.733433509789464,images/picture_2.png,1,"[11.733433509789464, 11.733433509789462]",11.733433509789464,11.733433509789462,images/picture_3.png,2,"[-11.733433509789462, 11.733433509789464]",-11.733433509789462,11.733433509789464,0,1,1,0.5383025052125467,1.5383025052125467,1.4616974947874533,3.0,1,1.2883025052125467,0,4.0,3.0,1,2,3,0,3,0,0,5,5,8,,,,,,,297.93879129199195,297.93879129199195,298.9392367919936,299.2392060830025,299.47245654198923,299.47245654198923,299.47245654198923,300.9392706669896,300.9392706669896,300.9392706669896,300.9392706669896,301.9385929169948,200003,302,2023-04-07_12h53.09.225,DMS_et_12-36,2022.2.4,None,
32,UNPRED,12,0.5383025052125467,0,images/picture_1.png,images/picture_1.png,0,"[11.733433509789462, -11.733433509789466]",11.733433509789462,-11.733433509789464,images/picture_2.png,1,"[11.733433509789464, 11.733433509789462]",11.733433509789464,11.733433509789462,images/picture_3.png,2,"[-11.733433509789466, -11.733433509789462]",-11.733433509789464,-11.733433509789462,0,1,1,0.5383025052125467,1.5383025052125467,1.4616974947874533,3.0,1,1.2883025052125467,0,4.0,3.0,1,2,3,0,3,0,0,6,6,5,,,,,,,301.9385929169948,301.9385929169948,302.93920100000105,303.23920075000206,303.4724824579898,303.4724824579898,303.4724824579898,304.9389550420019,304.9389550420019,304.9389550420019,304.9389550420019,305.93884804200206,200003,302,2023-04-07_12h53.09.225,DMS_et_12-36,2022.2.4,None,
27,UNPRED,12,0.5383025052125467,0,images/picture_1.png,images/picture_1.png,0,"[-11.733433509789462, 11.733433509789464]",-11.733433509789462,11.733433509789464,images/picture_2.png,1,"[11.733433509789462, -11.733433509789466]",11.733433509789462,-11.733433509789464,images/picture_3.png,2,"[-11.733433509789466, -11.733433509789462]",-11.733433509789464,-11.733433509789462,0,1,1,0.5383025052125467,1.5383025052125467,1.4616974947874533,3.0,1,1.2883025052125467,0,4.0,3.0,1,2,3,0,3,0,0,7,7,0,,,,,,,305.93884804200206,305.93884804200206,306.9392174579989,307.23901833299897,307.4725199169916,307.4725199169916,307.4725199169916,308.9391875000001,308.9391875000001,308.9391875000001,308.9391875000001,309.9388590000017,200003,302,2023-04-07_12h53.09.225,DMS_et_12-36,2022.2.4,None,
34,UNPRED,12,0.5383025052125467,1,images/picture_2.png,images/picture_1.png,0,"[-11.733433509789462, 11.733433509789464]",-11.733433509789462,11.733433509789464,images/picture_2.png,1,"[-11.733433509789466, -11.733433509789462]",-11.733433509789464,-11.733433509789462,images/picture_3.png,2,"[11.733433509789464, 11.733433509789462]",11.733433509789464,11.733433509789462,0,1,1,0.5383025052125467,1.5383025052125467,1.4616974947874533,3.0,1,1.2883025052125467,0,4.0,3.0,1,2,3,0,3,0,0,8,8,7,,,,,,,309.9388590000017,309.9388590000017,310.93919429199013,311.2392041669955,311.4725301669969,311.4725301669969,311.4725301669969,312.93920458298817,312.93920458298817,312.93920458298817,312.93920458298817,313.99197899999854,200003,302,2023-04-07_12h53.09.225,DMS_et_12-36,2022.2.4,None,
,,,,,,,,,,,,,,,,,,,,,,,,,,,,,,,,,,,3,0,3,0,,,,,,,,,313.99197899999854,326.0414195420017,,,,,,,,,,,,,200003,302,2023-04-07_12h53.09.225,DMS_et_12-36,2022.2.4,None,
37,PRED,12,0.5383025052125467,2,images/picture_3.png,images/picture_1.png,0,"[11.733433509789462, -11.733433509789466]",11.733433509789462,-11.733433509789464,images/picture_2.png,1,"[-11.733433509789466, -11.733433509789462]",-11.733433509789464,-11.733433509789462,images/picture_3.png,2,"[-11.733433509789462, 11.733433509789464]",-11.733433509789462,11.733433509789464,0,1,1,0.5383025052125467,1.5383025052125467,1.4616974947874533,3.0,1,1.2883025052125467,0,4.0,3.0,1,2,4,0,4,0,0,0,0,1,,,,,,,326.0414195420017,326.0414195420017,327.03920058299263,327.3390180419956,327.5724954999896,327.5724954999896,327.5724954999896,329.03926816699095,329.03926816699095,329.03926816699095,329.02540254199994,330.0580278749985,200003,302,2023-04-07_12h53.09.225,DMS_et_12-36,2022.2.4,None,
44,PRED,12,0.5383025052125467,2,images/picture_3.png,images/picture_1.png,0,"[-11.733433509789462, 11.733433509789464]",-11.733433509789462,11.733433509789464,images/picture_2.png,1,"[11.733433509789462, -11.733433509789466]",11.733433509789462,-11.733433509789464,images/picture_3.png,2,"[-11.733433509789466, -11.733433509789462]",-11.733433509789464,-11.733433509789462,0,1,1,0.5383025052125467,1.5383025052125467,1.4616974947874533,3.0,1,1.2883025052125467,0,4.0,3.0,1,2,4,0,4,0,0,1,1,8,,,,,,,330.0580278749985,330.0580278749985,331.0724819169991,331.35839454199595,331.5725007500005,331.5725007500005,331.5725007500005,333.03921704199456,333.03921704199456,333.03921704199456,333.03921704199456,334.0582909169898,200003,302,2023-04-07_12h53.09.225,DMS_et_12-36,2022.2.4,None,
38,PRED,12,0.5383025052125467,2,images/picture_3.png,images/picture_1.png,0,"[11.733433509789464, 11.733433509789462]",11.733433509789464,11.733433509789462,images/picture_2.png,1,"[11.733433509789462, -11.733433509789466]",11.733433509789462,-11.733433509789464,images/picture_3.png,2,"[-11.733433509789466, -11.733433509789462]",-11.733433509789464,-11.733433509789462,0,1,1,0.5383025052125467,1.5383025052125467,1.4616974947874533,3.0,1,1.2883025052125467,0,4.0,3.0,1,2,4,0,4,0,0,2,2,2,,,,,,,334.0582909169898,334.0582909169898,335.0722175419942,335.35798149999755,335.5722360829968,335.5722360829968,335.5722360829968,337.0392030419898,337.0392030419898,337.0392030419898,337.0392030419898,338.0579392919899,200003,302,2023-04-07_12h53.09.225,DMS_et_12-36,2022.2.4,None,
40,PRED,12,0.5383025052125467,2,images/picture_3.png,images/picture_1.png,0,"[-11.733433509789462, 11.733433509789464]",-11.733433509789462,11.733433509789464,images/picture_2.png,1,"[11.733433509789464, 11.733433509789462]",11.733433509789464,11.733433509789462,images/picture_3.png,2,"[-11.733433509789466, -11.733433509789462]",-11.733433509789464,-11.733433509789462,0,1,1,0.5383025052125467,1.5383025052125467,1.4616974947874533,3.0,1,1.2883025052125467,0,4.0,3.0,1,2,4,0,4,0,0,3,3,4,,,,,,,338.0579392919899,338.0579392919899,339.0724857079913,339.35906333300227,339.5725137499976,339.5725137499976,339.5725137499976,341.0393734579993,341.0393734579993,341.0393734579993,341.0393734579993,342.05763262500113,200003,302,2023-04-07_12h53.09.225,DMS_et_12-36,2022.2.4,None,
42,PRED,12,0.5383025052125467,2,images/picture_3.png,images/picture_1.png,0,"[11.733433509789464, 11.733433509789462]",11.733433509789464,11.733433509789462,images/picture_2.png,1,"[-11.733433509789462, 11.733433509789464]",-11.733433509789462,11.733433509789464,images/picture_3.png,2,"[-11.733433509789466, -11.733433509789462]",-11.733433509789464,-11.733433509789462,0,1,1,0.5383025052125467,1.5383025052125467,1.4616974947874533,3.0,1,1.2883025052125467,0,4.0,3.0,1,2,4,0,4,0,0,4,4,6,,,,,,,342.05763262500113,342.05763262500113,343.07268687499163,343.35837587498827,343.5724896249885,343.5724896249885,343.5724896249885,345.0392072079994,345.0392072079994,345.0392072079994,345.0392072079994,346.03993124999397,200003,302,2023-04-07_12h53.09.225,DMS_et_12-36,2022.2.4,None,
43,PRED,12,0.5383025052125467,2,images/picture_3.png,images/picture_1.png,0,"[11.733433509789464, 11.733433509789462]",11.733433509789464,11.733433509789462,images/picture_2.png,1,"[11.733433509789462, -11.733433509789466]",11.733433509789462,-11.733433509789464,images/picture_3.png,2,"[-11.733433509789466, -11.733433509789462]",-11.733433509789464,-11.733433509789462,0,1,1,0.5383025052125467,1.5383025052125467,1.4616974947874533,3.0,1,1.2883025052125467,0,4.0,3.0,1,2,4,0,4,0,0,5,5,7,,,,,,,346.03993124999397,346.03993124999397,347.0391965000017,347.339234250001,347.57248291699216,347.57248291699216,347.57248291699216,349.03929708299984,349.03929708299984,349.03929708299984,349.03929708299984,350.0586265419988,200003,302,2023-04-07_12h53.09.225,DMS_et_12-36,2022.2.4,None,
41,PRED,12,0.5383025052125467,2,images/picture_3.png,images/picture_1.png,0,"[11.733433509789464, 11.733433509789462]",11.733433509789464,11.733433509789462,images/picture_2.png,1,"[-11.733433509789466, -11.733433509789462]",-11.733433509789464,-11.733433509789462,images/picture_3.png,2,"[11.733433509789462, -11.733433509789466]",11.733433509789462,-11.733433509789464,0,1,1,0.5383025052125467,1.5383025052125467,1.4616974947874533,3.0,1,1.2883025052125467,0,4.0,3.0,1,2,4,0,4,0,0,6,6,5,,,,,,,350.0586265419988,350.0586265419988,351.07269149999775,351.35903354200127,351.57268033298897,351.57268033298897,351.57268033298897,353.0391857499926,353.0391857499926,353.0391857499926,353.0391857499926,354.0588027079939,200003,302,2023-04-07_12h53.09.225,DMS_et_12-36,2022.2.4,None,
39,PRED,12,0.5383025052125467,2,images/picture_3.png,images/picture_1.png,0,"[-11.733433509789462, 11.733433509789464]",-11.733433509789462,11.733433509789464,images/picture_2.png,1,"[11.733433509789464, 11.733433509789462]",11.733433509789464,11.733433509789462,images/picture_3.png,2,"[-11.733433509789466, -11.733433509789462]",-11.733433509789464,-11.733433509789462,0,1,1,0.5383025052125467,1.5383025052125467,1.4616974947874533,3.0,1,1.2883025052125467,0,4.0,3.0,1,2,4,0,4,0,0,7,7,3,,,,,,,354.0588027079939,354.0588027079939,355.072492583,355.35756774999027,355.5722798749921,355.5722798749921,355.5722798749921,357.0392590830015,357.0392590830015,357.0392590830015,357.0392590830015,358.0582224999962,200003,302,2023-04-07_12h53.09.225,DMS_et_12-36,2022.2.4,None,
36,PRED,12,0.5383025052125467,2,images/picture_3.png,images/picture_1.png,0,"[-11.733433509789462, 11.733433509789464]",-11.733433509789462,11.733433509789464,images/picture_2.png,1,"[11.733433509789462, -11.733433509789466]",11.733433509789462,-11.733433509789464,images/picture_3.png,2,"[-11.733433509789466, -11.733433509789462]",-11.733433509789464,-11.733433509789462,0,1,1,0.5383025052125467,1.5383025052125467,1.4616974947874533,3.0,1,1.2883025052125467,0,4.0,3.0,1,2,4,0,4,0,0,8,8,0,,,,,,,358.0582224999962,358.0582224999962,359.0726971249969,359.3584633749997,359.5725207919895,359.5725207919895,359.5725207919895,361.0392504999909,361.0392504999909,361.0392504999909,361.0392504999909,362.1053183329932,200003,302,2023-04-07_12h53.09.225,DMS_et_12-36,2022.2.4,None,
,,,,,,,,,,,,,,,,,,,,,,,,,,,,,,,,,,,4,0,4,0,,,,,,,,,362.1053183329932,374.1294862079958,,,,,,,,,,,,,200003,302,2023-04-07_12h53.09.225,DMS_et_12-36,2022.2.4,None,
46,UNPRED,12,0.5383025052125467,0,images/picture_1.png,images/picture_1.png,0,"[11.733433509789464, 11.733433509789462]",11.733433509789464,11.733433509789462,images/picture_2.png,1,"[11.733433509789462, -11.733433509789466]",11.733433509789462,-11.733433509789464,images/picture_3.png,2,"[-11.733433509789466, -11.733433509789462]",-11.733433509789464,-11.733433509789462,0,1,1,0.5383025052125467,1.5383025052125467,1.4616974947874533,3.0,1,1.2883025052125467,0,4.0,3.0,1,2,5,0,5,0,0,0,0,1,,,,,,,374.1294862079958,374.1294862079958,375.13922895799624,375.42543979200127,375.6725218749925,375.6725218749925,375.6725218749925,377.1390889999893,377.1390889999893,377.1390889999893,377.1244413329987,378.1587607919937,200003,302,2023-04-07_12h53.09.225,DMS_et_12-36,2022.2.4,None,
51,UNPRED,12,0.5383025052125467,1,images/picture_2.png,images/picture_1.png,0,"[-11.733433509789466, -11.733433509789462]",-11.733433509789464,-11.733433509789462,images/picture_2.png,1,"[11.733433509789464, 11.733433509789462]",11.733433509789464,11.733433509789462,images/picture_3.png,2,"[-11.733433509789462, 11.733433509789464]",-11.733433509789462,11.733433509789464,0,1,1,0.5383025052125467,1.5383025052125467,1.4616974947874533,3.0,1,1.2883025052125467,0,4.0,3.0,1,2,5,0,5,0,0,1,1,6,,,,,,,378.1587607919937,378.1587607919937,379.1724927079922,379.45937641699857,379.6724960829888,379.6724960829888,379.6724960829888,381.1392445829988,381.1392445829988,381.1392445829988,381.1392445829988,382.13904704200104,200003,302,2023-04-07_12h53.09.225,DMS_et_12-36,2022.2.4,None,
52,UNPRED,12,0.5383025052125467,1,images/picture_2.png,images/picture_1.png,0,"[11.733433509789464, 11.733433509789462]",11.733433509789464,11.733433509789462,images/picture_2.png,1,"[-11.733433509789462, 11.733433509789464]",-11.733433509789462,11.733433509789464,images/picture_3.png,2,"[-11.733433509789466, -11.733433509789462]",-11.733433509789464,-11.733433509789462,0,1,1,0.5383025052125467,1.5383025052125467,1.4616974947874533,3.0,1,1.2883025052125467,0,4.0,3.0,1,2,5,0,5,0,0,2,2,7,,,,,,,382.13904704200104,382.13904704200104,383.1391897079884,383.4392309169925,383.67286612499447,383.67286612499447,383.67286612499447,385.13923049998994,385.13923049998994,385.13923049998994,385.13923049998994,386.13886691699736,200003,302,2023-04-07_12h53.09.225,DMS_et_12-36,2022.2.4,None,
48,UNPRED,12,0.5383025052125467,0,images/picture_1.png,images/picture_1.png,0,"[-11.733433509789462, 11.733433509789464]",-11.733433509789462,11.733433509789464,images/picture_2.png,1,"[11.733433509789462, -11.733433509789466]",11.733433509789462,-11.733433509789464,images/picture_3.png,2,"[11.733433509789464, 11.733433509789462]",11.733433509789464,11.733433509789462,0,1,1,0.5383025052125467,1.5383025052125467,1.4616974947874533,3.0,1,1.2883025052125467,0,4.0,3.0,1,2,5,0,5,0,0,3,3,3,,,,,,,386.13886691699736,386.13886691699736,387.13918308299617,387.4392401249934,387.6725237079954,387.6725237079954,387.6725237079954,389.1392510829901,389.1392510829901,389.1392510829901,389.1392510829901,390.13893983299204,200003,302,2023-04-07_12h53.09.225,DMS_et_12-36,2022.2.4,None,
47,UNPRED,12,0.5383025052125467,1,images/picture_2.png,images/picture_1.png,0,"[-11.733433509789466, -11.733433509789462]",-11.733433509789464,-11.733433509789462,images/picture_2.png,1,"[11.733433509789464, 11.733433509789462]",11.733433509789464,11.733433509789462,images/picture_3.png,2,"[-11.733433509789462, 11.733433509789464]",-11.733433509789462,11.733433509789464,0,1,1,0.5383025052125467,1.5383025052125467,1.4616974947874533,3.0,1,1.2883025052125467,0,4.0,3.0,1,2,5,0,5,0,0,4,4,2,,,,,,,390.13893983299204,390.13893983299204,391.13929745799396,391.43924691699794,391.67269108298933,391.67269108298933,391.67269108298933,393.13943341698905,393.13943341698905,393.13943341698905,393.13943341698905,394.15805358299986,200003,302,2023-04-07_12h53.09.225,DMS_et_12-36,2022.2.4,None,
49,UNPRED,12,0.5383025052125467,2,images/picture_3.png,images/picture_1.png,0,"[11.733433509789464, 11.733433509789462]",11.733433509789464,11.733433509789462,images/picture_2.png,1,"[-11.733433509789466, -11.733433509789462]",-11.733433509789464,-11.733433509789462,images/picture_3.png,2,"[11.733433509789462, -11.733433509789466]",11.733433509789462,-11.733433509789464,0,1,1,0.5383025052125467,1.5383025052125467,1.4616974947874533,3.0,1,1.2883025052125467,0,4.0,3.0,1,2,5,0,5,0,0,5,5,4,,,,,,,394.15805358299986,394.15805358299986,395.17249170799914,395.4594177079998,395.67250012500153,395.67250012500153,395.67250012500153,397.13896512499196,397.13896512499196,397.13896512499196,397.13896512499196,398.1383375000005,200003,302,2023-04-07_12h53.09.225,DMS_et_12-36,2022.2.4,None,
45,UNPRED,12,0.5383025052125467,0,images/picture_1.png,images/picture_1.png,0,"[-11.733433509789466, -11.733433509789462]",-11.733433509789464,-11.733433509789462,images/picture_2.png,1,"[11.733433509789464, 11.733433509789462]",11.733433509789464,11.733433509789462,images/picture_3.png,2,"[11.733433509789462, -11.733433509789466]",11.733433509789462,-11.733433509789464,0,1,1,0.5383025052125467,1.5383025052125467,1.4616974947874533,3.0,1,1.2883025052125467,0,4.0,3.0,1,2,5,0,5,0,0,6,6,0,,,,,,,398.1383375000005,398.1383375000005,399.13945691699337,399.43928083300125,399.6725282080006,399.6725282080006,399.6725282080006,401.139270707994,401.139270707994,401.139270707994,401.139270707994,402.13901741699374,200003,302,2023-04-07_12h53.09.225,DMS_et_12-36,2022.2.4,None,
53,UNPRED,12,0.5383025052125467,1,images/picture_2.png,images/picture_1.png,0,"[11.733433509789464, 11.733433509789462]",11.733433509789464,11.733433509789462,images/picture_2.png,1,"[11.733433509789462, -11.733433509789466]",11.733433509789462,-11.733433509789464,images/picture_3.png,2,"[-11.733433509789466, -11.733433509789462]",-11.733433509789464,-11.733433509789462,0,1,1,0.5383025052125467,1.5383025052125467,1.4616974947874533,3.0,1,1.2883025052125467,0,4.0,3.0,1,2,5,0,5,0,0,7,7,8,,,,,,,402.13901741699374,402.13901741699374,403.1392249579949,403.43946908299404,403.67269345799286,403.67269345799286,403.67269345799286,405.13943462500174,405.13943462500174,405.13943462500174,405.13943462500174,406.1583145420009,200003,302,2023-04-07_12h53.09.225,DMS_et_12-36,2022.2.4,None,
50,UNPRED,12,0.5383025052125467,2,images/picture_3.png,images/picture_1.png,0,"[-11.733433509789466, -11.733433509789462]",-11.733433509789464,-11.733433509789462,images/picture_2.png,1,"[-11.733433509789462, 11.733433509789464]",-11.733433509789462,11.733433509789464,images/picture_3.png,2,"[11.733433509789462, -11.733433509789466]",11.733433509789462,-11.733433509789464,0,1,1,0.5383025052125467,1.5383025052125467,1.4616974947874533,3.0,1,1.2883025052125467,0,4.0,3.0,1,2,5,0,5,0,0,8,8,5,,,,,,,406.1583145420009,406.1583145420009,407.1723733749968,407.45808987499913,407.67249433299,407.67249433299,407.67249433299,409.1393000419921,409.1393000419921,409.1393000419921,409.1393000419921,410.20948808299727,200003,302,2023-04-07_12h53.09.225,DMS_et_12-36,2022.2.4,None,
,,,,,,,,,,,,,,,,,,,,,,,,,,,,,,,,,,,5,0,5,0,,,,,,,,,410.20948808299727,422.2357732919918,,,,,,,,,,,,,200003,302,2023-04-07_12h53.09.225,DMS_et_12-36,2022.2.4,None,
59,PRED,12,0.5383025052125467,2,images/picture_3.png,images/picture_1.png,0,"[11.733433509789462, -11.733433509789466]",11.733433509789462,-11.733433509789464,images/picture_2.png,1,"[-11.733433509789466, -11.733433509789462]",-11.733433509789464,-11.733433509789462,images/picture_3.png,2,"[-11.733433509789462, 11.733433509789464]",-11.733433509789462,11.733433509789464,0,1,1,0.5383025052125467,1.5383025052125467,1.4616974947874533,3.0,1,1.2883025052125467,0,4.0,3.0,1,2,6,0,6,0,0,0,0,5,,,,,,,422.2357732919918,422.2357732919918,423.2394875829923,423.53945808298886,423.75874187498994,423.75874187498994,423.75874187498994,425.2250001249922,425.2250001249922,425.2250001249922,425.2250001249922,426.2580014999985,200003,302,2023-04-07_12h53.09.225,DMS_et_12-36,2022.2.4,None,
54,PRED,12,0.5383025052125467,2,images/picture_3.png,images/picture_1.png,0,"[-11.733433509789466, -11.733433509789462]",-11.733433509789464,-11.733433509789462,images/picture_2.png,1,"[11.733433509789464, 11.733433509789462]",11.733433509789464,11.733433509789462,images/picture_3.png,2,"[11.733433509789462, -11.733433509789466]",11.733433509789462,-11.733433509789464,0,1,1,0.5383025052125467,1.5383025052125467,1.4616974947874533,3.0,1,1.2883025052125467,0,4.0,3.0,1,2,6,0,6,0,0,1,1,0,,,,,,,426.2580014999985,426.2580014999985,427.27228649999597,427.5579927919898,427.7723889579938,427.7723889579938,427.7723889579938,429.23939429200254,429.23939429200254,429.23939429200254,429.23939429200254,430.25761816700106,200003,302,2023-04-07_12h53.09.225,DMS_et_12-36,2022.2.4,None,
62,PRED,12,0.5383025052125467,2,images/picture_3.png,images/picture_1.png,0,"[-11.733433509789462, 11.733433509789464]",-11.733433509789462,11.733433509789464,images/picture_2.png,1,"[11.733433509789464, 11.733433509789462]",11.733433509789464,11.733433509789462,images/picture_3.png,2,"[11.733433509789462, -11.733433509789466]",11.733433509789462,-11.733433509789464,0,1,1,0.5383025052125467,1.5383025052125467,1.4616974947874533,3.0,1,1.2883025052125467,0,4.0,3.0,1,2,6,0,6,0,0,2,2,8,,,,,,,430.25761816700106,430.25761816700106,431.2724992919975,431.5586137079954,431.77270245799446,431.77270245799446,431.77270245799446,433.2392546249903,433.2392546249903,433.2392546249903,433.2392546249903,434.25870008299535,200003,302,2023-04-07_12h53.09.225,DMS_et_12-36,2022.2.4,None,
58,PRED,12,0.5383025052125467,2,images/picture_3.png,images/picture_1.png,0,"[11.733433509789464, 11.733433509789462]",11.733433509789464,11.733433509789462,images/picture_2.png,1,"[11.733433509789462, -11.733433509789466]",11.733433509789462,-11.733433509789464,images/picture_3.png,2,"[-11.733433509789466, -11.733433509789462]",-11.733433509789464,-11.733433509789462,0,1,1,0.5383025052125467,1.5383025052125467,1.4616974947874533,3.0,1,1.2883025052125467,0,4.0,3.0,1,2,6,0,6,0,0,3,3,4,,,,,,,434.25870008299535,434.25870008299535,435.2727054999996,435.55866883299313,435.772709375,435.772709375,435.772709375,437.23951320799824,437.23951320799824,437.23951320799824,437.23951320799824,438.23947499999485,200003,302,2023-04-07_12h53.09.225,DMS_et_12-36,2022.2.4,None,
55,PRED,12,0.5383025052125467,2,images/picture_3.png,images/picture_1.png,0,"[11.733433509789464, 11.733433509789462]",11.733433509789464,11.733433509789462,images/picture_2.png,1,"[11.733433509789462, -11.733433509789466]",11.733433509789462,-11.733433509789464,images/picture_3.png,2,"[-11.733433509789462, 11.733433509789464]",-11.733433509789462,11.733433509789464,0,1,1,0.5383025052125467,1.5383025052125467,1.4616974947874533,3.0,1,1.2883025052125467,0,4.0,3.0,1,2,6,0,6,0,0,4,4,1,,,,,,,438.23947499999485,438.23947499999485,439.23907970800065,439.53925116699247,439.7727121249918,439.7727121249918,439.7727121249918,441.2394459999923,441.2394459999923,441.2394459999923,441.2394459999923,442.25784749999,200003,302,2023-04-07_12h53.09.225,DMS_et_12-36,2022.2.4,None,
57,PRED,12,0.5383025052125467,2,images/picture_3.png,images/picture_1.png,0,"[11.733433509789462, -11.733433509789466]",11.733433509789462,-11.733433509789464,images/picture_2.png,1,"[-11.733433509789466, -11.733433509789462]",-11.733433509789464,-11.733433509789462,images/picture_3.png,2,"[11.733433509789464, 11.733433509789462]",11.733433509789464,11.733433509789462,0,1,1,0.5383025052125467,1.5383025052125467,1.4616974947874533,3.0,1,1.2883025052125467,0,4.0,3.0,1,2,6,0,6,0,0,5,5,3,,,,,,,442.25784749999,442.25784749999,443.272684999989,443.5588346669974,443.7726768749999,443.7726768749999,443.7726768749999,445.23903962499753,445.23903962499753,445.23903962499753,445.23903962499753,446.25792862499657,200003,302,2023-04-07_12h53.09.225,DMS_et_12-36,2022.2.4,None,
61,PRED,12,0.5383025052125467,2,images/picture_3.png,images/picture_1.png,0,"[-11.733433509789466, -11.733433509789462]",-11.733433509789464,-11.733433509789462,images/picture_2.png,1,"[11.733433509789462, -11.733433509789466]",11.733433509789462,-11.733433509789464,images/picture_3.png,2,"[-11.733433509789462, 11.733433509789464]",-11.733433509789462,11.733433509789464,0,1,1,0.5383025052125467,1.5383025052125467,1.4616974947874533,3.0,1,1.2883025052125467,0,4.0,3.0,1,2,6,0,6,0,0,6,6,7,,,,,,,446.25792862499657,446.25792862499657,447.2727406670019,447.5586407499941,447.7724541249918,447.7724541249918,447.7724541249918,449.23940904199844,449.23940904199844,449.23940904199844,449.23940904199844,450.25784549998934,200003,302,2023-04-07_12h53.09.225,DMS_et_12-36,2022.2.4,None,
56,PRED,12,0.5383025052125467,2,images/picture_3.png,images/picture_1.png,0,"[11.733433509789462, -11.733433509789466]",11.733433509789462,-11.733433509789464,images/picture_2.png,1,"[-11.733433509789466, -11.733433509789462]",-11.733433509789464,-11.733433509789462,images/picture_3.png,2,"[11.733433509789464, 11.733433509789462]",11.733433509789464,11.733433509789462,0,1,1,0.5383025052125467,1.5383025052125467,1.4616974947874533,3.0,1,1.2883025052125467,0,4.0,3.0,1,2,6,0,6,0,0,7,7,2,,,,,,,450.25784549998934,450.25784549998934,451.2727400829899,451.5585579999897,451.7727484579955,451.7727484579955,451.7727484579955,453.2394676249969,453.2394676249969,453.2394676249969,453.2394676249969,454.2579893749935,200003,302,2023-04-07_12h53.09.225,DMS_et_12-36,2022.2.4,None,
60,PRED,12,0.5383025052125467,2,images/picture_3.png,images/picture_1.png,0,"[-11.733433509789462, 11.733433509789464]",-11.733433509789462,11.733433509789464,images/picture_2.png,1,"[11.733433509789464, 11.733433509789462]",11.733433509789464,11.733433509789462,images/picture_3.png,2,"[-11.733433509789466, -11.733433509789462]",-11.733433509789464,-11.733433509789462,0,1,1,0.5383025052125467,1.5383025052125467,1.4616974947874533,3.0,1,1.2883025052125467,0,4.0,3.0,1,2,6,0,6,0,0,8,8,6,,,,,,,454.2579893749935,454.2579893749935,455.27283141699445,455.5588027079939,455.7727127919934,455.7727127919934,455.7727127919934,457.2391337079898,457.2391337079898,457.2391337079898,457.2391337079898,458.29829133299063,200003,302,2023-04-07_12h53.09.225,DMS_et_12-36,2022.2.4,None,
,,,,,,,,,,,,,,,,,,,,,,,,,,,,,,,,,,,6,0,6,0,,,,,,,,,458.29829133299063,470.3319108329888,,,,,,,,,,,,,200003,302,2023-04-07_12h53.09.225,DMS_et_12-36,2022.2.4,None,
70,UNPRED,12,0.5383025052125467,1,images/picture_2.png,images/picture_1.png,0,"[-11.733433509789462, 11.733433509789464]",-11.733433509789462,11.733433509789464,images/picture_2.png,1,"[11.733433509789462, -11.733433509789466]",11.733433509789462,-11.733433509789464,images/picture_3.png,2,"[11.733433509789464, 11.733433509789462]",11.733433509789464,11.733433509789462,0,1,1,0.5383025052125467,1.5383025052125467,1.4616974947874533,3.0,1,1.2883025052125467,0,4.0,3.0,1,2,7,0,7,0,0,0,0,7,,,,,,,470.3319108329888,470.3319108329888,471.33946445799666,471.62540658299986,471.87270716700004,471.87270716700004,471.87270716700004,473.33950154199556,473.33950154199556,473.33950154199556,473.3255119999958,474.33880825000233,200003,302,2023-04-07_12h53.09.225,DMS_et_12-36,2022.2.4,None,
67,UNPRED,12,0.5383025052125467,1,images/picture_2.png,images/picture_1.png,0,"[-11.733433509789466, -11.733433509789462]",-11.733433509789464,-11.733433509789462,images/picture_2.png,1,"[-11.733433509789462, 11.733433509789464]",-11.733433509789462,11.733433509789464,images/picture_3.png,2,"[11.733433509789464, 11.733433509789462]",11.733433509789464,11.733433509789462,0,1,1,0.5383025052125467,1.5383025052125467,1.4616974947874533,3.0,1,1.2883025052125467,0,4.0,3.0,1,2,7,0,7,0,0,1,1,4,,,,,,,474.33880825000233,474.33880825000233,475.33954229200026,475.63925424999616,475.8727884580003,475.8727884580003,475.8727884580003,477.33951516699744,477.33951516699744,477.33951516699744,477.33951516699744,478.3580157079996,200003,302,2023-04-07_12h53.09.225,DMS_et_12-36,2022.2.4,None,
66,UNPRED,12,0.5383025052125467,2,images/picture_3.png,images/picture_1.png,0,"[11.733433509789464, 11.733433509789462]",11.733433509789464,11.733433509789462,images/picture_2.png,1,"[11.733433509789462, -11.733433509789466]",11.733433509789462,-11.733433509789464,images/picture_3.png,2,"[-11.733433509789466, -11.733433509789462]",-11.733433509789464,-11.733433509789462,0,1,1,0.5383025052125467,1.5383025052125467,1.4616974947874533,3.0,1,1.2883025052125467,0,4.0,3.0,1,2,7,0,7,0,0,2,2,3,,,,,,,478.3580157079996,478.3580157079996,479.37239691699506,479.6580627499934,479.87267483299365,479.87267483299365,479.87267483299365,481.3395111669961,481.3395111669961,481.3395111669961,481.3395111669961,482.3587113329995,200003,302,2023-04-07_12h53.09.225,DMS_et_12-36,2022.2.4,None,
68,UNPRED,12,0.5383025052125467,2,images/picture_3.png,images/picture_1.png,0,"[-11.733433509789466, -11.733433509789462]",-11.733433509789464,-11.733433509789462,images/picture_2.png,1,"[11.733433509789464, 11.733433509789462]",11.733433509789464,11.733433509789462,images/picture_3.png,2,"[11.733433509789462, -11.733433509789466]",11.733433509789462,-11.733433509789464,0,1,1,0.5383025052125467,1.5383025052125467,1.4616974947874533,3.0,1,1.2883025052125467,0,4.0,3.0,1,2,7,0,7,0,0,3,3,5,,,,,,,482.3587113329995,482.3587113329995,483.37276287499117,483.65867424999306,483.8727143750002,483.8727143750002,483.8727143750002,485.33947037499456,485.33947037499456,485.33947037499456,485.33947037499456,486.35800887500227,200003,302,2023-04-07_12h53.09.225,DMS_et_12-36,2022.2.4,None,
64,UNPRED,12,0.5383025052125467,2,images/picture_3.png,images/picture_1.png,0,"[11.733433509789464, 11.733433509789462]",11.733433509789464,11.733433509789462,images/picture_2.png,1,"[-11.733433509789462, 11.733433509789464]",-11.733433509789462,11.733433509789464,images/picture_3.png,2,"[11.733433509789462, -11.733433509789466]",11.733433509789462,-11.733433509789464,0,1,1,0.5383025052125467,1.5383025052125467,1.4616974947874533,3.0,1,1.2883025052125467,0,4.0,3.0,1,2,7,0,7,0,0,4,4,1,,,,,,,486.35800887500227,486.35800887500227,487.37284774999716,487.6593064579938,487.87276199999906,487.87276199999906,487.87276199999906,489.3390509999881,489.3390509999881,489.3390509999881,489.3390509999881,490.33894945798966,200003,302,2023-04-07_12h53.09.225,DMS_et_12-36,2022.2.4,None,
63,UNPRED,12,0.5383025052125467,1,images/picture_2.png,images/picture_1.png,0,"[11.733433509789464, 11.733433509789462]",11.733433509789464,11.733433509789462,images/picture_2.png,1,"[11.733433509789462, -11.733433509789466]",11.733433509789462,-11.733433509789464,images/picture_3.png,2,"[-11.733433509789466, -11.733433509789462]",-11.733433509789464,-11.733433509789462,0,1,1,0.5383025052125467,1.5383025052125467,1.4616974947874533,3.0,1,1.2883025052125467,0,4.0,3.0,1,2,7,0,7,0,0,5,5,0,,,,,,,490.33894945798966,490.33894945798966,491.3394752079912,491.6395169999887,491.872738207996,491.872738207996,491.872738207996,493.33949766699516,493.33949766699516,493.33949766699516,493.33949766699516,494.33881408299203,200003,302,2023-04-07_12h53.09.225,DMS_et_12-36,2022.2.4,None,
69,UNPRED,12,0.5383025052125467,0,images/picture_1.png,images/picture_1.png,0,"[11.733433509789464, 11.733433509789462]",11.733433509789464,11.733433509789462,images/picture_2.png,1,"[-11.733433509789462, 11.733433509789464]",-11.733433509789462,11.733433509789464,images/picture_3.png,2,"[-11.733433509789466, -11.733433509789462]",-11.733433509789464,-11.733433509789462,0,1,1,0.5383025052125467,1.5383025052125467,1.4616974947874533,3.0,1,1.2883025052125467,0,4.0,3.0,1,2,7,0,7,0,0,6,6,6,,,,,,,494.33881408299203,494.33881408299203,495.339465291996,495.6394704999984,495.87274945799436,495.87274945799436,495.87274945799436,497.33945920800033,497.33945920800033,497.33945920800033,497.33945920800033,498.3386327499902,200003,302,2023-04-07_12h53.09.225,DMS_et_12-36,2022.2.4,None,
65,UNPRED,12,0.5383025052125467,1,images/picture_2.png,images/picture_1.png,0,"[11.733433509789464, 11.733433509789462]",11.733433509789464,11.733433509789462,images/picture_2.png,1,"[-11.733433509789466, -11.733433509789462]",-11.733433509789464,-11.733433509789462,images/picture_3.png,2,"[-11.733433509789462, 11.733433509789464]",-11.733433509789462,11.733433509789464,0,1,1,0.5383025052125467,1.5383025052125467,1.4616974947874533,3.0,1,1.2883025052125467,0,4.0,3.0,1,2,7,0,7,0,0,7,7,2,,,,,,,498.3386327499902,498.3386327499902,499.33910070799175,499.63923066700227,499.87245166698995,499.87245166698995,499.87245166698995,501.3395137920015,501.3395137920015,501.3395137920015,501.3395137920015,502.3388279169885,200003,302,2023-04-07_12h53.09.225,DMS_et_12-36,2022.2.4,None,
71,UNPRED,12,0.5383025052125467,0,images/picture_1.png,images/picture_1.png,0,"[11.733433509789462, -11.733433509789466]",11.733433509789462,-11.733433509789464,images/picture_2.png,1,"[11.733433509789464, 11.733433509789462]",11.733433509789464,11.733433509789462,images/picture_3.png,2,"[-11.733433509789462, 11.733433509789464]",-11.733433509789462,11.733433509789464,0,1,1,0.5383025052125467,1.5383025052125467,1.4616974947874533,3.0,1,1.2883025052125467,0,4.0,3.0,1,2,7,0,7,0,0,8,8,8,,,,,,,502.3388279169885,502.3388279169885,503.3395318749972,503.6395102079987,503.8727768749959,503.8727768749959,503.8727768749959,505.3394420830009,505.3394420830009,505.3394420830009,505.3394420830009,506.4247115420003,200003,302,2023-04-07_12h53.09.225,DMS_et_12-36,2022.2.4,None,
,,,,,,,,,,,,,,,,,,,,,,,,,,,,,,,,,,,7,0,7,0,,,,,,,,,506.4247115420003,518.4699455419905,,,,,,,,,,,,,200003,302,2023-04-07_12h53.09.225,DMS_et_12-36,2022.2.4,None,
76,PRED,12,0.5383025052125467,2,images/picture_3.png,images/picture_1.png,0,"[11.733433509789464, 11.733433509789462]",11.733433509789464,11.733433509789462,images/picture_2.png,1,"[-11.733433509789462, 11.733433509789464]",-11.733433509789462,11.733433509789464,images/picture_3.png,2,"[-11.733433509789466, -11.733433509789462]",-11.733433509789464,-11.733433509789462,0,1,1,0.5383025052125467,1.5383025052125467,1.4616974947874533,3.0,1,1.2883025052125467,0,4.0,3.0,1,2,8,0,8,0,0,0,0,4,,,,,,,518.4699455419905,518.4699455419905,519.4726557079994,519.7725066669955,520.0058032919915,520.0058032919915,520.0058032919915,521.4726967079914,521.4726967079914,521.4726967079914,521.4587835419952,522.4919512079941,200003,302,2023-04-07_12h53.09.225,DMS_et_12-36,2022.2.4,None,
80,PRED,12,0.5383025052125467,2,images/picture_3.png,images/picture_1.png,0,"[11.733433509789462, -11.733433509789466]",11.733433509789462,-11.733433509789464,images/picture_2.png,1,"[11.733433509789464, 11.733433509789462]",11.733433509789464,11.733433509789462,images/picture_3.png,2,"[-11.733433509789466, -11.733433509789462]",-11.733433509789464,-11.733433509789462,0,1,1,0.5383025052125467,1.5383025052125467,1.4616974947874533,3.0,1,1.2883025052125467,0,4.0,3.0,1,2,8,0,8,0,0,1,1,8,,,,,,,522.4919512079941,522.4919512079941,523.5060582079896,523.7921171670023,524.0060758329928,524.0060758329928,524.0060758329928,525.4727556669968,525.4727556669968,525.4727556669968,525.4727556669968,526.4913002079993,200003,302,2023-04-07_12h53.09.225,DMS_et_12-36,2022.2.4,None,
79,PRED,12,0.5383025052125467,2,images/picture_3.png,images/picture_1.png,0,"[11.733433509789462, -11.733433509789466]",11.733433509789462,-11.733433509789464,images/picture_2.png,1,"[-11.733433509789466, -11.733433509789462]",-11.733433509789464,-11.733433509789462,images/picture_3.png,2,"[-11.733433509789462, 11.733433509789464]",-11.733433509789462,11.733433509789464,0,1,1,0.5383025052125467,1.5383025052125467,1.4616974947874533,3.0,1,1.2883025052125467,0,4.0,3.0,1,2,8,0,8,0,0,2,2,7,,,,,,,526.4913002079993,526.4913002079993,527.5062049169937,527.7929600829957,528.0060309999972,528.0060309999972,528.0060309999972,529.4727610419941,529.4727610419941,529.4727610419941,529.4727610419941,530.473873875002,200003,302,2023-04-07_12h53.09.225,DMS_et_12-36,2022.2.4,None,
73,PRED,12,0.5383025052125467,2,images/picture_3.png,images/picture_1.png,0,"[11.733433509789462, -11.733433509789466]",11.733433509789462,-11.733433509789464,images/picture_2.png,1,"[-11.733433509789462, 11.733433509789464]",-11.733433509789462,11.733433509789464,images/picture_3.png,2,"[11.733433509789464, 11.733433509789462]",11.733433509789464,11.733433509789462,0,1,1,0.5383025052125467,1.5383025052125467,1.4616974947874533,3.0,1,1.2883025052125467,0,4.0,3.0,1,2,8,0,8,0,0,3,3,1,,,,,,,530.473873875002,530.473873875002,531.4729814169987,531.7727411669912,532.0062268749898,532.0062268749898,532.0062268749898,533.4727706669946,533.4727706669946,533.4727706669946,533.4727706669946,534.4922887919965,200003,302,2023-04-07_12h53.09.225,DMS_et_12-36,2022.2.4,None,
77,PRED,12,0.5383025052125467,2,images/picture_3.png,images/picture_1.png,0,"[11.733433509789464, 11.733433509789462]",11.733433509789464,11.733433509789462,images/picture_2.png,1,"[-11.733433509789462, 11.733433509789464]",-11.733433509789462,11.733433509789464,images/picture_3.png,2,"[11.733433509789462, -11.733433509789466]",11.733433509789462,-11.733433509789464,0,1,1,0.5383025052125467,1.5383025052125467,1.4616974947874533,3.0,1,1.2883025052125467,0,4.0,3.0,1,2,8,0,8,0,0,4,4,5,,,,,,,534.4922887919965,534.4922887919965,535.5061867920012,535.792223832992,536.006035207989,536.006035207989,536.006035207989,537.4727128329978,537.4727128329978,537.4727128329978,537.4727128329978,538.4911338749953,200003,302,2023-04-07_12h53.09.225,DMS_et_12-36,2022.2.4,None,
72,PRED,12,0.5383025052125467,2,images/picture_3.png,images/picture_1.png,0,"[11.733433509789464, 11.733433509789462]",11.733433509789464,11.733433509789462,images/picture_2.png,1,"[-11.733433509789466, -11.733433509789462]",-11.733433509789464,-11.733433509789462,images/picture_3.png,2,"[-11.733433509789462, 11.733433509789464]",-11.733433509789462,11.733433509789464,0,1,1,0.5383025052125467,1.5383025052125467,1.4616974947874533,3.0,1,1.2883025052125467,0,4.0,3.0,1,2,8,0,8,0,0,5,5,0,,,,,,,538.4911338749953,538.4911338749953,539.5062503329973,539.7919886669988,540.0058573330025,540.0058573330025,540.0058573330025,541.4727275829937,541.4727275829937,541.4727275829937,541.4727275829937,542.4913534999941,200003,302,2023-04-07_12h53.09.225,DMS_et_12-36,2022.2.4,None,
75,PRED,12,0.5383025052125467,2,images/picture_3.png,images/picture_1.png,0,"[-11.733433509789462, 11.733433509789464]",-11.733433509789462,11.733433509789464,images/picture_2.png,1,"[11.733433509789462, -11.733433509789466]",11.733433509789462,-11.733433509789464,images/picture_3.png,2,"[11.733433509789464, 11.733433509789462]",11.733433509789464,11.733433509789462,0,1,1,0.5383025052125467,1.5383025052125467,1.4616974947874533,3.0,1,1.2883025052125467,0,4.0,3.0,1,2,8,0,8,0,0,6,6,3,,,,,,,542.4913534999941,542.4913534999941,543.5060093749926,543.7922478330001,544.0062736669934,544.0062736669934,544.0062736669934,545.4727458749985,545.4727458749985,545.4727458749985,545.4727458749985,546.4920764999988,200003,302,2023-04-07_12h53.09.225,DMS_et_12-36,2022.2.4,None,
74,PRED,12,0.5383025052125467,2,images/picture_3.png,images/picture_1.png,0,"[11.733433509789464, 11.733433509789462]",11.733433509789464,11.733433509789462,images/picture_2.png,1,"[11.733433509789462, -11.733433509789466]",11.733433509789462,-11.733433509789464,images/picture_3.png,2,"[-11.733433509789462, 11.733433509789464]",-11.733433509789462,11.733433509789464,0,1,1,0.5383025052125467,1.5383025052125467,1.4616974947874533,3.0,1,1.2883025052125467,0,4.0,3.0,1,2,8,0,8,0,0,7,7,2,,,,,,,546.4920764999988,546.4920764999988,547.5062006249937,547.7920055419963,548.0062258749967,548.0062258749967,548.0062258749967,549.4730562079931,549.4730562079931,549.4730562079931,549.4730562079931,550.47321916699,200003,302,2023-04-07_12h53.09.225,DMS_et_12-36,2022.2.4,None,
78,PRED,12,0.5383025052125467,2,images/picture_3.png,images/picture_1.png,0,"[11.733433509789464, 11.733433509789462]",11.733433509789464,11.733433509789462,images/picture_2.png,1,"[-11.733433509789466, -11.733433509789462]",-11.733433509789464,-11.733433509789462,images/picture_3.png,2,"[11.733433509789462, -11.733433509789466]",11.733433509789462,-11.733433509789464,0,1,1,0.5383025052125467,1.5383025052125467,1.4616974947874533,3.0,1,1.2883025052125467,0,4.0,3.0,1,2,8,0,8,0,0,8,8,6,,,,,,,550.47321916699,550.47321916699,551.4726132499927,551.7727526669914,552.0062359579897,552.0062359579897,552.0062359579897,553.4727143749915,553.4727143749915,553.4727143749915,553.4727143749915,554.5693072919967,200003,302,2023-04-07_12h53.09.225,DMS_et_12-36,2022.2.4,None,
,,,,,,,,,,,,,,,,,,,,,,,,,,,,,,,,,,,8,0,8,0,,,,,,,,,554.5693072919967,566.5975256249949,,,,,,,,,,,,,200003,302,2023-04-07_12h53.09.225,DMS_et_12-36,2022.2.4,None,
89,UNPRED,12,0.5383025052125467,1,images/picture_2.png,images/picture_1.png,0,"[-11.733433509789466, -11.733433509789462]",-11.733433509789464,-11.733433509789462,images/picture_2.png,1,"[11.733433509789462, -11.733433509789466]",11.733433509789462,-11.733433509789464,images/picture_3.png,2,"[-11.733433509789462, 11.733433509789464]",-11.733433509789462,11.733433509789464,0,1,1,0.5383025052125467,1.5383025052125467,1.4616974947874533,3.0,1,1.2883025052125467,0,4.0,3.0,1,2,9,0,9,0,0,0,0,8,,,,,,,566.5975256249949,566.5975256249949,567.6064620830002,567.8921317919885,568.1393222079932,568.1393222079932,568.1393222079932,569.6062027079897,569.6062027079897,569.6062027079897,569.5921686669899,570.6054002919991,200003,302,2023-04-07_12h53.09.225,DMS_et_12-36,2022.2.4,None,
83,UNPRED,12,0.5383025052125467,1,images/picture_2.png,images/picture_1.png,0,"[-11.733433509789462, 11.733433509789464]",-11.733433509789462,11.733433509789464,images/picture_2.png,1,"[-11.733433509789466, -11.733433509789462]",-11.733433509789464,-11.733433509789462,images/picture_3.png,2,"[11.733433509789462, -11.733433509789466]",11.733433509789462,-11.733433509789464,0,1,1,0.5383025052125467,1.5383025052125467,1.4616974947874533,3.0,1,1.2883025052125467,0,4.0,3.0,1,2,9,0,9,0,0,1,1,2,,,,,,,570.6054002919991,570.6054002919991,571.6060269579903,571.9058500419924,572.1393132919911,572.1393132919911,572.1393132919911,573.6062029169989,573.6062029169989,573.6062029169989,573.6062029169989,574.6055400829937,200003,302,2023-04-07_12h53.09.225,DMS_et_12-36,2022.2.4,None,
81,UNPRED,12,0.5383025052125467,0,images/picture_1.png,images/picture_1.png,0,"[-11.733433509789462, 11.733433509789464]",-11.733433509789462,11.733433509789464,images/picture_2.png,1,"[11.733433509789464, 11.733433509789462]",11.733433509789464,11.733433509789462,images/picture_3.png,2,"[-11.733433509789466, -11.733433509789462]",-11.733433509789464,-11.733433509789462,0,1,1,0.5383025052125467,1.5383025052125467,1.4616974947874533,3.0,1,1.2883025052125467,0,4.0,3.0,1,2,9,0,9,0,0,2,2,0,,,,,,,574.6055400829937,574.6055400829937,575.6061734579998,575.9059909579955,576.1396021669934,576.1396021669934,576.1396021669934,577.6058578749944,577.6058578749944,577.6058578749944,577.6058578749944,578.6059320829954,200003,302,2023-04-07_12h53.09.225,DMS_et_12-36,2022.2.4,None,
86,UNPRED,12,0.5383025052125467,0,images/picture_1.png,images/picture_1.png,0,"[-11.733433509789462, 11.733433509789464]",-11.733433509789462,11.733433509789464,images/picture_2.png,1,"[11.733433509789462, -11.733433509789466]",11.733433509789462,-11.733433509789464,images/picture_3.png,2,"[-11.733433509789466, -11.733433509789462]",-11.733433509789464,-11.733433509789462,0,1,1,0.5383025052125467,1.5383025052125467,1.4616974947874533,3.0,1,1.2883025052125467,0,4.0,3.0,1,2,9,0,9,0,0,3,3,5,,,,,,,578.6059320829954,578.6059320829954,579.6065839579969,579.9062132919935,580.1392384169885,580.1392384169885,580.1392384169885,581.6058043329976,581.6058043329976,581.6058043329976,581.6058043329976,582.605958125001,200003,302,2023-04-07_12h53.09.225,DMS_et_12-36,2022.2.4,None,
88,UNPRED,12,0.5383025052125467,1,images/picture_2.png,images/picture_1.png,0,"[11.733433509789462, -11.733433509789466]",11.733433509789462,-11.733433509789464,images/picture_2.png,1,"[-11.733433509789466, -11.733433509789462]",-11.733433509789464,-11.733433509789462,images/picture_3.png,2,"[11.733433509789464, 11.733433509789462]",11.733433509789464,11.733433509789462,0,1,1,0.5383025052125467,1.5383025052125467,1.4616974947874533,3.0,1,1.2883025052125467,0,4.0,3.0,1,2,9,0,9,0,0,4,4,7,,,,,,,582.605958125001,582.605958125001,583.6060247919959,583.906216791991,584.1394866249902,584.1394866249902,584.1394866249902,585.6062287499954,585.6062287499954,585.6062287499954,585.6062287499954,586.6056486669986,200003,302,2023-04-07_12h53.09.225,DMS_et_12-36,2022.2.4,None,
84,UNPRED,12,0.5383025052125467,0,images/picture_1.png,images/picture_1.png,0,"[11.733433509789462, -11.733433509789466]",11.733433509789462,-11.733433509789464,images/picture_2.png,1,"[-11.733433509789466, -11.733433509789462]",-11.733433509789464,-11.733433509789462,images/picture_3.png,2,"[11.733433509789464, 11.733433509789462]",11.733433509789464,11.733433509789462,0,1,1,0.5383025052125467,1.5383025052125467,1.4616974947874533,3.0,1,1.2883025052125467,0,4.0,3.0,1,2,9,0,9,0,0,5,5,3,,,,,,,586.6056486669986,586.6056486669986,587.6063176249882,587.9062794170022,588.1394555419974,588.1394555419974,588.1394555419974,589.6062412079918,589.6062412079918,589.6062412079918,589.6062412079918,590.6054182919906,200003,302,2023-04-07_12h53.09.225,DMS_et_12-36,2022.2.4,None,
85,UNPRED,12,0.5383025052125467,1,images/picture_2.png,images/picture_1.png,0,"[-11.733433509789462, 11.733433509789464]",-11.733433509789462,11.733433509789464,images/picture_2.png,1,"[-11.733433509789466, -11.733433509789462]",-11.733433509789464,-11.733433509789462,images/picture_3.png,2,"[11.733433509789462, -11.733433509789466]",11.733433509789462,-11.733433509789464,0,1,1,0.5383025052125467,1.5383025052125467,1.4616974947874533,3.0,1,1.2883025052125467,0,4.0,3.0,1,2,9,0,9,0,0,6,6,4,,,,,,,590.6054182919906,590.6054182919906,591.6059442919941,591.905907124994,592.1392841670022,592.1392841670022,592.1392841670022,593.6062339170021,593.6062339170021,593.6062339170021,593.6062339170021,594.6054199999926,200003,302,2023-04-07_12h53.09.225,DMS_et_12-36,2022.2.4,None,
87,UNPRED,12,0.5383025052125467,0,images/picture_1.png,images/picture_1.png,0,"[-11.733433509789462, 11.733433509789464]",-11.733433509789462,11.733433509789464,images/picture_2.png,1,"[-11.733433509789466, -11.733433509789462]",-11.733433509789464,-11.733433509789462,images/picture_3.png,2,"[11.733433509789462, -11.733433509789466]",11.733433509789462,-11.733433509789464,0,1,1,0.5383025052125467,1.5383025052125467,1.4616974947874533,3.0,1,1.2883025052125467,0,4.0,3.0,1,2,9,0,9,0,0,7,7,6,,,,,,,594.6054199999926,594.6054199999926,595.6062289580004,595.90623004199,596.1394674579933,596.1394674579933,596.1394674579933,597.6062701249903,597.6062701249903,597.6062701249903,597.6062701249903,598.6057083749911,200003,302,2023-04-07_12h53.09.225,DMS_et_12-36,2022.2.4,None,
82,UNPRED,12,0.5383025052125467,0,images/picture_1.png,images/picture_1.png,0,"[11.733433509789462, -11.733433509789466]",11.733433509789462,-11.733433509789464,images/picture_2.png,1,"[11.733433509789464, 11.733433509789462]",11.733433509789464,11.733433509789462,images/picture_3.png,2,"[-11.733433509789466, -11.733433509789462]",-11.733433509789464,-11.733433509789462,0,1,1,0.5383025052125467,1.5383025052125467,1.4616974947874533,3.0,1,1.2883025052125467,0,4.0,3.0,1,2,9,0,9,0,0,8,8,1,,,,,,,598.6057083749911,598.6057083749911,599.6062007919973,599.9062279169884,600.139517167001,600.139517167001,600.139517167001,601.6060725419957,601.6060725419957,601.6060725419957,601.6060725419957,602.6942812920024,200003,302,2023-04-07_12h53.09.225,DMS_et_12-36,2022.2.4,None,
,,,,,,,,,,,,,,,,,,,,,,,,,,,,,,,,,,,9,0,9,0,,,,,,,,,602.6942812920024,614.745015499997,,,,,,,,,,,,,200003,302,2023-04-07_12h53.09.225,DMS_et_12-36,2022.2.4,None,
95,PRED,12,0.5383025052125467,2,images/picture_3.png,images/picture_1.png,0,"[11.733433509789462, -11.733433509789466]",11.733433509789462,-11.733433509789464,images/picture_2.png,1,"[-11.733433509789462, 11.733433509789464]",-11.733433509789462,11.733433509789464,images/picture_3.png,2,"[-11.733433509789466, -11.733433509789462]",-11.733433509789464,-11.733433509789462,0,1,1,0.5383025052125467,1.5383025052125467,1.4616974947874533,3.0,1,1.2883025052125467,0,4.0,3.0,1,2,10,0,10,0,0,0,0,5,,,,,,,614.745015499997,614.745015499997,615.7588767499983,616.0398257920024,616.2726041249989,616.2726041249989,616.2726041249989,617.7394900419895,617.7394900419895,617.7394900419895,617.7394900419895,618.75817666699,200003,302,2023-04-07_12h53.09.225,DMS_et_12-36,2022.2.4,None,
98,PRED,12,0.5383025052125467,2,images/picture_3.png,images/picture_1.png,0,"[-11.733433509789462, 11.733433509789464]",-11.733433509789462,11.733433509789464,images/picture_2.png,1,"[11.733433509789464, 11.733433509789462]",11.733433509789464,11.733433509789462,images/picture_3.png,2,"[11.733433509789462, -11.733433509789466]",11.733433509789462,-11.733433509789464,0,1,1,0.5383025052125467,1.5383025052125467,1.4616974947874533,3.0,1,1.2883025052125467,0,4.0,3.0,1,2,10,0,10,0,0,1,1,8,,,,,,,618.75817666699,618.75817666699,619.7729830829921,620.0589917079924,620.2727512919955,620.2727512919955,620.2727512919955,621.7394199580012,621.7394199580012,621.7394199580012,621.7394199580012,622.7586525419902,200003,302,2023-04-07_12h53.09.225,DMS_et_12-36,2022.2.4,None,
90,PRED,12,0.5383025052125467,2,images/picture_3.png,images/picture_1.png,0,"[11.733433509789464, 11.733433509789462]",11.733433509789464,11.733433509789462,images/picture_2.png,1,"[-11.733433509789466, -11.733433509789462]",-11.733433509789464,-11.733433509789462,images/picture_3.png,2,"[-11.733433509789462, 11.733433509789464]",-11.733433509789462,11.733433509789464,0,1,1,0.5383025052125467,1.5383025052125467,1.4616974947874533,3.0,1,1.2883025052125467,0,4.0,3.0,1,2,10,0,10,0,0,2,2,0,,,,,,,622.7586525419902,622.7586525419902,623.7728962919937,624.0589651249902,624.2729351250018,624.2729351250018,624.2729351250018,625.7395003749989,625.7395003749989,625.7395003749989,625.7395003749989,626.7586838330026,200003,302,2023-04-07_12h53.09.225,DMS_et_12-36,2022.2.4,None,
92,PRED,12,0.5383025052125467,2,images/picture_3.png,images/picture_1.png,0,"[11.733433509789462, -11.733433509789466]",11.733433509789462,-11.733433509789464,images/picture_2.png,1,"[11.733433509789464, 11.733433509789462]",11.733433509789464,11.733433509789462,images/picture_3.png,2,"[-11.733433509789462, 11.733433509789464]",-11.733433509789462,11.733433509789464,0,1,1,0.5383025052125467,1.5383025052125467,1.4616974947874533,3.0,1,1.2883025052125467,0,4.0,3.0,1,2,10,0,10,0,0,3,3,2,,,,,,,626.7586838330026,626.7586838330026,627.7731517499924,628.0592396669963,628.2726445000008,628.2726445000008,628.2726445000008,629.7393174169993,629.7393174169993,629.7393174169993,629.7393174169993,630.7581930419983,200003,302,2023-04-07_12h53.09.225,DMS_et_12-36,2022.2.4,None,
91,PRED,12,0.5383025052125467,2,images/picture_3.png,images/picture_1.png,0,"[11.733433509789462, -11.733433509789466]",11.733433509789462,-11.733433509789464,images/picture_2.png,1,"[-11.733433509789466, -11.733433509789462]",-11.733433509789464,-11.733433509789462,images/picture_3.png,2,"[-11.733433509789462, 11.733433509789464]",-11.733433509789462,11.733433509789464,0,1,1,0.5383025052125467,1.5383025052125467,1.4616974947874533,3.0,1,1.2883025052125467,0,4.0,3.0,1,2,10,0,10,0,0,4,4,1,,,,,,,630.7581930419983,630.7581930419983,631.7726989999937,632.0596281670005,632.2730006670026,632.2730006670026,632.2730006670026,633.7394900829968,633.7394900829968,633.7394900829968,633.7394900829968,634.758258582995,200003,302,2023-04-07_12h53.09.225,DMS_et_12-36,2022.2.4,None,
96,PRED,12,0.5383025052125467,2,images/picture_3.png,images/picture_1.png,0,"[-11.733433509789462, 11.733433509789464]",-11.733433509789462,11.733433509789464,images/picture_2.png,1,"[11.733433509789462, -11.733433509789466]",11.733433509789462,-11.733433509789464,images/picture_3.png,2,"[-11.733433509789466, -11.733433509789462]",-11.733433509789464,-11.733433509789462,0,1,1,0.5383025052125467,1.5383025052125467,1.4616974947874533,3.0,1,1.2883025052125467,0,4.0,3.0,1,2,10,0,10,0,0,5,5,6,,,,,,,634.758258582995,634.758258582995,635.773070582989,636.0588153749995,636.2729352079914,636.2729352079914,636.2729352079914,637.7394984580023,637.7394984580023,637.7394984580023,637.7394984580023,638.7588001249969,200003,302,2023-04-07_12h53.09.225,DMS_et_12-36,2022.2.4,None,
94,PRED,12,0.5383025052125467,2,images/picture_3.png,images/picture_1.png,0,"[11.733433509789462, -11.733433509789466]",11.733433509789462,-11.733433509789464,images/picture_2.png,1,"[11.733433509789464, 11.733433509789462]",11.733433509789464,11.733433509789462,images/picture_3.png,2,"[-11.733433509789466, -11.733433509789462]",-11.733433509789464,-11.733433509789462,0,1,1,0.5383025052125467,1.5383025052125467,1.4616974947874533,3.0,1,1.2883025052125467,0,4.0,3.0,1,2,10,0,10,0,0,6,6,4,,,,,,,638.7588001249969,638.7588001249969,639.7729584579938,640.0592280419951,640.2727246669965,640.2727246669965,640.2727246669965,641.7396642919921,641.7396642919921,641.7396642919921,641.7396642919921,642.7395341669908,200003,302,2023-04-07_12h53.09.225,DMS_et_12-36,2022.2.4,None,
93,PRED,12,0.5383025052125467,2,images/picture_3.png,images/picture_1.png,0,"[-11.733433509789462, 11.733433509789464]",-11.733433509789462,11.733433509789464,images/picture_2.png,1,"[-11.733433509789466, -11.733433509789462]",-11.733433509789464,-11.733433509789462,images/picture_3.png,2,"[11.733433509789464, 11.733433509789462]",11.733433509789464,11.733433509789462,0,1,1,0.5383025052125467,1.5383025052125467,1.4616974947874533,3.0,1,1.2883025052125467,0,4.0,3.0,1,2,10,0,10,0,0,7,7,3,,,,,,,642.7395341669908,642.7395341669908,643.7393351669889,644.0397049579915,644.2730322919961,644.2730322919961,644.2730322919961,645.7396854169929,645.7396854169929,645.7396854169929,645.7396854169929,646.7591475829977,200003,302,2023-04-07_12h53.09.225,DMS_et_12-36,2022.2.4,None,
97,PRED,12,0.5383025052125467,2,images/picture_3.png,images/picture_1.png,0,"[-11.733433509789462, 11.733433509789464]",-11.733433509789462,11.733433509789464,images/picture_2.png,1,"[-11.733433509789466, -11.733433509789462]",-11.733433509789464,-11.733433509789462,images/picture_3.png,2,"[11.733433509789464, 11.733433509789462]",11.733433509789464,11.733433509789462,0,1,1,0.5383025052125467,1.5383025052125467,1.4616974947874533,3.0,1,1.2883025052125467,0,4.0,3.0,1,2,10,0,10,0,0,8,8,7,,,,,,,646.7591475829977,646.7591475829977,647.772985292002,648.0589777919959,648.2729208749952,648.2729208749952,648.2729208749952,649.7395109579957,649.7395109579957,649.7395109579957,649.7395109579957,650.8549879999919,200003,302,2023-04-07_12h53.09.225,DMS_et_12-36,2022.2.4,None,
,,,,,,,,,,,,,,,,,,,,,,,,,,,,,,,,,,,10,0,10,0,,,,,,,,,650.8549879999919,662.8886966669961,,,,,,,,,,,,,200003,302,2023-04-07_12h53.09.225,DMS_et_12-36,2022.2.4,None,
102,UNPRED,12,0.5383025052125467,2,images/picture_3.png,images/picture_1.png,0,"[11.733433509789464, 11.733433509789462]",11.733433509789464,11.733433509789462,images/picture_2.png,1,"[-11.733433509789462, 11.733433509789464]",-11.733433509789462,11.733433509789464,images/picture_3.png,2,"[-11.733433509789466, -11.733433509789462]",-11.733433509789464,-11.733433509789462,0,1,1,0.5383025052125467,1.5383025052125467,1.4616974947874533,3.0,1,1.2883025052125467,0,4.0,3.0,1,2,11,0,11,0,0,0,0,3,,,,,,,662.8886966669961,662.8886966669961,663.8918468749907,664.1915858329885,664.4248948749882,664.4248948749882,664.4248948749882,665.8923816669994,665.8923816669994,665.8923816669994,665.8729304169974,666.8735811249935,200003,302,2023-04-07_12h53.09.225,DMS_et_12-36,2022.2.4,None,
103,UNPRED,12,0.5383025052125467,1,images/picture_2.png,images/picture_1.png,0,"[-11.733433509789462, 11.733433509789464]",-11.733433509789462,11.733433509789464,images/picture_2.png,1,"[-11.733433509789466, -11.733433509789462]",-11.733433509789464,-11.733433509789462,images/picture_3.png,2,"[11.733433509789464, 11.733433509789462]",11.733433509789464,11.733433509789462,0,1,1,0.5383025052125467,1.5383025052125467,1.4616974947874533,3.0,1,1.2883025052125467,0,4.0,3.0,1,2,11,0,11,0,0,1,1,4,,,,,,,666.8735811249935,666.8735811249935,667.8729739169939,668.1729592920019,668.4064359170006,668.4064359170006,668.4064359170006,669.8729837499995,669.8729837499995,669.8729837499995,669.8729837499995,670.8724242079916,200003,302,2023-04-07_12h53.09.225,DMS_et_12-36,2022.2.4,None,
107,UNPRED,12,0.5383025052125467,0,images/picture_1.png,images/picture_1.png,0,"[11.733433509789464, 11.733433509789462]",11.733433509789464,11.733433509789462,images/picture_2.png,1,"[11.733433509789462, -11.733433509789466]",11.733433509789462,-11.733433509789464,images/picture_3.png,2,"[-11.733433509789466, -11.733433509789462]",-11.733433509789464,-11.733433509789462,0,1,1,0.5383025052125467,1.5383025052125467,1.4616974947874533,3.0,1,1.2883025052125467,0,4.0,3.0,1,2,11,0,11,0,0,2,2,8,,,,,,,670.8724242079916,670.8724242079916,671.8729717079987,672.1729769999947,672.4063140829967,672.4063140829967,672.4063140829967,673.8726160419901,673.8726160419901,673.8726160419901,673.8726160419901,674.8730617499969,200003,302,2023-04-07_12h53.09.225,DMS_et_12-36,2022.2.4,None,
105,UNPRED,12,0.5383025052125467,1,images/picture_2.png,images/picture_1.png,0,"[-11.733433509789462, 11.733433509789464]",-11.733433509789462,11.733433509789464,images/picture_2.png,1,"[-11.733433509789466, -11.733433509789462]",-11.733433509789464,-11.733433509789462,images/picture_3.png,2,"[11.733433509789464, 11.733433509789462]",11.733433509789464,11.733433509789462,0,1,1,0.5383025052125467,1.5383025052125467,1.4616974947874533,3.0,1,1.2883025052125467,0,4.0,3.0,1,2,11,0,11,0,0,3,3,6,,,,,,,674.8730617499969,674.8730617499969,675.8729904999927,676.172924582992,676.4062816249934,676.4062816249934,676.4062816249934,677.8730814169976,677.8730814169976,677.8730814169976,677.8730814169976,678.8719368750026,200003,302,2023-04-07_12h53.09.225,DMS_et_12-36,2022.2.4,None,
104,UNPRED,12,0.5383025052125467,0,images/picture_1.png,images/picture_1.png,0,"[11.733433509789464, 11.733433509789462]",11.733433509789464,11.733433509789462,images/picture_2.png,1,"[11.733433509789462, -11.733433509789466]",11.733433509789462,-11.733433509789464,images/picture_3.png,2,"[-11.733433509789466, -11.733433509789462]",-11.733433509789464,-11.733433509789462,0,1,1,0.5383025052125467,1.5383025052125467,1.4616974947874533,3.0,1,1.2883025052125467,0,4.0,3.0,1,2,11,0,11,0,0,4,4,5,,,,,,,678.8719368750026,678.8719368750026,679.8729377499985,680.1729433329892,680.4062368329905,680.4062368329905,680.4062368329905,681.8730129999894,681.8730129999894,681.8730129999894,681.8730129999894,682.8726771249931,200003,302,2023-04-07_12h53.09.225,DMS_et_12-36,2022.2.4,None,
100,UNPRED,12,0.5383025052125467,0,images/picture_1.png,images/picture_1.png,0,"[-11.733433509789462, 11.733433509789464]",-11.733433509789462,11.733433509789464,images/picture_2.png,1,"[11.733433509789462, -11.733433509789466]",11.733433509789462,-11.733433509789464,images/picture_3.png,2,"[11.733433509789464, 11.733433509789462]",11.733433509789464,11.733433509789462,0,1,1,0.5383025052125467,1.5383025052125467,1.4616974947874533,3.0,1,1.2883025052125467,0,4.0,3.0,1,2,11,0,11,0,0,5,5,1,,,,,,,682.8726771249931,682.8726771249931,683.8726341250003,684.1726616249944,684.4059731250018,684.4059731250018,684.4059731250018,685.8729456250003,685.8729456250003,685.8729456250003,685.8729456250003,686.8721229579969,200003,302,2023-04-07_12h53.09.225,DMS_et_12-36,2022.2.4,None,
106,UNPRED,12,0.5383025052125467,1,images/picture_2.png,images/picture_1.png,0,"[-11.733433509789466, -11.733433509789462]",-11.733433509789464,-11.733433509789462,images/picture_2.png,1,"[11.733433509789464, 11.733433509789462]",11.733433509789464,11.733433509789462,images/picture_3.png,2,"[-11.733433509789462, 11.733433509789464]",-11.733433509789462,11.733433509789464,0,1,1,0.5383025052125467,1.5383025052125467,1.4616974947874533,3.0,1,1.2883025052125467,0,4.0,3.0,1,2,11,0,11,0,0,6,6,7,,,,,,,686.8721229579969,686.8721229579969,687.8730095419887,688.173076082996,688.4063864579948,688.4063864579948,688.4063864579948,689.8730151670024,689.8730151670024,689.8730151670024,689.8730151670024,690.8724917079962,200003,302,2023-04-07_12h53.09.225,DMS_et_12-36,2022.2.4,None,
99,UNPRED,12,0.5383025052125467,0,images/picture_1.png,images/picture_1.png,0,"[-11.733433509789462, 11.733433509789464]",-11.733433509789462,11.733433509789464,images/picture_2.png,1,"[11.733433509789462, -11.733433509789466]",11.733433509789462,-11.733433509789464,images/picture_3.png,2,"[-11.733433509789466, -11.733433509789462]",-11.733433509789464,-11.733433509789462,0,1,1,0.5383025052125467,1.5383025052125467,1.4616974947874533,3.0,1,1.2883025052125467,0,4.0,3.0,1,2,11,0,11,0,0,7,7,0,,,,,,,690.8724917079962,690.8724917079962,691.8730218749988,692.172911082991,692.4062607079977,692.4062607079977,692.4062607079977,693.8729843329929,693.8729843329929,693.8729843329929,693.8729843329929,694.8726712079952,200003,302,2023-04-07_12h53.09.225,DMS_et_12-36,2022.2.4,None,
101,UNPRED,12,0.5383025052125467,1,images/picture_2.png,images/picture_1.png,0,"[-11.733433509789462, 11.733433509789464]",-11.733433509789462,11.733433509789464,images/picture_2.png,1,"[11.733433509789462, -11.733433509789466]",11.733433509789462,-11.733433509789464,images/picture_3.png,2,"[11.733433509789464, 11.733433509789462]",11.733433509789464,11.733433509789462,0,1,1,0.5383025052125467,1.5383025052125467,1.4616974947874533,3.0,1,1.2883025052125467,0,4.0,3.0,1,2,11,0,11,0,0,8,8,2,,,,,,,694.8726712079952,694.8726712079952,695.8729640419915,696.1729256249964,696.4062362080003,696.4062362080003,696.4062362080003,697.8729856249993,697.8729856249993,697.8729856249993,697.8729856249993,698.9936347920011,200003,302,2023-04-07_12h53.09.225,DMS_et_12-36,2022.2.4,None,
,,,,,,,,,,,,,,,,,,,,,,,,,,,,,,,,,,,11,0,11,0,,,,,,,,,698.9936347920011,711.1401431249978,,,,,,,,,,,,,200003,302,2023-04-07_12h53.09.225,DMS_et_12-36,2022.2.4,None,
,,,,,,,,,,,,,,,,,,,,,,,,,,,,,,,,,,,,,,,,,,,,,,,711.1401431249978,723.6606184580014,,,,,,,,,,,,,,,,,,,
