trial_count,blockType,blockNum,delay_time,stimImage_i,stimImage,responseImage1,responseImage1_i,responseImage1_pos,responseImage1_X,responseImage1_Y,responseImage2,responseImage2_i,responseImage2_pos,responseImage2_X,responseImage2_Y,responseImage3,responseImage3_i,responseImage3_pos,responseImage3_X,responseImage3_Y,cue_onset,cue_dur,delay_onset,delay_dur,resp_onset,resp_dur,rest_onset,rest_dur,circle_dur,circle_onset,total_dur,cross_onset,cross_dur,delay_resp_period,blocks.thisRepN,blocks.thisTrialN,blocks.thisN,blocks.thisIndex,trials.thisRepN,trials.thisTrialN,trials.thisN,trials.thisIndex,key_resp.started,text.started,key_resp.keys,key_resp.rt,text_2.started,text_2.stopped,sample.started,Delay.started,sample.stopped,Delay.stopped,Response_1.started,Response_2.started,Response_3.started,Response_1.stopped,Response_2.stopped,Response_3.stopped,polygon.started,polygon.stopped,participant,session,date,expName,psychopyVersion,frameRate,
,,,,,,,,,,,,,,,,,,,,,,,,,,,,,,,,,,,,,,,,,,,99.78504104097374,99.78504104097374,t,172.5232057920075,,,,,,,,,,,,,,,200007,001,2023-04-11_08h39.15.080,DMS_et_12-36,2022.2.4,None,
8,PRED,12,0.6850590835942414,2,images/picture_3.png,images/picture_1.png,0,"[-11.733433509789462, 11.733433509789464]",-11.733433509789462,11.733433509789464,images/picture_2.png,1,"[11.733433509789464, 11.733433509789462]",11.733433509789464,11.733433509789462,images/picture_3.png,2,"[-11.733433509789466, -11.733433509789462]",-11.733433509789464,-11.733433509789462,0,1,1,0.6850590835942414,1.6850590835942414,1.3149409164057586,3.0,1,1.4350590835942414,0,4.0,3.0,1,2,0,0,0,0,0,0,0,8,,,,,272.82463679101784,284.88143437501276,284.88143437501276,284.88143437501276,285.89621104102116,286.3294754580129,286.52945233299397,286.52945233299397,286.52945233299397,287.84327537502395,287.84327537502395,287.84327537502395,287.84327537502395,288.8624074580148,200007,001,2023-04-11_08h39.15.080,DMS_et_12-36,2022.2.4,None,
5,PRED,12,0.6850590835942414,2,images/picture_3.png,images/picture_1.png,0,"[-11.733433509789462, 11.733433509789464]",-11.733433509789462,11.733433509789464,images/picture_2.png,1,"[11.733433509789464, 11.733433509789462]",11.733433509789464,11.733433509789462,images/picture_3.png,2,"[-11.733433509789466, -11.733433509789462]",-11.733433509789464,-11.733433509789462,0,1,1,0.6850590835942414,1.6850590835942414,1.3149409164057586,3.0,1,1.4350590835942414,0,4.0,3.0,1,2,0,0,0,0,0,1,1,5,,,,,,,288.8624074580148,288.8624074580148,289.8769154580077,290.3101969159907,290.5294955410063,290.5294955410063,290.5294955410063,291.8436977909878,291.8436977909878,291.8436977909878,291.8436977909878,292.862081957981,200007,001,2023-04-11_08h39.15.080,DMS_et_12-36,2022.2.4,None,
4,PRED,12,0.6850590835942414,2,images/picture_3.png,images/picture_1.png,0,"[11.733433509789462, -11.733433509789466]",11.733433509789462,-11.733433509789464,images/picture_2.png,1,"[11.733433509789464, 11.733433509789462]",11.733433509789464,11.733433509789462,images/picture_3.png,2,"[-11.733433509789466, -11.733433509789462]",-11.733433509789464,-11.733433509789462,0,1,1,0.6850590835942414,1.6850590835942414,1.3149409164057586,3.0,1,1.4350590835942414,0,4.0,3.0,1,2,0,0,0,0,0,2,2,4,,,,,,,292.862081957981,292.862081957981,293.8768797079683,294.3103142909822,294.5301489579724,294.5301489579724,294.5301489579724,295.84356279100757,295.84356279100757,295.84356279100757,295.84356279100757,296.86288383300416,200007,001,2023-04-11_08h39.15.080,DMS_et_12-36,2022.2.4,None,
6,PRED,12,0.6850590835942414,2,images/picture_3.png,images/picture_1.png,0,"[11.733433509789464, 11.733433509789462]",11.733433509789464,11.733433509789462,images/picture_2.png,1,"[11.733433509789462, -11.733433509789466]",11.733433509789462,-11.733433509789464,images/picture_3.png,2,"[-11.733433509789462, 11.733433509789464]",-11.733433509789462,11.733433509789464,0,1,1,0.6850590835942414,1.6850590835942414,1.3149409164057586,3.0,1,1.4350590835942414,0,4.0,3.0,1,2,0,0,0,0,0,3,3,6,,,,,,,296.86288383300416,296.86288383300416,297.8768955830019,298.31006499996874,298.5296305830125,298.5296305830125,298.5296305830125,299.8436090829782,299.8436090829782,299.8436090829782,299.8436090829782,300.8628877499723,200007,001,2023-04-11_08h39.15.080,DMS_et_12-36,2022.2.4,None,
0,PRED,12,0.6850590835942414,2,images/picture_3.png,images/picture_1.png,0,"[11.733433509789464, 11.733433509789462]",11.733433509789464,11.733433509789462,images/picture_2.png,1,"[11.733433509789462, -11.733433509789466]",11.733433509789462,-11.733433509789464,images/picture_3.png,2,"[-11.733433509789466, -11.733433509789462]",-11.733433509789464,-11.733433509789462,0,1,1,0.6850590835942414,1.6850590835942414,1.3149409164057586,3.0,1,1.4350590835942414,0,4.0,3.0,1,2,0,0,0,0,0,4,4,0,,,,,,,300.8628877499723,300.8628877499723,301.87686279101763,302.3100982080214,302.5297600000049,302.5297600000049,302.5297600000049,303.8435776659753,303.8435776659753,303.8435776659753,303.8435776659753,304.8628442080226,200007,001,2023-04-11_08h39.15.080,DMS_et_12-36,2022.2.4,None,
3,PRED,12,0.6850590835942414,2,images/picture_3.png,images/picture_1.png,0,"[-11.733433509789462, 11.733433509789464]",-11.733433509789462,11.733433509789464,images/picture_2.png,1,"[11.733433509789464, 11.733433509789462]",11.733433509789464,11.733433509789462,images/picture_3.png,2,"[11.733433509789462, -11.733433509789466]",11.733433509789462,-11.733433509789464,0,1,1,0.6850590835942414,1.6850590835942414,1.3149409164057586,3.0,1,1.4350590835942414,0,4.0,3.0,1,2,0,0,0,0,0,5,5,3,,,,,,,304.8628442080226,304.8628442080226,305.87701204098994,306.31028362497455,306.52872887498233,306.52872887498233,306.52872887498233,307.8432607499999,307.8432607499999,307.8432607499999,307.8432607499999,308.86203858297085,200007,001,2023-04-11_08h39.15.080,DMS_et_12-36,2022.2.4,None,
7,PRED,12,0.6850590835942414,2,images/picture_3.png,images/picture_1.png,0,"[11.733433509789462, -11.733433509789466]",11.733433509789462,-11.733433509789464,images/picture_2.png,1,"[-11.733433509789466, -11.733433509789462]",-11.733433509789464,-11.733433509789462,images/picture_3.png,2,"[11.733433509789464, 11.733433509789462]",11.733433509789464,11.733433509789462,0,1,1,0.6850590835942414,1.6850590835942414,1.3149409164057586,3.0,1,1.4350590835942414,0,4.0,3.0,1,2,0,0,0,0,0,6,6,7,,,,,,,308.86203858297085,308.86203858297085,309.87685095798224,310.3103621249902,310.52969574998133,310.52969574998133,310.52969574998133,311.8437816660153,311.8437816660153,311.8437816660153,311.8437816660153,312.8624573330162,200007,001,2023-04-11_08h39.15.080,DMS_et_12-36,2022.2.4,None,
1,PRED,12,0.6850590835942414,2,images/picture_3.png,images/picture_1.png,0,"[-11.733433509789466, -11.733433509789462]",-11.733433509789464,-11.733433509789462,images/picture_2.png,1,"[11.733433509789464, 11.733433509789462]",11.733433509789464,11.733433509789462,images/picture_3.png,2,"[-11.733433509789462, 11.733433509789464]",-11.733433509789462,11.733433509789464,0,1,1,0.6850590835942414,1.6850590835942414,1.3149409164057586,3.0,1,1.4350590835942414,0,4.0,3.0,1,2,0,0,0,0,0,7,7,1,,,,,,,312.8624573330162,312.8624573330162,313.87704325001687,314.3101536660106,314.52964670798974,314.52964670798974,314.52964670798974,315.84358975000214,315.84358975000214,315.84358975000214,315.84358975000214,316.86228637502063,200007,001,2023-04-11_08h39.15.080,DMS_et_12-36,2022.2.4,None,
2,PRED,12,0.6850590835942414,2,images/picture_3.png,images/picture_1.png,0,"[11.733433509789462, -11.733433509789466]",11.733433509789462,-11.733433509789464,images/picture_2.png,1,"[11.733433509789464, 11.733433509789462]",11.733433509789464,11.733433509789462,images/picture_3.png,2,"[-11.733433509789466, -11.733433509789462]",-11.733433509789464,-11.733433509789462,0,1,1,0.6850590835942414,1.6850590835942414,1.3149409164057586,3.0,1,1.4350590835942414,0,4.0,3.0,1,2,0,0,0,0,0,8,8,2,,,,,,,316.86228637502063,316.86228637502063,317.87668408302125,318.3100912909722,318.52900008298457,318.52900008298457,318.52900008298457,319.84373633301584,319.84373633301584,319.84373633301584,319.84373633301584,320.8674388329964,200007,001,2023-04-11_08h39.15.080,DMS_et_12-36,2022.2.4,None,
,,,,,,,,,,,,,,,,,,,,,,,,,,,,,,,,,,,0,0,0,0,,,,,,,,,320.8674388329964,332.9003261660109,,,,,,,,,,,,,200007,001,2023-04-11_08h39.15.080,DMS_et_12-36,2022.2.4,None,
16,UNPRED,12,0.6850590835942414,2,images/picture_3.png,images/picture_1.png,0,"[-11.733433509789462, 11.733433509789464]",-11.733433509789462,11.733433509789464,images/picture_2.png,1,"[11.733433509789462, -11.733433509789466]",11.733433509789462,-11.733433509789464,images/picture_3.png,2,"[-11.733433509789466, -11.733433509789462]",-11.733433509789464,-11.733433509789462,0,1,1,0.6850590835942414,1.6850590835942414,1.3149409164057586,3.0,1,1.4350590835942414,0,4.0,3.0,1,2,1,0,1,0,0,0,0,7,,,,,,,332.9003261660109,332.9003261660109,333.9107446660055,334.3437758749933,334.57708858296974,334.57708858296974,334.57708858296974,335.8960592080257,335.8960592080257,335.8960592080257,335.8960592080257,336.92983854102204,200007,001,2023-04-11_08h39.15.080,DMS_et_12-36,2022.2.4,None,
15,UNPRED,12,0.6850590835942414,1,images/picture_2.png,images/picture_1.png,0,"[-11.733433509789462, 11.733433509789464]",-11.733433509789462,11.733433509789464,images/picture_2.png,1,"[11.733433509789464, 11.733433509789462]",11.733433509789464,11.733433509789462,images/picture_3.png,2,"[11.733433509789462, -11.733433509789466]",11.733433509789462,-11.733433509789464,0,1,1,0.6850590835942414,1.6850590835942414,1.3149409164057586,3.0,1,1.4350590835942414,0,4.0,3.0,1,2,1,0,1,0,0,1,1,6,,,,,,,336.92983854102204,336.92983854102204,337.94358858297346,338.37674629100366,338.59573562501464,338.59573562501464,338.59573562501464,339.9103272909997,339.9103272909997,339.9103272909997,339.9103272909997,340.9098340829951,200007,001,2023-04-11_08h39.15.080,DMS_et_12-36,2022.2.4,None,
17,UNPRED,12,0.6850590835942414,1,images/picture_2.png,images/picture_1.png,0,"[11.733433509789462, -11.733433509789466]",11.733433509789462,-11.733433509789464,images/picture_2.png,1,"[-11.733433509789466, -11.733433509789462]",-11.733433509789464,-11.733433509789462,images/picture_3.png,2,"[-11.733433509789462, 11.733433509789464]",-11.733433509789462,11.733433509789464,0,1,1,0.6850590835942414,1.6850590835942414,1.3149409164057586,3.0,1,1.4350590835942414,0,4.0,3.0,1,2,1,0,1,0,0,2,2,8,,,,,,,340.9098340829951,340.9098340829951,341.9103287499747,342.3437822079868,342.5960635410156,342.5960635410156,342.5960635410156,343.91035570797976,343.91035570797976,343.91035570797976,343.91035570797976,344.91015691601206,200007,001,2023-04-11_08h39.15.080,DMS_et_12-36,2022.2.4,None,
14,UNPRED,12,0.6850590835942414,0,images/picture_1.png,images/picture_1.png,0,"[-11.733433509789462, 11.733433509789464]",-11.733433509789462,11.733433509789464,images/picture_2.png,1,"[-11.733433509789466, -11.733433509789462]",-11.733433509789464,-11.733433509789462,images/picture_3.png,2,"[11.733433509789462, -11.733433509789466]",11.733433509789462,-11.733433509789464,0,1,1,0.6850590835942414,1.6850590835942414,1.3149409164057586,3.0,1,1.4350590835942414,0,4.0,3.0,1,2,1,0,1,0,0,3,3,5,,,,,,,344.91015691601206,344.91015691601206,345.9104364999803,346.34380433300976,346.59654558298644,346.59654558298644,346.59654558298644,347.9105456250254,347.9105456250254,347.9105456250254,347.9105456250254,348.9100585409906,200007,001,2023-04-11_08h39.15.080,DMS_et_12-36,2022.2.4,None,
11,UNPRED,12,0.6850590835942414,1,images/picture_2.png,images/picture_1.png,0,"[11.733433509789464, 11.733433509789462]",11.733433509789464,11.733433509789462,images/picture_2.png,1,"[-11.733433509789462, 11.733433509789464]",-11.733433509789462,11.733433509789464,images/picture_3.png,2,"[11.733433509789462, -11.733433509789466]",11.733433509789462,-11.733433509789464,0,1,1,0.6850590835942414,1.6850590835942414,1.3149409164057586,3.0,1,1.4350590835942414,0,4.0,3.0,1,2,1,0,1,0,0,4,4,2,,,,,,,348.9100585409906,348.9100585409906,349.9104597910191,350.3438346660114,350.5965130000259,350.5965130000259,350.5965130000259,351.91033129097195,351.91033129097195,351.91033129097195,351.91033129097195,352.9098338750191,200007,001,2023-04-11_08h39.15.080,DMS_et_12-36,2022.2.4,None,
10,UNPRED,12,0.6850590835942414,0,images/picture_1.png,images/picture_1.png,0,"[-11.733433509789466, -11.733433509789462]",-11.733433509789464,-11.733433509789462,images/picture_2.png,1,"[11.733433509789462, -11.733433509789466]",11.733433509789462,-11.733433509789464,images/picture_3.png,2,"[11.733433509789464, 11.733433509789462]",11.733433509789464,11.733433509789462,0,1,1,0.6850590835942414,1.6850590835942414,1.3149409164057586,3.0,1,1.4350590835942414,0,4.0,3.0,1,2,1,0,1,0,0,5,5,1,,,,,,,352.9098338750191,352.9098338750191,353.9105742080137,354.34381175000453,354.5964676250005,354.5964676250005,354.5964676250005,355.91055687499465,355.91055687499465,355.91055687499465,355.91055687499465,356.910101165995,200007,001,2023-04-11_08h39.15.080,DMS_et_12-36,2022.2.4,None,
12,UNPRED,12,0.6850590835942414,0,images/picture_1.png,images/picture_1.png,0,"[11.733433509789464, 11.733433509789462]",11.733433509789464,11.733433509789462,images/picture_2.png,1,"[11.733433509789462, -11.733433509789466]",11.733433509789462,-11.733433509789464,images/picture_3.png,2,"[-11.733433509789462, 11.733433509789464]",-11.733433509789462,11.733433509789464,0,1,1,0.6850590835942414,1.6850590835942414,1.3149409164057586,3.0,1,1.4350590835942414,0,4.0,3.0,1,2,1,0,1,0,0,6,6,3,,,,,,,356.910101165995,356.910101165995,357.9103615829954,358.34380629099905,358.5953838750138,358.5953838750138,358.5953838750138,359.91022887500003,359.91022887500003,359.91022887500003,359.91022887500003,360.90974941599416,200007,001,2023-04-11_08h39.15.080,DMS_et_12-36,2022.2.4,None,
13,UNPRED,12,0.6850590835942414,1,images/picture_2.png,images/picture_1.png,0,"[-11.733433509789462, 11.733433509789464]",-11.733433509789462,11.733433509789464,images/picture_2.png,1,"[-11.733433509789466, -11.733433509789462]",-11.733433509789464,-11.733433509789462,images/picture_3.png,2,"[11.733433509789462, -11.733433509789466]",11.733433509789462,-11.733433509789464,0,1,1,0.6850590835942414,1.6850590835942414,1.3149409164057586,3.0,1,1.4350590835942414,0,4.0,3.0,1,2,1,0,1,0,0,7,7,4,,,,,,,360.90974941599416,360.90974941599416,361.9105758750229,362.3438194160117,362.5966291659861,362.5966291659861,362.5966291659861,363.9105993330013,363.9105993330013,363.9105993330013,363.9105993330013,364.9099067079951,200007,001,2023-04-11_08h39.15.080,DMS_et_12-36,2022.2.4,None,
9,UNPRED,12,0.6850590835942414,1,images/picture_2.png,images/picture_1.png,0,"[11.733433509789464, 11.733433509789462]",11.733433509789464,11.733433509789462,images/picture_2.png,1,"[11.733433509789462, -11.733433509789466]",11.733433509789462,-11.733433509789464,images/picture_3.png,2,"[-11.733433509789462, 11.733433509789464]",-11.733433509789462,11.733433509789464,0,1,1,0.6850590835942414,1.6850590835942414,1.3149409164057586,3.0,1,1.4350590835942414,0,4.0,3.0,1,2,1,0,1,0,0,8,8,0,,,,,,,364.9099067079951,364.9099067079951,365.91055108298315,366.34404687501956,366.5959825409809,366.5959825409809,366.5959825409809,367.9105439159903,367.9105439159903,367.9105439159903,367.9105439159903,368.93059141602134,200007,001,2023-04-11_08h39.15.080,DMS_et_12-36,2022.2.4,None,
,,,,,,,,,,,,,,,,,,,,,,,,,,,,,,,,,,,1,0,1,0,,,,,,,,,368.93059141602134,380.97523183299927,,,,,,,,,,,,,200007,001,2023-04-11_08h39.15.080,DMS_et_12-36,2022.2.4,None,
19,PRED,12,0.6850590835942414,2,images/picture_3.png,images/picture_1.png,0,"[-11.733433509789462, 11.733433509789464]",-11.733433509789462,11.733433509789464,images/picture_2.png,1,"[11.733433509789462, -11.733433509789466]",11.733433509789462,-11.733433509789464,images/picture_3.png,2,"[11.733433509789464, 11.733433509789462]",11.733433509789464,11.733433509789462,0,1,1,0.6850590835942414,1.6850590835942414,1.3149409164057586,3.0,1,1.4350590835942414,0,4.0,3.0,1,2,2,0,2,0,0,0,0,1,,,,,,,380.97523183299927,380.97523183299927,381.9772897909861,382.41057962499326,382.64382062497316,382.64382062497316,382.64382062497316,383.96355245797895,383.96355245797895,383.96355245797895,383.96355245797895,384.99599224998383,200007,001,2023-04-11_08h39.15.080,DMS_et_12-36,2022.2.4,None,
21,PRED,12,0.6850590835942414,2,images/picture_3.png,images/picture_1.png,0,"[-11.733433509789462, 11.733433509789464]",-11.733433509789462,11.733433509789464,images/picture_2.png,1,"[11.733433509789462, -11.733433509789466]",11.733433509789462,-11.733433509789464,images/picture_3.png,2,"[-11.733433509789466, -11.733433509789462]",-11.733433509789464,-11.733433509789462,0,1,1,0.6850590835942414,1.6850590835942414,1.3149409164057586,3.0,1,1.4350590835942414,0,4.0,3.0,1,2,2,0,2,0,0,1,1,3,,,,,,,384.99599224998383,384.99599224998383,386.0106037079822,386.44387825002195,386.6630144160008,386.6630144160008,386.6630144160008,387.97716524999123,387.97716524999123,387.97716524999123,387.97716524999123,388.995800958015,200007,001,2023-04-11_08h39.15.080,DMS_et_12-36,2022.2.4,None,
23,PRED,12,0.6850590835942414,2,images/picture_3.png,images/picture_1.png,0,"[-11.733433509789462, 11.733433509789464]",-11.733433509789462,11.733433509789464,images/picture_2.png,1,"[-11.733433509789466, -11.733433509789462]",-11.733433509789464,-11.733433509789462,images/picture_3.png,2,"[11.733433509789464, 11.733433509789462]",11.733433509789464,11.733433509789462,0,1,1,0.6850590835942414,1.6850590835942414,1.3149409164057586,3.0,1,1.4350590835942414,0,4.0,3.0,1,2,2,0,2,0,0,2,2,5,,,,,,,388.995800958015,388.995800958015,390.01072829100303,390.44387875002576,390.6627982080099,390.6627982080099,390.6627982080099,391.9773199579795,391.9773199579795,391.9773199579795,391.9773199579795,392.9968331659911,200007,001,2023-04-11_08h39.15.080,DMS_et_12-36,2022.2.4,None,
18,PRED,12,0.6850590835942414,2,images/picture_3.png,images/picture_1.png,0,"[-11.733433509789462, 11.733433509789464]",-11.733433509789462,11.733433509789464,images/picture_2.png,1,"[-11.733433509789466, -11.733433509789462]",-11.733433509789464,-11.733433509789462,images/picture_3.png,2,"[11.733433509789464, 11.733433509789462]",11.733433509789464,11.733433509789462,0,1,1,0.6850590835942414,1.6850590835942414,1.3149409164057586,3.0,1,1.4350590835942414,0,4.0,3.0,1,2,2,0,2,0,0,3,3,0,,,,,,,392.9968331659911,392.9968331659911,394.0105759999715,394.44402433297364,394.66341545799514,394.66341545799514,394.66341545799514,395.9773330829921,395.9773330829921,395.9773330829921,395.9773330829921,396.9965973329963,200007,001,2023-04-11_08h39.15.080,DMS_et_12-36,2022.2.4,None,
24,PRED,12,0.6850590835942414,2,images/picture_3.png,images/picture_1.png,0,"[11.733433509789464, 11.733433509789462]",11.733433509789464,11.733433509789462,images/picture_2.png,1,"[-11.733433509789466, -11.733433509789462]",-11.733433509789464,-11.733433509789462,images/picture_3.png,2,"[-11.733433509789462, 11.733433509789464]",-11.733433509789462,11.733433509789464,0,1,1,0.6850590835942414,1.6850590835942414,1.3149409164057586,3.0,1,1.4350590835942414,0,4.0,3.0,1,2,2,0,2,0,0,4,4,6,,,,,,,396.9965973329963,396.9965973329963,398.0107930409722,398.44387508300133,398.6634436249733,398.6634436249733,398.6634436249733,399.9769632910029,399.9769632910029,399.9769632910029,399.9769632910029,400.9964445409714,200007,001,2023-04-11_08h39.15.080,DMS_et_12-36,2022.2.4,None,
26,PRED,12,0.6850590835942414,2,images/picture_3.png,images/picture_1.png,0,"[-11.733433509789466, -11.733433509789462]",-11.733433509789464,-11.733433509789462,images/picture_2.png,1,"[11.733433509789464, 11.733433509789462]",11.733433509789464,11.733433509789462,images/picture_3.png,2,"[11.733433509789462, -11.733433509789466]",11.733433509789462,-11.733433509789464,0,1,1,0.6850590835942414,1.6850590835942414,1.3149409164057586,3.0,1,1.4350590835942414,0,4.0,3.0,1,2,2,0,2,0,0,5,5,8,,,,,,,400.9964445409714,400.9964445409714,402.01053941599093,402.4438387079863,402.6631723329774,402.6631723329774,402.6631723329774,403.9773599160253,403.9773599160253,403.9773599160253,403.9773599160253,404.99655120802345,200007,001,2023-04-11_08h39.15.080,DMS_et_12-36,2022.2.4,None,
20,PRED,12,0.6850590835942414,2,images/picture_3.png,images/picture_1.png,0,"[-11.733433509789466, -11.733433509789462]",-11.733433509789464,-11.733433509789462,images/picture_2.png,1,"[11.733433509789462, -11.733433509789466]",11.733433509789462,-11.733433509789464,images/picture_3.png,2,"[-11.733433509789462, 11.733433509789464]",-11.733433509789462,11.733433509789464,0,1,1,0.6850590835942414,1.6850590835942414,1.3149409164057586,3.0,1,1.4350590835942414,0,4.0,3.0,1,2,2,0,2,0,0,6,6,2,,,,,,,404.99655120802345,404.99655120802345,406.0106331249699,406.44416174996877,406.6631887499825,406.6631887499825,406.6631887499825,407.9773425000021,407.9773425000021,407.9773425000021,407.9773425000021,408.99598991597304,200007,001,2023-04-11_08h39.15.080,DMS_et_12-36,2022.2.4,None,
25,PRED,12,0.6850590835942414,2,images/picture_3.png,images/picture_1.png,0,"[-11.733433509789462, 11.733433509789464]",-11.733433509789462,11.733433509789464,images/picture_2.png,1,"[-11.733433509789466, -11.733433509789462]",-11.733433509789464,-11.733433509789462,images/picture_3.png,2,"[11.733433509789464, 11.733433509789462]",11.733433509789464,11.733433509789462,0,1,1,0.6850590835942414,1.6850590835942414,1.3149409164057586,3.0,1,1.4350590835942414,0,4.0,3.0,1,2,2,0,2,0,0,7,7,7,,,,,,,408.99598991597304,408.99598991597304,410.0104024580214,410.4437001249753,410.66250274999766,410.66250274999766,410.66250274999766,411.9773127500084,411.9773127500084,411.9773127500084,411.9773127500084,412.996324540989,200007,001,2023-04-11_08h39.15.080,DMS_et_12-36,2022.2.4,None,
22,PRED,12,0.6850590835942414,2,images/picture_3.png,images/picture_1.png,0,"[11.733433509789464, 11.733433509789462]",11.733433509789464,11.733433509789462,images/picture_2.png,1,"[-11.733433509789466, -11.733433509789462]",-11.733433509789464,-11.733433509789462,images/picture_3.png,2,"[-11.733433509789462, 11.733433509789464]",-11.733433509789462,11.733433509789464,0,1,1,0.6850590835942414,1.6850590835942414,1.3149409164057586,3.0,1,1.4350590835942414,0,4.0,3.0,1,2,2,0,2,0,0,8,8,4,,,,,,,412.996324540989,412.996324540989,414.0106227080105,414.4440677909879,414.66312283300795,414.66312283300795,414.66312283300795,415.9773854580126,415.9773854580126,415.9773854580126,415.9773854580126,417.0187804159941,200007,001,2023-04-11_08h39.15.080,DMS_et_12-36,2022.2.4,None,
,,,,,,,,,,,,,,,,,,,,,,,,,,,,,,,,,,,2,0,2,0,,,,,,,,,417.0187804159941,429.04359374998603,,,,,,,,,,,,,200007,001,2023-04-11_08h39.15.080,DMS_et_12-36,2022.2.4,None,
31,UNPRED,12,0.6850590835942414,0,images/picture_1.png,images/picture_1.png,0,"[-11.733433509789462, 11.733433509789464]",-11.733433509789462,11.733433509789464,images/picture_2.png,1,"[11.733433509789462, -11.733433509789466]",11.733433509789462,-11.733433509789464,images/picture_3.png,2,"[11.733433509789464, 11.733433509789462]",11.733433509789464,11.733433509789462,0,1,1,0.6850590835942414,1.6850590835942414,1.3149409164057586,3.0,1,1.4350590835942414,0,4.0,3.0,1,2,3,0,3,0,0,0,0,4,,,,,,,429.04359374998603,429.04359374998603,430.0441480000154,430.47723741602385,430.729097708012,430.729097708012,430.729097708012,432.04417370801093,432.04417370801093,432.04417370801093,432.04417370801093,433.04329591599526,200007,001,2023-04-11_08h39.15.080,DMS_et_12-36,2022.2.4,None,
27,UNPRED,12,0.6850590835942414,1,images/picture_2.png,images/picture_1.png,0,"[11.733433509789464, 11.733433509789462]",11.733433509789464,11.733433509789462,images/picture_2.png,1,"[-11.733433509789466, -11.733433509789462]",-11.733433509789464,-11.733433509789462,images/picture_3.png,2,"[11.733433509789462, -11.733433509789466]",11.733433509789462,-11.733433509789464,0,1,1,0.6850590835942414,1.6850590835942414,1.3149409164057586,3.0,1,1.4350590835942414,0,4.0,3.0,1,2,3,0,3,0,0,1,1,0,,,,,,,433.04329591599526,433.04329591599526,434.04421320802066,434.47734037501505,434.72987320797984,434.72987320797984,434.72987320797984,436.044091208023,436.044091208023,436.044091208023,436.044091208023,437.04354620800586,200007,001,2023-04-11_08h39.15.080,DMS_et_12-36,2022.2.4,None,
28,UNPRED,12,0.6850590835942414,0,images/picture_1.png,images/picture_1.png,0,"[11.733433509789462, -11.733433509789466]",11.733433509789462,-11.733433509789464,images/picture_2.png,1,"[-11.733433509789466, -11.733433509789462]",-11.733433509789464,-11.733433509789462,images/picture_3.png,2,"[11.733433509789464, 11.733433509789462]",11.733433509789464,11.733433509789462,0,1,1,0.6850590835942414,1.6850590835942414,1.3149409164057586,3.0,1,1.4350590835942414,0,4.0,3.0,1,2,3,0,3,0,0,2,2,1,,,,,,,437.04354620800586,437.04354620800586,438.0441770409816,438.47750879102387,438.73039974999847,438.73039974999847,438.73039974999847,440.0440442080144,440.0440442080144,440.0440442080144,440.0440442080144,441.0438121659681,200007,001,2023-04-11_08h39.15.080,DMS_et_12-36,2022.2.4,None,
30,UNPRED,12,0.6850590835942414,1,images/picture_2.png,images/picture_1.png,0,"[-11.733433509789466, -11.733433509789462]",-11.733433509789464,-11.733433509789462,images/picture_2.png,1,"[-11.733433509789462, 11.733433509789464]",-11.733433509789462,11.733433509789464,images/picture_3.png,2,"[11.733433509789464, 11.733433509789462]",11.733433509789464,11.733433509789462,0,1,1,0.6850590835942414,1.6850590835942414,1.3149409164057586,3.0,1,1.4350590835942414,0,4.0,3.0,1,2,3,0,3,0,0,3,3,3,,,,,,,441.0438121659681,441.0438121659681,442.0442309579812,442.4776609580149,442.73009358299896,442.73009358299896,442.73009358299896,444.0441514159902,444.0441514159902,444.0441514159902,444.0441514159902,445.04362458299147,200007,001,2023-04-11_08h39.15.080,DMS_et_12-36,2022.2.4,None,
35,UNPRED,12,0.6850590835942414,1,images/picture_2.png,images/picture_1.png,0,"[11.733433509789462, -11.733433509789466]",11.733433509789462,-11.733433509789464,images/picture_2.png,1,"[-11.733433509789462, 11.733433509789464]",-11.733433509789462,11.733433509789464,images/picture_3.png,2,"[11.733433509789464, 11.733433509789462]",11.733433509789464,11.733433509789462,0,1,1,0.6850590835942414,1.6850590835942414,1.3149409164057586,3.0,1,1.4350590835942414,0,4.0,3.0,1,2,3,0,3,0,0,4,4,8,,,,,,,445.04362458299147,445.04362458299147,446.0441121250042,446.47759608301567,446.729933249997,446.729933249997,446.729933249997,448.0441477500135,448.0441477500135,448.0441477500135,448.0441477500135,449.04353458300466,200007,001,2023-04-11_08h39.15.080,DMS_et_12-36,2022.2.4,None,
29,UNPRED,12,0.6850590835942414,0,images/picture_1.png,images/picture_1.png,0,"[11.733433509789464, 11.733433509789462]",11.733433509789464,11.733433509789462,images/picture_2.png,1,"[-11.733433509789466, -11.733433509789462]",-11.733433509789464,-11.733433509789462,images/picture_3.png,2,"[11.733433509789462, -11.733433509789466]",11.733433509789462,-11.733433509789464,0,1,1,0.6850590835942414,1.6850590835942414,1.3149409164057586,3.0,1,1.4350590835942414,0,4.0,3.0,1,2,3,0,3,0,0,5,5,2,,,,,,,449.04353458300466,449.04353458300466,450.0441097909934,450.47736629098654,450.73010174999945,450.73010174999945,450.73010174999945,452.04398775001755,452.04398775001755,452.04398775001755,452.04398775001755,453.04346687498037,200007,001,2023-04-11_08h39.15.080,DMS_et_12-36,2022.2.4,None,
34,UNPRED,12,0.6850590835942414,1,images/picture_2.png,images/picture_1.png,0,"[-11.733433509789462, 11.733433509789464]",-11.733433509789462,11.733433509789464,images/picture_2.png,1,"[11.733433509789462, -11.733433509789466]",11.733433509789462,-11.733433509789464,images/picture_3.png,2,"[-11.733433509789466, -11.733433509789462]",-11.733433509789464,-11.733433509789462,0,1,1,0.6850590835942414,1.6850590835942414,1.3149409164057586,3.0,1,1.4350590835942414,0,4.0,3.0,1,2,3,0,3,0,0,6,6,7,,,,,,,453.04346687498037,453.04346687498037,454.0441017909907,454.47751624998637,454.7299914159812,454.7299914159812,454.7299914159812,456.0441110000247,456.0441110000247,456.0441110000247,456.0441110000247,457.06309241597774,200007,001,2023-04-11_08h39.15.080,DMS_et_12-36,2022.2.4,None,
32,UNPRED,12,0.6850590835942414,2,images/picture_3.png,images/picture_1.png,0,"[-11.733433509789462, 11.733433509789464]",-11.733433509789462,11.733433509789464,images/picture_2.png,1,"[-11.733433509789466, -11.733433509789462]",-11.733433509789464,-11.733433509789462,images/picture_3.png,2,"[11.733433509789462, -11.733433509789466]",11.733433509789462,-11.733433509789464,0,1,1,0.6850590835942414,1.6850590835942414,1.3149409164057586,3.0,1,1.4350590835942414,0,4.0,3.0,1,2,3,0,3,0,0,7,7,5,,,,,,,457.06309241597774,457.06309241597774,458.0775920409942,458.5107772909687,458.7298365830211,458.7298365830211,458.7298365830211,460.04431062500225,460.04431062500225,460.04431062500225,460.04431062500225,461.0437129159691,200007,001,2023-04-11_08h39.15.080,DMS_et_12-36,2022.2.4,None,
33,UNPRED,12,0.6850590835942414,0,images/picture_1.png,images/picture_1.png,0,"[-11.733433509789466, -11.733433509789462]",-11.733433509789464,-11.733433509789462,images/picture_2.png,1,"[-11.733433509789462, 11.733433509789464]",-11.733433509789462,11.733433509789464,images/picture_3.png,2,"[11.733433509789462, -11.733433509789466]",11.733433509789462,-11.733433509789464,0,1,1,0.6850590835942414,1.6850590835942414,1.3149409164057586,3.0,1,1.4350590835942414,0,4.0,3.0,1,2,3,0,3,0,0,8,8,6,,,,,,,461.0437129159691,461.0437129159691,462.04392824997194,462.47735733300215,462.7299945409759,462.7299945409759,462.7299945409759,464.0443267910159,464.0443267910159,464.0443267910159,464.0443267910159,465.1016472079791,200007,001,2023-04-11_08h39.15.080,DMS_et_12-36,2022.2.4,None,
,,,,,,,,,,,,,,,,,,,,,,,,,,,,,,,,,,,3,0,3,0,,,,,,,,,465.1016472079791,477.129769666004,,,,,,,,,,,,,200007,001,2023-04-11_08h39.15.080,DMS_et_12-36,2022.2.4,None,
38,PRED,12,0.6850590835942414,0,images/picture_1.png,images/picture_1.png,0,"[11.733433509789462, -11.733433509789466]",11.733433509789462,-11.733433509789464,images/picture_2.png,1,"[-11.733433509789466, -11.733433509789462]",-11.733433509789464,-11.733433509789462,images/picture_3.png,2,"[-11.733433509789462, 11.733433509789464]",-11.733433509789462,11.733433509789464,0,1,1,0.6850590835942414,1.6850590835942414,1.3149409164057586,3.0,1,1.4350590835942414,0,4.0,3.0,1,2,4,0,4,0,0,0,0,2,,,,,,,477.129769666004,477.129769666004,478.1441438330221,478.57757133297855,478.810873874987,478.810873874987,478.810873874987,480.1301514999941,480.1301514999941,480.1301514999941,480.1301514999941,481.1439443330164,200007,001,2023-04-11_08h39.15.080,DMS_et_12-36,2022.2.4,None,
39,PRED,12,0.6850590835942414,0,images/picture_1.png,images/picture_1.png,0,"[11.733433509789462, -11.733433509789466]",11.733433509789462,-11.733433509789464,images/picture_2.png,1,"[11.733433509789464, 11.733433509789462]",11.733433509789464,11.733433509789462,images/picture_3.png,2,"[-11.733433509789466, -11.733433509789462]",-11.733433509789464,-11.733433509789462,0,1,1,0.6850590835942414,1.6850590835942414,1.3149409164057586,3.0,1,1.4350590835942414,0,4.0,3.0,1,2,4,0,4,0,0,1,1,3,,,,,,,481.1439443330164,481.1439443330164,482.1440289579914,482.57720887498,482.8294986659894,482.8294986659894,482.8294986659894,484.14432629098883,484.14432629098883,484.14432629098883,484.14432629098883,485.14366804098245,200007,001,2023-04-11_08h39.15.080,DMS_et_12-36,2022.2.4,None,
37,PRED,12,0.6850590835942414,0,images/picture_1.png,images/picture_1.png,0,"[11.733433509789464, 11.733433509789462]",11.733433509789464,11.733433509789462,images/picture_2.png,1,"[-11.733433509789462, 11.733433509789464]",-11.733433509789462,11.733433509789464,images/picture_3.png,2,"[11.733433509789462, -11.733433509789466]",11.733433509789462,-11.733433509789464,0,1,1,0.6850590835942414,1.6850590835942414,1.3149409164057586,3.0,1,1.4350590835942414,0,4.0,3.0,1,2,4,0,4,0,0,2,2,1,,,,,,,485.14366804098245,485.14366804098245,486.14434100000653,486.57757783296984,486.83030295796925,486.83030295796925,486.83030295796925,488.144287040981,488.144287040981,488.144287040981,488.144287040981,489.143974333012,200007,001,2023-04-11_08h39.15.080,DMS_et_12-36,2022.2.4,None,
40,PRED,12,0.6850590835942414,0,images/picture_1.png,images/picture_1.png,0,"[11.733433509789462, -11.733433509789466]",11.733433509789462,-11.733433509789464,images/picture_2.png,1,"[-11.733433509789462, 11.733433509789464]",-11.733433509789462,11.733433509789464,images/picture_3.png,2,"[11.733433509789464, 11.733433509789462]",11.733433509789464,11.733433509789462,0,1,1,0.6850590835942414,1.6850590835942414,1.3149409164057586,3.0,1,1.4350590835942414,0,4.0,3.0,1,2,4,0,4,0,0,3,3,4,,,,,,,489.143974333012,489.143974333012,490.14429483300773,490.57756991597125,490.83026158297434,490.83026158297434,490.83026158297434,492.14402454101946,492.14402454101946,492.14402454101946,492.14402454101946,493.14399349997984,200007,001,2023-04-11_08h39.15.080,DMS_et_12-36,2022.2.4,None,
44,PRED,12,0.6850590835942414,0,images/picture_1.png,images/picture_1.png,0,"[11.733433509789462, -11.733433509789466]",11.733433509789462,-11.733433509789464,images/picture_2.png,1,"[-11.733433509789462, 11.733433509789464]",-11.733433509789462,11.733433509789464,images/picture_3.png,2,"[-11.733433509789466, -11.733433509789462]",-11.733433509789464,-11.733433509789462,0,1,1,0.6850590835942414,1.6850590835942414,1.3149409164057586,3.0,1,1.4350590835942414,0,4.0,3.0,1,2,4,0,4,0,0,4,4,8,,,,,,,493.14399349997984,493.14399349997984,494.14434879098553,494.57761237502564,494.8300985000096,494.8300985000096,494.8300985000096,496.1443742910051,496.1443742910051,496.1443742910051,496.1443742910051,497.1437786659808,200007,001,2023-04-11_08h39.15.080,DMS_et_12-36,2022.2.4,None,
41,PRED,12,0.6850590835942414,0,images/picture_1.png,images/picture_1.png,0,"[-11.733433509789466, -11.733433509789462]",-11.733433509789464,-11.733433509789462,images/picture_2.png,1,"[11.733433509789464, 11.733433509789462]",11.733433509789464,11.733433509789462,images/picture_3.png,2,"[11.733433509789462, -11.733433509789466]",11.733433509789462,-11.733433509789464,0,1,1,0.6850590835942414,1.6850590835942414,1.3149409164057586,3.0,1,1.4350590835942414,0,4.0,3.0,1,2,4,0,4,0,0,5,5,5,,,,,,,497.1437786659808,497.1437786659808,498.1442890409962,498.57760858297115,498.8302060830174,498.8302060830174,498.8302060830174,500.1443462499883,500.1443462499883,500.1443462499883,500.1443462499883,501.14410745800706,200007,001,2023-04-11_08h39.15.080,DMS_et_12-36,2022.2.4,None,
42,PRED,12,0.6850590835942414,0,images/picture_1.png,images/picture_1.png,0,"[11.733433509789462, -11.733433509789466]",11.733433509789462,-11.733433509789464,images/picture_2.png,1,"[-11.733433509789462, 11.733433509789464]",-11.733433509789462,11.733433509789464,images/picture_3.png,2,"[-11.733433509789466, -11.733433509789462]",-11.733433509789464,-11.733433509789462,0,1,1,0.6850590835942414,1.6850590835942414,1.3149409164057586,3.0,1,1.4350590835942414,0,4.0,3.0,1,2,4,0,4,0,0,6,6,6,,,,,,,501.14410745800706,501.14410745800706,502.1443817500258,502.57748666597763,502.82970733300317,502.82970733300317,502.82970733300317,504.1444788330118,504.1444788330118,504.1444788330118,504.1444788330118,505.1438347080257,200007,001,2023-04-11_08h39.15.080,DMS_et_12-36,2022.2.4,None,
36,PRED,12,0.6850590835942414,0,images/picture_1.png,images/picture_1.png,0,"[-11.733433509789466, -11.733433509789462]",-11.733433509789464,-11.733433509789462,images/picture_2.png,1,"[11.733433509789462, -11.733433509789466]",11.733433509789462,-11.733433509789464,images/picture_3.png,2,"[11.733433509789464, 11.733433509789462]",11.733433509789464,11.733433509789462,0,1,1,0.6850590835942414,1.6850590835942414,1.3149409164057586,3.0,1,1.4350590835942414,0,4.0,3.0,1,2,4,0,4,0,0,7,7,0,,,,,,,505.1438347080257,505.1438347080257,506.144339749997,506.5777874159976,506.83042895799736,506.83042895799736,506.83042895799736,508.14441720797913,508.14441720797913,508.14441720797913,508.14441720797913,509.14373408298707,200007,001,2023-04-11_08h39.15.080,DMS_et_12-36,2022.2.4,None,
43,PRED,12,0.6850590835942414,0,images/picture_1.png,images/picture_1.png,0,"[-11.733433509789462, 11.733433509789464]",-11.733433509789462,11.733433509789464,images/picture_2.png,1,"[11.733433509789464, 11.733433509789462]",11.733433509789464,11.733433509789462,images/picture_3.png,2,"[11.733433509789462, -11.733433509789466]",11.733433509789462,-11.733433509789464,0,1,1,0.6850590835942414,1.6850590835942414,1.3149409164057586,3.0,1,1.4350590835942414,0,4.0,3.0,1,2,4,0,4,0,0,8,8,7,,,,,,,509.14373408298707,509.14373408298707,510.14441775000887,510.5778190830024,510.8304152499768,510.8304152499768,510.8304152499768,512.1444115409977,512.1444115409977,512.1444115409977,512.1444115409977,513.187509957992,200007,001,2023-04-11_08h39.15.080,DMS_et_12-36,2022.2.4,None,
,,,,,,,,,,,,,,,,,,,,,,,,,,,,,,,,,,,4,0,4,0,,,,,,,,,513.187509957992,525.2112325829803,,,,,,,,,,,,,200007,001,2023-04-11_08h39.15.080,DMS_et_12-36,2022.2.4,None,
50,UNPRED,12,0.6850590835942414,0,images/picture_1.png,images/picture_1.png,0,"[-11.733433509789466, -11.733433509789462]",-11.733433509789464,-11.733433509789462,images/picture_2.png,1,"[11.733433509789462, -11.733433509789466]",11.733433509789462,-11.733433509789464,images/picture_3.png,2,"[-11.733433509789462, 11.733433509789464]",-11.733433509789462,11.733433509789464,0,1,1,0.6850590835942414,1.6850590835942414,1.3149409164057586,3.0,1,1.4350590835942414,0,4.0,3.0,1,2,5,0,5,0,0,0,0,5,,,,,,,525.2112325829803,525.2112325829803,526.2109367909725,526.6445344579988,526.8971082079806,526.8971082079806,526.8971082079806,528.2110620000167,528.2110620000167,528.2110620000167,528.2110620000167,529.2111697500222,200007,001,2023-04-11_08h39.15.080,DMS_et_12-36,2022.2.4,None,
53,UNPRED,12,0.6850590835942414,1,images/picture_2.png,images/picture_1.png,0,"[11.733433509789464, 11.733433509789462]",11.733433509789464,11.733433509789462,images/picture_2.png,1,"[-11.733433509789462, 11.733433509789464]",-11.733433509789462,11.733433509789464,images/picture_3.png,2,"[-11.733433509789466, -11.733433509789462]",-11.733433509789464,-11.733433509789462,0,1,1,0.6850590835942414,1.6850590835942414,1.3149409164057586,3.0,1,1.4350590835942414,0,4.0,3.0,1,2,5,0,5,0,0,1,1,8,,,,,,,529.2111697500222,529.2111697500222,530.2110725829843,530.6443503749906,530.8968489579856,530.8968489579856,530.8968489579856,532.211098166008,532.211098166008,532.211098166008,532.211098166008,533.2295829160139,200007,001,2023-04-11_08h39.15.080,DMS_et_12-36,2022.2.4,None,
47,UNPRED,12,0.6850590835942414,2,images/picture_3.png,images/picture_1.png,0,"[11.733433509789462, -11.733433509789466]",11.733433509789462,-11.733433509789464,images/picture_2.png,1,"[-11.733433509789466, -11.733433509789462]",-11.733433509789464,-11.733433509789462,images/picture_3.png,2,"[-11.733433509789462, 11.733433509789464]",-11.733433509789462,11.733433509789464,0,1,1,0.6850590835942414,1.6850590835942414,1.3149409164057586,3.0,1,1.4350590835942414,0,4.0,3.0,1,2,5,0,5,0,0,2,2,2,,,,,,,533.2295829160139,533.2295829160139,534.24436349998,534.6778767909855,534.8970314160106,534.8970314160106,534.8970314160106,536.2111119159963,536.2111119159963,536.2111119159963,536.2111119159963,537.2107430829783,200007,001,2023-04-11_08h39.15.080,DMS_et_12-36,2022.2.4,None,
49,UNPRED,12,0.6850590835942414,1,images/picture_2.png,images/picture_1.png,0,"[11.733433509789462, -11.733433509789466]",11.733433509789462,-11.733433509789464,images/picture_2.png,1,"[11.733433509789464, 11.733433509789462]",11.733433509789464,11.733433509789462,images/picture_3.png,2,"[-11.733433509789466, -11.733433509789462]",-11.733433509789464,-11.733433509789462,0,1,1,0.6850590835942414,1.6850590835942414,1.3149409164057586,3.0,1,1.4350590835942414,0,4.0,3.0,1,2,5,0,5,0,0,3,3,4,,,,,,,537.2107430829783,537.2107430829783,538.2111182080116,538.6445247500087,538.8975199999986,538.8975199999986,538.8975199999986,540.2110462500132,540.2110462500132,540.2110462500132,540.2110462500132,541.2106749999803,200007,001,2023-04-11_08h39.15.080,DMS_et_12-36,2022.2.4,None,
45,UNPRED,12,0.6850590835942414,1,images/picture_2.png,images/picture_1.png,0,"[11.733433509789464, 11.733433509789462]",11.733433509789464,11.733433509789462,images/picture_2.png,1,"[11.733433509789462, -11.733433509789466]",11.733433509789462,-11.733433509789464,images/picture_3.png,2,"[-11.733433509789462, 11.733433509789464]",-11.733433509789462,11.733433509789464,0,1,1,0.6850590835942414,1.6850590835942414,1.3149409164057586,3.0,1,1.4350590835942414,0,4.0,3.0,1,2,5,0,5,0,0,4,4,0,,,,,,,541.2106749999803,541.2106749999803,542.2111008330248,542.6446678750217,542.897485124995,542.897485124995,542.897485124995,544.2109001249773,544.2109001249773,544.2109001249773,544.2109001249773,545.2298284160206,200007,001,2023-04-11_08h39.15.080,DMS_et_12-36,2022.2.4,None,
46,UNPRED,12,0.6850590835942414,2,images/picture_3.png,images/picture_1.png,0,"[11.733433509789464, 11.733433509789462]",11.733433509789464,11.733433509789462,images/picture_2.png,1,"[-11.733433509789462, 11.733433509789464]",-11.733433509789462,11.733433509789464,images/picture_3.png,2,"[-11.733433509789466, -11.733433509789462]",-11.733433509789464,-11.733433509789462,0,1,1,0.6850590835942414,1.6850590835942414,1.3149409164057586,3.0,1,1.4350590835942414,0,4.0,3.0,1,2,5,0,5,0,0,5,5,1,,,,,,,545.2298284160206,545.2298284160206,546.2445436249836,546.677853583009,546.8971965829842,546.8971965829842,546.8971965829842,548.2110913749784,548.2110913749784,548.2110913749784,548.2110913749784,549.210784624971,200007,001,2023-04-11_08h39.15.080,DMS_et_12-36,2022.2.4,None,
48,UNPRED,12,0.6850590835942414,1,images/picture_2.png,images/picture_1.png,0,"[11.733433509789464, 11.733433509789462]",11.733433509789464,11.733433509789462,images/picture_2.png,1,"[-11.733433509789462, 11.733433509789464]",-11.733433509789462,11.733433509789464,images/picture_3.png,2,"[-11.733433509789466, -11.733433509789462]",-11.733433509789464,-11.733433509789462,0,1,1,0.6850590835942414,1.6850590835942414,1.3149409164057586,3.0,1,1.4350590835942414,0,4.0,3.0,1,2,5,0,5,0,0,6,6,3,,,,,,,549.210784624971,549.210784624971,550.2113590409863,550.6445656249998,550.8970646659727,550.8970646659727,550.8970646659727,552.2111578750191,552.2111578750191,552.2111578750191,552.2111578750191,553.2106213329826,200007,001,2023-04-11_08h39.15.080,DMS_et_12-36,2022.2.4,None,
51,UNPRED,12,0.6850590835942414,1,images/picture_2.png,images/picture_1.png,0,"[-11.733433509789462, 11.733433509789464]",-11.733433509789462,11.733433509789464,images/picture_2.png,1,"[11.733433509789464, 11.733433509789462]",11.733433509789464,11.733433509789462,images/picture_3.png,2,"[-11.733433509789466, -11.733433509789462]",-11.733433509789464,-11.733433509789462,0,1,1,0.6850590835942414,1.6850590835942414,1.3149409164057586,3.0,1,1.4350590835942414,0,4.0,3.0,1,2,5,0,5,0,0,7,7,6,,,,,,,553.2106213329826,553.2106213329826,554.2110135409748,554.6442688329844,554.897301250021,554.897301250021,554.897301250021,556.2113652499975,556.2113652499975,556.2113652499975,556.2113652499975,557.2298406659975,200007,001,2023-04-11_08h39.15.080,DMS_et_12-36,2022.2.4,None,
52,UNPRED,12,0.6850590835942414,2,images/picture_3.png,images/picture_1.png,0,"[11.733433509789464, 11.733433509789462]",11.733433509789464,11.733433509789462,images/picture_2.png,1,"[-11.733433509789462, 11.733433509789464]",-11.733433509789462,11.733433509789464,images/picture_3.png,2,"[11.733433509789462, -11.733433509789466]",11.733433509789462,-11.733433509789464,0,1,1,0.6850590835942414,1.6850590835942414,1.3149409164057586,3.0,1,1.4350590835942414,0,4.0,3.0,1,2,5,0,5,0,0,8,8,7,,,,,,,557.2298406659975,557.2298406659975,558.2446197079844,558.6779066660092,558.897549041023,558.897549041023,558.897549041023,560.2111981249764,560.2111981249764,560.2111981249764,560.2111981249764,561.2848556250101,200007,001,2023-04-11_08h39.15.080,DMS_et_12-36,2022.2.4,None,
,,,,,,,,,,,,,,,,,,,,,,,,,,,,,,,,,,,5,0,5,0,,,,,,,,,561.2848556250101,573.3148419579957,,,,,,,,,,,,,200007,001,2023-04-11_08h39.15.080,DMS_et_12-36,2022.2.4,None,
54,PRED,12,0.6850590835942414,1,images/picture_2.png,images/picture_1.png,0,"[11.733433509789462, -11.733433509789466]",11.733433509789462,-11.733433509789464,images/picture_2.png,1,"[11.733433509789464, 11.733433509789462]",11.733433509789464,11.733433509789462,images/picture_3.png,2,"[-11.733433509789462, 11.733433509789464]",-11.733433509789462,11.733433509789464,0,1,1,0.6850590835942414,1.6850590835942414,1.3149409164057586,3.0,1,1.4350590835942414,0,4.0,3.0,1,2,6,0,6,0,0,0,0,0,,,,,,,573.3148419579957,573.3148419579957,574.3298985409783,574.7633647500188,574.9964514999883,574.9964514999883,574.9964514999883,576.3113070830004,576.3113070830004,576.3113070830004,576.3113070830004,577.3107935829903,200007,001,2023-04-11_08h39.15.080,DMS_et_12-36,2022.2.4,None,
59,PRED,12,0.6850590835942414,1,images/picture_2.png,images/picture_1.png,0,"[11.733433509789462, -11.733433509789466]",11.733433509789462,-11.733433509789464,images/picture_2.png,1,"[11.733433509789464, 11.733433509789462]",11.733433509789464,11.733433509789462,images/picture_3.png,2,"[-11.733433509789466, -11.733433509789462]",-11.733433509789464,-11.733433509789462,0,1,1,0.6850590835942414,1.6850590835942414,1.3149409164057586,3.0,1,1.4350590835942414,0,4.0,3.0,1,2,6,0,6,0,0,1,1,5,,,,,,,577.3107935829903,577.3107935829903,578.3110382910236,578.7446078750072,578.9973373329849,578.9973373329849,578.9973373329849,580.3114399160258,580.3114399160258,580.3114399160258,580.3114399160258,581.3116894579725,200007,001,2023-04-11_08h39.15.080,DMS_et_12-36,2022.2.4,None,
55,PRED,12,0.6850590835942414,1,images/picture_2.png,images/picture_1.png,0,"[11.733433509789464, 11.733433509789462]",11.733433509789464,11.733433509789462,images/picture_2.png,1,"[-11.733433509789462, 11.733433509789464]",-11.733433509789462,11.733433509789464,images/picture_3.png,2,"[-11.733433509789466, -11.733433509789462]",-11.733433509789464,-11.733433509789462,0,1,1,0.6850590835942414,1.6850590835942414,1.3149409164057586,3.0,1,1.4350590835942414,0,4.0,3.0,1,2,6,0,6,0,0,2,2,1,,,,,,,581.3116894579725,581.3116894579725,582.311337125022,582.7446025409736,582.9974822499789,582.9974822499789,582.9974822499789,584.3112343749963,584.3112343749963,584.3112343749963,584.3112343749963,585.3110118330223,200007,001,2023-04-11_08h39.15.080,DMS_et_12-36,2022.2.4,None,
62,PRED,12,0.6850590835942414,1,images/picture_2.png,images/picture_1.png,0,"[-11.733433509789466, -11.733433509789462]",-11.733433509789464,-11.733433509789462,images/picture_2.png,1,"[11.733433509789462, -11.733433509789466]",11.733433509789462,-11.733433509789464,images/picture_3.png,2,"[11.733433509789464, 11.733433509789462]",11.733433509789464,11.733433509789462,0,1,1,0.6850590835942414,1.6850590835942414,1.3149409164057586,3.0,1,1.4350590835942414,0,4.0,3.0,1,2,6,0,6,0,0,3,3,8,,,,,,,585.3110118330223,585.3110118330223,586.311347083014,586.744778332999,586.9974640000146,586.9974640000146,586.9974640000146,588.3113686249708,588.3113686249708,588.3113686249708,588.3113686249708,589.3110059999744,200007,001,2023-04-11_08h39.15.080,DMS_et_12-36,2022.2.4,None,
57,PRED,12,0.6850590835942414,1,images/picture_2.png,images/picture_1.png,0,"[11.733433509789462, -11.733433509789466]",11.733433509789462,-11.733433509789464,images/picture_2.png,1,"[-11.733433509789462, 11.733433509789464]",-11.733433509789462,11.733433509789464,images/picture_3.png,2,"[11.733433509789464, 11.733433509789462]",11.733433509789464,11.733433509789462,0,1,1,0.6850590835942414,1.6850590835942414,1.3149409164057586,3.0,1,1.4350590835942414,0,4.0,3.0,1,2,6,0,6,0,0,4,4,3,,,,,,,589.3110059999744,589.3110059999744,590.3111394579755,590.7446170829935,590.9980046660057,590.9980046660057,590.9980046660057,592.3113578329794,592.3113578329794,592.3113578329794,592.3113578329794,593.3300057500019,200007,001,2023-04-11_08h39.15.080,DMS_et_12-36,2022.2.4,None,
61,PRED,12,0.6850590835942414,1,images/picture_2.png,images/picture_1.png,0,"[-11.733433509789462, 11.733433509789464]",-11.733433509789462,11.733433509789464,images/picture_2.png,1,"[11.733433509789462, -11.733433509789466]",11.733433509789462,-11.733433509789464,images/picture_3.png,2,"[-11.733433509789466, -11.733433509789462]",-11.733433509789464,-11.733433509789462,0,1,1,0.6850590835942414,1.6850590835942414,1.3149409164057586,3.0,1,1.4350590835942414,0,4.0,3.0,1,2,6,0,6,0,0,5,5,7,,,,,,,593.3300057500019,593.3300057500019,594.3448009580025,594.7779834580142,594.996658249991,594.996658249991,594.996658249991,596.3111377910245,596.3111377910245,596.3111377910245,596.3111377910245,597.3108357079909,200007,001,2023-04-11_08h39.15.080,DMS_et_12-36,2022.2.4,None,
60,PRED,12,0.6850590835942414,1,images/picture_2.png,images/picture_1.png,0,"[11.733433509789462, -11.733433509789466]",11.733433509789462,-11.733433509789464,images/picture_2.png,1,"[-11.733433509789462, 11.733433509789464]",-11.733433509789462,11.733433509789464,images/picture_3.png,2,"[11.733433509789464, 11.733433509789462]",11.733433509789464,11.733433509789462,0,1,1,0.6850590835942414,1.6850590835942414,1.3149409164057586,3.0,1,1.4350590835942414,0,4.0,3.0,1,2,6,0,6,0,0,6,6,6,,,,,,,597.3108357079909,597.3108357079909,598.3114421250066,598.7446437079925,598.9973174579791,598.9973174579791,598.9973174579791,600.3113512910204,600.3113512910204,600.3113512910204,600.3113512910204,601.3111080829985,200007,001,2023-04-11_08h39.15.080,DMS_et_12-36,2022.2.4,None,
58,PRED,12,0.6850590835942414,1,images/picture_2.png,images/picture_1.png,0,"[11.733433509789464, 11.733433509789462]",11.733433509789464,11.733433509789462,images/picture_2.png,1,"[-11.733433509789466, -11.733433509789462]",-11.733433509789464,-11.733433509789462,images/picture_3.png,2,"[11.733433509789462, -11.733433509789466]",11.733433509789462,-11.733433509789464,0,1,1,0.6850590835942414,1.6850590835942414,1.3149409164057586,3.0,1,1.4350590835942414,0,4.0,3.0,1,2,6,0,6,0,0,7,7,4,,,,,,,601.3111080829985,601.3111080829985,602.3112153750262,602.7445648749708,602.9979935410083,602.9979935410083,602.9979935410083,604.3113529160037,604.3113529160037,604.3113529160037,604.3113529160037,605.310983082978,200007,001,2023-04-11_08h39.15.080,DMS_et_12-36,2022.2.4,None,
56,PRED,12,0.6850590835942414,1,images/picture_2.png,images/picture_1.png,0,"[11.733433509789462, -11.733433509789466]",11.733433509789462,-11.733433509789464,images/picture_2.png,1,"[-11.733433509789466, -11.733433509789462]",-11.733433509789464,-11.733433509789462,images/picture_3.png,2,"[11.733433509789464, 11.733433509789462]",11.733433509789464,11.733433509789462,0,1,1,0.6850590835942414,1.6850590835942414,1.3149409164057586,3.0,1,1.4350590835942414,0,4.0,3.0,1,2,6,0,6,0,0,8,8,2,,,,,,,605.310983082978,605.310983082978,606.3115549159702,606.7448371659848,606.9972942500026,606.9972942500026,606.9972942500026,608.3111741659814,608.3111741659814,608.3111741659814,608.3111741659814,609.3897809999762,200007,001,2023-04-11_08h39.15.080,DMS_et_12-36,2022.2.4,None,
,,,,,,,,,,,,,,,,,,,,,,,,,,,,,,,,,,,6,0,6,0,,,,,,,,,609.3897809999762,621.4259568330017,,,,,,,,,,,,,200007,001,2023-04-11_08h39.15.080,DMS_et_12-36,2022.2.4,None,
70,UNPRED,12,0.6850590835942414,2,images/picture_3.png,images/picture_1.png,0,"[-11.733433509789466, -11.733433509789462]",-11.733433509789464,-11.733433509789462,images/picture_2.png,1,"[-11.733433509789462, 11.733433509789464]",-11.733433509789462,11.733433509789464,images/picture_3.png,2,"[11.733433509789464, 11.733433509789462]",11.733433509789464,11.733433509789462,0,1,1,0.6850590835942414,1.6850590835942414,1.3149409164057586,3.0,1,1.4350590835942414,0,4.0,3.0,1,2,7,0,7,0,0,0,0,7,,,,,,,621.4259568330017,621.4259568330017,622.430886957969,622.8640303749708,623.0976113749784,623.0976113749784,623.0976113749784,624.4113602910074,624.4113602910074,624.4113602910074,624.4113602910074,625.4108397910022,200007,001,2023-04-11_08h39.15.080,DMS_et_12-36,2022.2.4,None,
65,UNPRED,12,0.6850590835942414,0,images/picture_1.png,images/picture_1.png,0,"[11.733433509789464, 11.733433509789462]",11.733433509789464,11.733433509789462,images/picture_2.png,1,"[11.733433509789462, -11.733433509789466]",11.733433509789462,-11.733433509789464,images/picture_3.png,2,"[-11.733433509789462, 11.733433509789464]",-11.733433509789462,11.733433509789464,0,1,1,0.6850590835942414,1.6850590835942414,1.3149409164057586,3.0,1,1.4350590835942414,0,4.0,3.0,1,2,7,0,7,0,0,1,1,2,,,,,,,625.4108397910022,625.4108397910022,626.4111418329994,626.8448230000213,627.09750170802,627.09750170802,627.09750170802,628.4113743330236,628.4113743330236,628.4113743330236,628.4113743330236,629.4110717080184,200007,001,2023-04-11_08h39.15.080,DMS_et_12-36,2022.2.4,None,
64,UNPRED,12,0.6850590835942414,1,images/picture_2.png,images/picture_1.png,0,"[-11.733433509789462, 11.733433509789464]",-11.733433509789462,11.733433509789464,images/picture_2.png,1,"[11.733433509789464, 11.733433509789462]",11.733433509789464,11.733433509789462,images/picture_3.png,2,"[-11.733433509789466, -11.733433509789462]",-11.733433509789464,-11.733433509789462,0,1,1,0.6850590835942414,1.6850590835942414,1.3149409164057586,3.0,1,1.4350590835942414,0,4.0,3.0,1,2,7,0,7,0,0,2,2,1,,,,,,,629.4110717080184,629.4110717080184,630.4116111249896,630.8448809999973,631.0973805829999,631.0973805829999,631.0973805829999,632.4115772909718,632.4115772909718,632.4115772909718,632.4115772909718,633.430087707995,200007,001,2023-04-11_08h39.15.080,DMS_et_12-36,2022.2.4,None,
63,UNPRED,12,0.6850590835942414,2,images/picture_3.png,images/picture_1.png,0,"[11.733433509789462, -11.733433509789466]",11.733433509789462,-11.733433509789464,images/picture_2.png,1,"[-11.733433509789462, 11.733433509789464]",-11.733433509789462,11.733433509789464,images/picture_3.png,2,"[-11.733433509789466, -11.733433509789462]",-11.733433509789464,-11.733433509789462,0,1,1,0.6850590835942414,1.6850590835942414,1.3149409164057586,3.0,1,1.4350590835942414,0,4.0,3.0,1,2,7,0,7,0,0,3,3,0,,,,,,,633.430087707995,633.430087707995,634.4450576659874,634.8783669580007,635.0973429160076,635.0973429160076,635.0973429160076,636.4114059159765,636.4114059159765,636.4114059159765,636.4114059159765,637.4307456249953,200007,001,2023-04-11_08h39.15.080,DMS_et_12-36,2022.2.4,None,
67,UNPRED,12,0.6850590835942414,1,images/picture_2.png,images/picture_1.png,0,"[-11.733433509789462, 11.733433509789464]",-11.733433509789462,11.733433509789464,images/picture_2.png,1,"[11.733433509789462, -11.733433509789466]",11.733433509789462,-11.733433509789464,images/picture_3.png,2,"[11.733433509789464, 11.733433509789462]",11.733433509789464,11.733433509789462,0,1,1,0.6850590835942414,1.6850590835942414,1.3149409164057586,3.0,1,1.4350590835942414,0,4.0,3.0,1,2,7,0,7,0,0,4,4,4,,,,,,,637.4307456249953,637.4307456249953,638.4450447909767,638.8781159580103,639.0975525410031,639.0975525410031,639.0975525410031,640.4115835829871,640.4115835829871,640.4115835829871,640.4115835829871,641.4113659160212,200007,001,2023-04-11_08h39.15.080,DMS_et_12-36,2022.2.4,None,
66,UNPRED,12,0.6850590835942414,0,images/picture_1.png,images/picture_1.png,0,"[-11.733433509789466, -11.733433509789462]",-11.733433509789464,-11.733433509789462,images/picture_2.png,1,"[11.733433509789462, -11.733433509789466]",11.733433509789462,-11.733433509789464,images/picture_3.png,2,"[-11.733433509789462, 11.733433509789464]",-11.733433509789462,11.733433509789464,0,1,1,0.6850590835942414,1.6850590835942414,1.3149409164057586,3.0,1,1.4350590835942414,0,4.0,3.0,1,2,7,0,7,0,0,5,5,3,,,,,,,641.4113659160212,641.4113659160212,642.4116404160159,642.8448476250051,643.0974148329697,643.0974148329697,643.0974148329697,644.4115757499821,644.4115757499821,644.4115757499821,644.4115757499821,645.4314114580047,200007,001,2023-04-11_08h39.15.080,DMS_et_12-36,2022.2.4,None,
68,UNPRED,12,0.6850590835942414,2,images/picture_3.png,images/picture_1.png,0,"[11.733433509789464, 11.733433509789462]",11.733433509789464,11.733433509789462,images/picture_2.png,1,"[11.733433509789462, -11.733433509789466]",11.733433509789462,-11.733433509789464,images/picture_3.png,2,"[-11.733433509789462, 11.733433509789464]",-11.733433509789462,11.733433509789464,0,1,1,0.6850590835942414,1.6850590835942414,1.3149409164057586,3.0,1,1.4350590835942414,0,4.0,3.0,1,2,7,0,7,0,0,6,6,5,,,,,,,645.4314114580047,645.4314114580047,646.4445898749982,646.8780336659984,647.0968565830262,647.0968565830262,647.0968565830262,648.4116225410253,648.4116225410253,648.4116225410253,648.4116225410253,649.4118103330256,200007,001,2023-04-11_08h39.15.080,DMS_et_12-36,2022.2.4,None,
69,UNPRED,12,0.6850590835942414,1,images/picture_2.png,images/picture_1.png,0,"[11.733433509789462, -11.733433509789466]",11.733433509789462,-11.733433509789464,images/picture_2.png,1,"[-11.733433509789462, 11.733433509789464]",-11.733433509789462,11.733433509789464,images/picture_3.png,2,"[-11.733433509789466, -11.733433509789462]",-11.733433509789464,-11.733433509789462,0,1,1,0.6850590835942414,1.6850590835942414,1.3149409164057586,3.0,1,1.4350590835942414,0,4.0,3.0,1,2,7,0,7,0,0,7,7,6,,,,,,,649.4118103330256,649.4118103330256,650.4116199159762,650.8448555829818,651.0981889999821,651.0981889999821,651.0981889999821,652.411624750006,652.411624750006,652.411624750006,652.411624750006,653.4110413329909,200007,001,2023-04-11_08h39.15.080,DMS_et_12-36,2022.2.4,None,
71,UNPRED,12,0.6850590835942414,0,images/picture_1.png,images/picture_1.png,0,"[-11.733433509789462, 11.733433509789464]",-11.733433509789462,11.733433509789464,images/picture_2.png,1,"[-11.733433509789466, -11.733433509789462]",-11.733433509789464,-11.733433509789462,images/picture_3.png,2,"[11.733433509789464, 11.733433509789462]",11.733433509789464,11.733433509789462,0,1,1,0.6850590835942414,1.6850590835942414,1.3149409164057586,3.0,1,1.4350590835942414,0,4.0,3.0,1,2,7,0,7,0,0,8,8,8,,,,,,,653.4110413329909,653.4110413329909,654.411576708022,654.8451829999685,655.0973942499841,655.0973942499841,655.0973942499841,656.4114304999821,656.4114304999821,656.4114304999821,656.4114304999821,657.5088826249703,200007,001,2023-04-11_08h39.15.080,DMS_et_12-36,2022.2.4,None,
,,,,,,,,,,,,,,,,,,,,,,,,,,,,,,,,,,,7,0,7,0,,,,,,,,,657.5088826249703,669.5341223329888,,,,,,,,,,,,,200007,001,2023-04-11_08h39.15.080,DMS_et_12-36,2022.2.4,None,
72,PRED,12,0.6850590835942414,0,images/picture_1.png,images/picture_1.png,0,"[11.733433509789462, -11.733433509789466]",11.733433509789462,-11.733433509789464,images/picture_2.png,1,"[11.733433509789464, 11.733433509789462]",11.733433509789464,11.733433509789462,images/picture_3.png,2,"[-11.733433509789462, 11.733433509789464]",-11.733433509789462,11.733433509789464,0,1,1,0.6850590835942414,1.6850590835942414,1.3149409164057586,3.0,1,1.4350590835942414,0,4.0,3.0,1,2,8,0,8,0,0,0,0,0,,,,,,,669.5341223329888,669.5341223329888,670.5447729579755,670.9780920000048,671.2113580409787,671.2113580409787,671.2113580409787,672.5309110410162,672.5309110410162,672.5309110410162,672.5309110410162,673.544490500004,200007,001,2023-04-11_08h39.15.080,DMS_et_12-36,2022.2.4,None,
80,PRED,12,0.6850590835942414,0,images/picture_1.png,images/picture_1.png,0,"[11.733433509789462, -11.733433509789466]",11.733433509789462,-11.733433509789464,images/picture_2.png,1,"[11.733433509789464, 11.733433509789462]",11.733433509789464,11.733433509789462,images/picture_3.png,2,"[-11.733433509789466, -11.733433509789462]",-11.733433509789464,-11.733433509789462,0,1,1,0.6850590835942414,1.6850590835942414,1.3149409164057586,3.0,1,1.4350590835942414,0,4.0,3.0,1,2,8,0,8,0,0,1,1,8,,,,,,,673.544490500004,673.544490500004,674.5447754579945,674.9780832909746,675.2306520409766,675.2306520409766,675.2306520409766,676.5448044579825,676.5448044579825,676.5448044579825,676.5448044579825,677.5444017910049,200007,001,2023-04-11_08h39.15.080,DMS_et_12-36,2022.2.4,None,
74,PRED,12,0.6850590835942414,0,images/picture_1.png,images/picture_1.png,0,"[11.733433509789462, -11.733433509789466]",11.733433509789462,-11.733433509789464,images/picture_2.png,1,"[11.733433509789464, 11.733433509789462]",11.733433509789464,11.733433509789462,images/picture_3.png,2,"[-11.733433509789462, 11.733433509789464]",-11.733433509789462,11.733433509789464,0,1,1,0.6850590835942414,1.6850590835942414,1.3149409164057586,3.0,1,1.4350590835942414,0,4.0,3.0,1,2,8,0,8,0,0,2,2,2,,,,,,,677.5444017910049,677.5444017910049,678.5446287909872,678.9779200410121,679.2306857910007,679.2306857910007,679.2306857910007,680.5447777080117,680.5447777080117,680.5447777080117,680.5447777080117,681.544277457986,200007,001,2023-04-11_08h39.15.080,DMS_et_12-36,2022.2.4,None,
77,PRED,12,0.6850590835942414,0,images/picture_1.png,images/picture_1.png,0,"[11.733433509789464, 11.733433509789462]",11.733433509789464,11.733433509789462,images/picture_2.png,1,"[-11.733433509789466, -11.733433509789462]",-11.733433509789464,-11.733433509789462,images/picture_3.png,2,"[11.733433509789462, -11.733433509789466]",11.733433509789462,-11.733433509789464,0,1,1,0.6850590835942414,1.6850590835942414,1.3149409164057586,3.0,1,1.4350590835942414,0,4.0,3.0,1,2,8,0,8,0,0,3,3,5,,,,,,,681.544277457986,681.544277457986,682.5448192079784,682.9781171249924,683.2305721659795,683.2305721659795,683.2305721659795,684.5448096250184,684.5448096250184,684.5448096250184,684.5448096250184,685.5443753749714,200007,001,2023-04-11_08h39.15.080,DMS_et_12-36,2022.2.4,None,
79,PRED,12,0.6850590835942414,0,images/picture_1.png,images/picture_1.png,0,"[11.733433509789464, 11.733433509789462]",11.733433509789464,11.733433509789462,images/picture_2.png,1,"[11.733433509789462, -11.733433509789466]",11.733433509789462,-11.733433509789464,images/picture_3.png,2,"[-11.733433509789462, 11.733433509789464]",-11.733433509789462,11.733433509789464,0,1,1,0.6850590835942414,1.6850590835942414,1.3149409164057586,3.0,1,1.4350590835942414,0,4.0,3.0,1,2,8,0,8,0,0,4,4,7,,,,,,,685.5443753749714,685.5443753749714,686.5447698750068,686.9782600000035,687.2300550409709,687.2300550409709,687.2300550409709,688.5448116660118,688.5448116660118,688.5448116660118,688.5448116660118,689.5444558750023,200007,001,2023-04-11_08h39.15.080,DMS_et_12-36,2022.2.4,None,
73,PRED,12,0.6850590835942414,0,images/picture_1.png,images/picture_1.png,0,"[11.733433509789464, 11.733433509789462]",11.733433509789464,11.733433509789462,images/picture_2.png,1,"[-11.733433509789462, 11.733433509789464]",-11.733433509789462,11.733433509789464,images/picture_3.png,2,"[-11.733433509789466, -11.733433509789462]",-11.733433509789464,-11.733433509789462,0,1,1,0.6850590835942414,1.6850590835942414,1.3149409164057586,3.0,1,1.4350590835942414,0,4.0,3.0,1,2,8,0,8,0,0,5,5,1,,,,,,,689.5444558750023,689.5444558750023,690.54477691598,690.9780976659968,691.2310592079884,691.2310592079884,691.2310592079884,692.5446197079727,692.5446197079727,692.5446197079727,692.5446197079727,693.5443784579984,200007,001,2023-04-11_08h39.15.080,DMS_et_12-36,2022.2.4,None,
76,PRED,12,0.6850590835942414,0,images/picture_1.png,images/picture_1.png,0,"[11.733433509789464, 11.733433509789462]",11.733433509789464,11.733433509789462,images/picture_2.png,1,"[-11.733433509789466, -11.733433509789462]",-11.733433509789464,-11.733433509789462,images/picture_3.png,2,"[-11.733433509789462, 11.733433509789464]",-11.733433509789462,11.733433509789464,0,1,1,0.6850590835942414,1.6850590835942414,1.3149409164057586,3.0,1,1.4350590835942414,0,4.0,3.0,1,2,8,0,8,0,0,6,6,4,,,,,,,693.5443784579984,693.5443784579984,694.5448497500038,694.9781487080036,695.2309416659991,695.2309416659991,695.2309416659991,696.5447940829908,696.5447940829908,696.5447940829908,696.5447940829908,697.5444668749697,200007,001,2023-04-11_08h39.15.080,DMS_et_12-36,2022.2.4,None,
75,PRED,12,0.6850590835942414,0,images/picture_1.png,images/picture_1.png,0,"[-11.733433509789462, 11.733433509789464]",-11.733433509789462,11.733433509789464,images/picture_2.png,1,"[-11.733433509789466, -11.733433509789462]",-11.733433509789464,-11.733433509789462,images/picture_3.png,2,"[11.733433509789462, -11.733433509789466]",11.733433509789462,-11.733433509789464,0,1,1,0.6850590835942414,1.6850590835942414,1.3149409164057586,3.0,1,1.4350590835942414,0,4.0,3.0,1,2,8,0,8,0,0,7,7,3,,,,,,,697.5444668749697,697.5444668749697,698.5448365000193,698.9780496250023,699.230684374983,699.230684374983,699.230684374983,700.544895457977,700.544895457977,700.544895457977,700.544895457977,701.5445503750234,200007,001,2023-04-11_08h39.15.080,DMS_et_12-36,2022.2.4,None,
78,PRED,12,0.6850590835942414,0,images/picture_1.png,images/picture_1.png,0,"[11.733433509789464, 11.733433509789462]",11.733433509789464,11.733433509789462,images/picture_2.png,1,"[-11.733433509789462, 11.733433509789464]",-11.733433509789462,11.733433509789464,images/picture_3.png,2,"[11.733433509789462, -11.733433509789466]",11.733433509789462,-11.733433509789464,0,1,1,0.6850590835942414,1.6850590835942414,1.3149409164057586,3.0,1,1.4350590835942414,0,4.0,3.0,1,2,8,0,8,0,0,8,8,6,,,,,,,701.5445503750234,701.5445503750234,702.5448760410072,702.9780852500116,703.2312725830125,703.2312725830125,703.2312725830125,704.5448231250048,704.5448231250048,704.5448231250048,704.5448231250048,705.6425506660016,200007,001,2023-04-11_08h39.15.080,DMS_et_12-36,2022.2.4,None,
,,,,,,,,,,,,,,,,,,,,,,,,,,,,,,,,,,,8,0,8,0,,,,,,,,,705.6425506660016,717.6709918749984,,,,,,,,,,,,,200007,001,2023-04-11_08h39.15.080,DMS_et_12-36,2022.2.4,None,
89,UNPRED,12,0.6850590835942414,2,images/picture_3.png,images/picture_1.png,0,"[-11.733433509789466, -11.733433509789462]",-11.733433509789464,-11.733433509789462,images/picture_2.png,1,"[11.733433509789462, -11.733433509789466]",11.733433509789462,-11.733433509789464,images/picture_3.png,2,"[11.733433509789464, 11.733433509789462]",11.733433509789464,11.733433509789462,0,1,1,0.6850590835942414,1.6850590835942414,1.3149409164057586,3.0,1,1.4350590835942414,0,4.0,3.0,1,2,9,0,9,0,0,0,0,8,,,,,,,717.6709918749984,717.6709918749984,718.6778740829905,719.111446624971,719.3445873329765,719.3445873329765,719.3445873329765,720.6647036250215,720.6647036250215,720.6647036250215,720.6647036250215,721.6772156250081,200007,001,2023-04-11_08h39.15.080,DMS_et_12-36,2022.2.4,None,
85,UNPRED,12,0.6850590835942414,0,images/picture_1.png,images/picture_1.png,0,"[11.733433509789462, -11.733433509789466]",11.733433509789462,-11.733433509789464,images/picture_2.png,1,"[11.733433509789464, 11.733433509789462]",11.733433509789464,11.733433509789462,images/picture_3.png,2,"[-11.733433509789466, -11.733433509789462]",-11.733433509789464,-11.733433509789462,0,1,1,0.6850590835942414,1.6850590835942414,1.3149409164057586,3.0,1,1.4350590835942414,0,4.0,3.0,1,2,9,0,9,0,0,1,1,4,,,,,,,721.6772156250081,721.6772156250081,722.6784331660019,723.1117395830224,723.3642636250006,723.3642636250006,723.3642636250006,724.678132541012,724.678132541012,724.678132541012,724.678132541012,725.6773147499771,200007,001,2023-04-11_08h39.15.080,DMS_et_12-36,2022.2.4,None,
82,UNPRED,12,0.6850590835942414,1,images/picture_2.png,images/picture_1.png,0,"[-11.733433509789462, 11.733433509789464]",-11.733433509789462,11.733433509789464,images/picture_2.png,1,"[11.733433509789462, -11.733433509789466]",11.733433509789462,-11.733433509789464,images/picture_3.png,2,"[11.733433509789464, 11.733433509789462]",11.733433509789464,11.733433509789462,0,1,1,0.6850590835942414,1.6850590835942414,1.3149409164057586,3.0,1,1.4350590835942414,0,4.0,3.0,1,2,9,0,9,0,0,2,2,1,,,,,,,725.6773147499771,725.6773147499771,726.678291958,727.1115278329817,727.3640171660227,727.3640171660227,727.3640171660227,728.6780018329737,728.6780018329737,728.6780018329737,728.6780018329737,729.6776591659873,200007,001,2023-04-11_08h39.15.080,DMS_et_12-36,2022.2.4,None,
86,UNPRED,12,0.6850590835942414,0,images/picture_1.png,images/picture_1.png,0,"[11.733433509789462, -11.733433509789466]",11.733433509789462,-11.733433509789464,images/picture_2.png,1,"[-11.733433509789462, 11.733433509789464]",-11.733433509789462,11.733433509789464,images/picture_3.png,2,"[-11.733433509789466, -11.733433509789462]",-11.733433509789464,-11.733433509789462,0,1,1,0.6850590835942414,1.6850590835942414,1.3149409164057586,3.0,1,1.4350590835942414,0,4.0,3.0,1,2,9,0,9,0,0,3,3,5,,,,,,,729.6776591659873,729.6776591659873,730.6781086659757,731.1115612499998,731.363870000001,731.363870000001,731.363870000001,732.678185124998,732.678185124998,732.678185124998,732.678185124998,733.6780950829852,200007,001,2023-04-11_08h39.15.080,DMS_et_12-36,2022.2.4,None,
84,UNPRED,12,0.6850590835942414,1,images/picture_2.png,images/picture_1.png,0,"[-11.733433509789462, 11.733433509789464]",-11.733433509789462,11.733433509789464,images/picture_2.png,1,"[11.733433509789462, -11.733433509789466]",11.733433509789462,-11.733433509789464,images/picture_3.png,2,"[-11.733433509789466, -11.733433509789462]",-11.733433509789464,-11.733433509789462,0,1,1,0.6850590835942414,1.6850590835942414,1.3149409164057586,3.0,1,1.4350590835942414,0,4.0,3.0,1,2,9,0,9,0,0,4,4,3,,,,,,,733.6780950829852,733.6780950829852,734.6781215830124,735.111517790996,735.3643182080123,735.3643182080123,735.3643182080123,736.6781042499933,736.6781042499933,736.6781042499933,736.6781042499933,737.6776855409844,200007,001,2023-04-11_08h39.15.080,DMS_et_12-36,2022.2.4,None,
87,UNPRED,12,0.6850590835942414,0,images/picture_1.png,images/picture_1.png,0,"[-11.733433509789466, -11.733433509789462]",-11.733433509789464,-11.733433509789462,images/picture_2.png,1,"[-11.733433509789462, 11.733433509789464]",-11.733433509789462,11.733433509789464,images/picture_3.png,2,"[11.733433509789464, 11.733433509789462]",11.733433509789464,11.733433509789462,0,1,1,0.6850590835942414,1.6850590835942414,1.3149409164057586,3.0,1,1.4350590835942414,0,4.0,3.0,1,2,9,0,9,0,0,5,5,6,,,,,,,737.6776855409844,737.6776855409844,738.6779972499935,739.1113078750204,739.363865457999,739.363865457999,739.363865457999,740.6784472910222,740.6784472910222,740.6784472910222,740.6784472910222,741.6779087500181,200007,001,2023-04-11_08h39.15.080,DMS_et_12-36,2022.2.4,None,
81,UNPRED,12,0.6850590835942414,0,images/picture_1.png,images/picture_1.png,0,"[11.733433509789462, -11.733433509789466]",11.733433509789462,-11.733433509789464,images/picture_2.png,1,"[-11.733433509789466, -11.733433509789462]",-11.733433509789464,-11.733433509789462,images/picture_3.png,2,"[11.733433509789464, 11.733433509789462]",11.733433509789464,11.733433509789462,0,1,1,0.6850590835942414,1.6850590835942414,1.3149409164057586,3.0,1,1.4350590835942414,0,4.0,3.0,1,2,9,0,9,0,0,6,6,0,,,,,,,741.6779087500181,741.6779087500181,742.6781538330251,743.1116390000097,743.3641643750016,743.3641643750016,743.3641643750016,744.6781464579981,744.6781464579981,744.6781464579981,744.6781464579981,745.6770882909768,200007,001,2023-04-11_08h39.15.080,DMS_et_12-36,2022.2.4,None,
83,UNPRED,12,0.6850590835942414,1,images/picture_2.png,images/picture_1.png,0,"[-11.733433509789462, 11.733433509789464]",-11.733433509789462,11.733433509789464,images/picture_2.png,1,"[-11.733433509789466, -11.733433509789462]",-11.733433509789464,-11.733433509789462,images/picture_3.png,2,"[11.733433509789462, -11.733433509789466]",11.733433509789462,-11.733433509789464,0,1,1,0.6850590835942414,1.6850590835942414,1.3149409164057586,3.0,1,1.4350590835942414,0,4.0,3.0,1,2,9,0,9,0,0,7,7,2,,,,,,,745.6770882909768,745.6770882909768,746.6783251250163,747.1115989999962,747.364367000002,747.364367000002,747.364367000002,748.6778352499823,748.6778352499823,748.6778352499823,748.6778352499823,749.677748874994,200007,001,2023-04-11_08h39.15.080,DMS_et_12-36,2022.2.4,None,
88,UNPRED,12,0.6850590835942414,0,images/picture_1.png,images/picture_1.png,0,"[11.733433509789464, 11.733433509789462]",11.733433509789464,11.733433509789462,images/picture_2.png,1,"[-11.733433509789462, 11.733433509789464]",-11.733433509789462,11.733433509789464,images/picture_3.png,2,"[11.733433509789462, -11.733433509789466]",11.733433509789462,-11.733433509789464,0,1,1,0.6850590835942414,1.6850590835942414,1.3149409164057586,3.0,1,1.4350590835942414,0,4.0,3.0,1,2,9,0,9,0,0,8,8,7,,,,,,,749.677748874994,749.677748874994,750.6783035830013,751.1115569579997,751.3640219999943,751.3640219999943,751.3640219999943,752.6783047079807,752.6783047079807,752.6783047079807,752.6783047079807,753.7816099160118,200007,001,2023-04-11_08h39.15.080,DMS_et_12-36,2022.2.4,None,
,,,,,,,,,,,,,,,,,,,,,,,,,,,,,,,,,,,9,0,9,0,,,,,,,,,753.7816099160118,765.8103228330147,,,,,,,,,,,,,200007,001,2023-04-11_08h39.15.080,DMS_et_12-36,2022.2.4,None,
96,PRED,12,0.6850590835942414,2,images/picture_3.png,images/picture_1.png,0,"[-11.733433509789462, 11.733433509789464]",-11.733433509789462,11.733433509789464,images/picture_2.png,1,"[11.733433509789464, 11.733433509789462]",11.733433509789464,11.733433509789462,images/picture_3.png,2,"[11.733433509789462, -11.733433509789466]",11.733433509789462,-11.733433509789464,0,1,1,0.6850590835942414,1.6850590835942414,1.3149409164057586,3.0,1,1.4350590835942414,0,4.0,3.0,1,2,10,0,10,0,0,0,0,6,,,,,,,765.8103228330147,765.8103228330147,766.811625125003,767.2450480830157,767.4783981249784,767.4783981249784,767.4783981249784,768.7977657499723,768.7977657499723,768.7977657499723,768.7977657499723,769.8301279160078,200007,001,2023-04-11_08h39.15.080,DMS_et_12-36,2022.2.4,None,
91,PRED,12,0.6850590835942414,2,images/picture_3.png,images/picture_1.png,0,"[11.733433509789462, -11.733433509789466]",11.733433509789462,-11.733433509789464,images/picture_2.png,1,"[11.733433509789464, 11.733433509789462]",11.733433509789464,11.733433509789462,images/picture_3.png,2,"[-11.733433509789466, -11.733433509789462]",-11.733433509789464,-11.733433509789462,0,1,1,0.6850590835942414,1.6850590835942414,1.3149409164057586,3.0,1,1.4350590835942414,0,4.0,3.0,1,2,10,0,10,0,0,1,1,1,,,,,,,769.8301279160078,769.8301279160078,770.8450350409839,771.2782967080129,771.4975960410084,771.4975960410084,771.4975960410084,772.8116095410078,772.8116095410078,772.8116095410078,772.8116095410078,773.8308864160208,200007,001,2023-04-11_08h39.15.080,DMS_et_12-36,2022.2.4,None,
92,PRED,12,0.6850590835942414,2,images/picture_3.png,images/picture_1.png,0,"[-11.733433509789466, -11.733433509789462]",-11.733433509789464,-11.733433509789462,images/picture_2.png,1,"[11.733433509789462, -11.733433509789466]",11.733433509789462,-11.733433509789464,images/picture_3.png,2,"[-11.733433509789462, 11.733433509789464]",-11.733433509789462,11.733433509789464,0,1,1,0.6850590835942414,1.6850590835942414,1.3149409164057586,3.0,1,1.4350590835942414,0,4.0,3.0,1,2,10,0,10,0,0,2,2,2,,,,,,,773.8308864160208,773.8308864160208,774.8450770829804,775.2783916660119,775.4978377079824,775.4978377079824,775.4978377079824,776.8116566250101,776.8116566250101,776.8116566250101,776.8116566250101,777.8308614160051,200007,001,2023-04-11_08h39.15.080,DMS_et_12-36,2022.2.4,None,
90,PRED,12,0.6850590835942414,2,images/picture_3.png,images/picture_1.png,0,"[-11.733433509789462, 11.733433509789464]",-11.733433509789462,11.733433509789464,images/picture_2.png,1,"[11.733433509789464, 11.733433509789462]",11.733433509789464,11.733433509789462,images/picture_3.png,2,"[-11.733433509789466, -11.733433509789462]",-11.733433509789464,-11.733433509789462,0,1,1,0.6850590835942414,1.6850590835942414,1.3149409164057586,3.0,1,1.4350590835942414,0,4.0,3.0,1,2,10,0,10,0,0,3,3,0,,,,,,,777.8308614160051,777.8308614160051,778.8448507499998,779.2781299999915,779.4967049579718,779.4967049579718,779.4967049579718,780.8115894160001,780.8115894160001,780.8115894160001,780.8115894160001,781.8302677079919,200007,001,2023-04-11_08h39.15.080,DMS_et_12-36,2022.2.4,None,
95,PRED,12,0.6850590835942414,2,images/picture_3.png,images/picture_1.png,0,"[11.733433509789462, -11.733433509789466]",11.733433509789462,-11.733433509789464,images/picture_2.png,1,"[-11.733433509789462, 11.733433509789464]",-11.733433509789462,11.733433509789464,images/picture_3.png,2,"[11.733433509789464, 11.733433509789462]",11.733433509789464,11.733433509789462,0,1,1,0.6850590835942414,1.6850590835942414,1.3149409164057586,3.0,1,1.4350590835942414,0,4.0,3.0,1,2,10,0,10,0,0,4,4,5,,,,,,,781.8302677079919,781.8302677079919,782.8448691249941,783.2779928329983,783.4975164160132,783.4975164160132,783.4975164160132,784.8116138749756,784.8116138749756,784.8116138749756,784.8116138749756,785.8308457909734,200007,001,2023-04-11_08h39.15.080,DMS_et_12-36,2022.2.4,None,
94,PRED,12,0.6850590835942414,2,images/picture_3.png,images/picture_1.png,0,"[-11.733433509789462, 11.733433509789464]",-11.733433509789462,11.733433509789464,images/picture_2.png,1,"[11.733433509789462, -11.733433509789466]",11.733433509789462,-11.733433509789464,images/picture_3.png,2,"[-11.733433509789466, -11.733433509789462]",-11.733433509789464,-11.733433509789462,0,1,1,0.6850590835942414,1.6850590835942414,1.3149409164057586,3.0,1,1.4350590835942414,0,4.0,3.0,1,2,10,0,10,0,0,5,5,4,,,,,,,785.8308457909734,785.8308457909734,786.8451060410007,787.278367166,787.4976694579818,787.4976694579818,787.4976694579818,788.8116264580167,788.8116264580167,788.8116264580167,788.8116264580167,789.8117394999717,200007,001,2023-04-11_08h39.15.080,DMS_et_12-36,2022.2.4,None,
98,PRED,12,0.6850590835942414,2,images/picture_3.png,images/picture_1.png,0,"[-11.733433509789466, -11.733433509789462]",-11.733433509789464,-11.733433509789462,images/picture_2.png,1,"[11.733433509789462, -11.733433509789466]",11.733433509789462,-11.733433509789464,images/picture_3.png,2,"[11.733433509789464, 11.733433509789462]",11.733433509789464,11.733433509789462,0,1,1,0.6850590835942414,1.6850590835942414,1.3149409164057586,3.0,1,1.4350590835942414,0,4.0,3.0,1,2,10,0,10,0,0,6,6,8,,,,,,,789.8117394999717,789.8117394999717,790.8116169999703,791.2450795830227,791.497456083016,791.497456083016,791.497456083016,792.8116369160125,792.8116369160125,792.8116369160125,792.8116369160125,793.8308024579892,200007,001,2023-04-11_08h39.15.080,DMS_et_12-36,2022.2.4,None,
97,PRED,12,0.6850590835942414,2,images/picture_3.png,images/picture_1.png,0,"[-11.733433509789466, -11.733433509789462]",-11.733433509789464,-11.733433509789462,images/picture_2.png,1,"[-11.733433509789462, 11.733433509789464]",-11.733433509789462,11.733433509789464,images/picture_3.png,2,"[11.733433509789462, -11.733433509789466]",11.733433509789462,-11.733433509789464,0,1,1,0.6850590835942414,1.6850590835942414,1.3149409164057586,3.0,1,1.4350590835942414,0,4.0,3.0,1,2,10,0,10,0,0,7,7,7,,,,,,,793.8308024579892,793.8308024579892,794.8448732909746,795.2783636659733,795.4977464160183,795.4977464160183,795.4977464160183,796.8117617079988,796.8117617079988,796.8117617079988,796.8117617079988,797.8302998329746,200007,001,2023-04-11_08h39.15.080,DMS_et_12-36,2022.2.4,None,
93,PRED,12,0.6850590835942414,2,images/picture_3.png,images/picture_1.png,0,"[11.733433509789464, 11.733433509789462]",11.733433509789464,11.733433509789462,images/picture_2.png,1,"[-11.733433509789466, -11.733433509789462]",-11.733433509789464,-11.733433509789462,images/picture_3.png,2,"[-11.733433509789462, 11.733433509789464]",-11.733433509789462,11.733433509789464,0,1,1,0.6850590835942414,1.6850590835942414,1.3149409164057586,3.0,1,1.4350590835942414,0,4.0,3.0,1,2,10,0,10,0,0,8,8,3,,,,,,,797.8302998329746,797.8302998329746,798.8450769580086,799.2784978749696,799.4979047909728,799.4979047909728,799.4979047909728,800.8117060409859,800.8117060409859,800.8117060409859,800.8117060409859,801.9276886659791,200007,001,2023-04-11_08h39.15.080,DMS_et_12-36,2022.2.4,None,
,,,,,,,,,,,,,,,,,,,,,,,,,,,,,,,,,,,10,0,10,0,,,,,,,,,801.9276886659791,813.9500320829684,,,,,,,,,,,,,200007,001,2023-04-11_08h39.15.080,DMS_et_12-36,2022.2.4,None,
105,UNPRED,12,0.6850590835942414,0,images/picture_1.png,images/picture_1.png,0,"[-11.733433509789466, -11.733433509789462]",-11.733433509789464,-11.733433509789462,images/picture_2.png,1,"[11.733433509789464, 11.733433509789462]",11.733433509789464,11.733433509789462,images/picture_3.png,2,"[-11.733433509789462, 11.733433509789464]",-11.733433509789462,11.733433509789464,0,1,1,0.6850590835942414,1.6850590835942414,1.3149409164057586,3.0,1,1.4350590835942414,0,4.0,3.0,1,2,11,0,11,0,0,0,0,6,,,,,,,813.9500320829684,813.9500320829684,814.9643324160133,815.3965709999902,815.6310143750161,815.6310143750161,815.6310143750161,816.9450718750013,816.9450718750013,816.9450718750013,816.9450718750013,817.9444855410256,200007,001,2023-04-11_08h39.15.080,DMS_et_12-36,2022.2.4,None,
104,UNPRED,12,0.6850590835942414,0,images/picture_1.png,images/picture_1.png,0,"[11.733433509789462, -11.733433509789466]",11.733433509789462,-11.733433509789464,images/picture_2.png,1,"[-11.733433509789462, 11.733433509789464]",-11.733433509789462,11.733433509789464,images/picture_3.png,2,"[-11.733433509789466, -11.733433509789462]",-11.733433509789464,-11.733433509789462,0,1,1,0.6850590835942414,1.6850590835942414,1.3149409164057586,3.0,1,1.4350590835942414,0,4.0,3.0,1,2,11,0,11,0,0,1,1,5,,,,,,,817.9444855410256,817.9444855410256,818.9450550000183,819.3784003750188,819.6308458329877,819.6308458329877,819.6308458329877,820.9449635409983,820.9449635409983,820.9449635409983,820.9449635409983,821.963624875003,200007,001,2023-04-11_08h39.15.080,DMS_et_12-36,2022.2.4,None,
107,UNPRED,12,0.6850590835942414,2,images/picture_3.png,images/picture_1.png,0,"[-11.733433509789466, -11.733433509789462]",-11.733433509789464,-11.733433509789462,images/picture_2.png,1,"[-11.733433509789462, 11.733433509789464]",-11.733433509789462,11.733433509789464,images/picture_3.png,2,"[11.733433509789464, 11.733433509789462]",11.733433509789464,11.733433509789462,0,1,1,0.6850590835942414,1.6850590835942414,1.3149409164057586,3.0,1,1.4350590835942414,0,4.0,3.0,1,2,11,0,11,0,0,2,2,8,,,,,,,821.963624875003,821.963624875003,822.9783407910145,823.4118266250007,823.6309496660251,823.6309496660251,823.6309496660251,824.9450804999797,824.9450804999797,824.9450804999797,824.9450804999797,825.963744290988,200007,001,2023-04-11_08h39.15.080,DMS_et_12-36,2022.2.4,None,
106,UNPRED,12,0.6850590835942414,2,images/picture_3.png,images/picture_1.png,0,"[11.733433509789464, 11.733433509789462]",11.733433509789464,11.733433509789462,images/picture_2.png,1,"[-11.733433509789466, -11.733433509789462]",-11.733433509789464,-11.733433509789462,images/picture_3.png,2,"[-11.733433509789462, 11.733433509789464]",-11.733433509789462,11.733433509789464,0,1,1,0.6850590835942414,1.6850590835942414,1.3149409164057586,3.0,1,1.4350590835942414,0,4.0,3.0,1,2,11,0,11,0,0,3,3,7,,,,,,,825.963744290988,825.963744290988,826.9783470829716,827.4118643749971,827.6308868330088,827.6308868330088,827.6308868330088,828.9450934579945,828.9450934579945,828.9450934579945,828.9450934579945,829.945153040986,200007,001,2023-04-11_08h39.15.080,DMS_et_12-36,2022.2.4,None,
101,UNPRED,12,0.6850590835942414,1,images/picture_2.png,images/picture_1.png,0,"[11.733433509789464, 11.733433509789462]",11.733433509789464,11.733433509789462,images/picture_2.png,1,"[11.733433509789462, -11.733433509789466]",11.733433509789462,-11.733433509789464,images/picture_3.png,2,"[-11.733433509789466, -11.733433509789462]",-11.733433509789464,-11.733433509789462,0,1,1,0.6850590835942414,1.6850590835942414,1.3149409164057586,3.0,1,1.4350590835942414,0,4.0,3.0,1,2,11,0,11,0,0,4,4,2,,,,,,,829.945153040986,829.945153040986,830.9448088749778,831.3782415000023,831.6306422500056,831.6306422500056,831.6306422500056,832.9450667080237,832.9450667080237,832.9450667080237,832.9450667080237,833.9445897499681,200007,001,2023-04-11_08h39.15.080,DMS_et_12-36,2022.2.4,None,
102,UNPRED,12,0.6850590835942414,1,images/picture_2.png,images/picture_1.png,0,"[11.733433509789464, 11.733433509789462]",11.733433509789464,11.733433509789462,images/picture_2.png,1,"[-11.733433509789466, -11.733433509789462]",-11.733433509789464,-11.733433509789462,images/picture_3.png,2,"[11.733433509789462, -11.733433509789466]",11.733433509789462,-11.733433509789464,0,1,1,0.6850590835942414,1.6850590835942414,1.3149409164057586,3.0,1,1.4350590835942414,0,4.0,3.0,1,2,11,0,11,0,0,5,5,3,,,,,,,833.9445897499681,833.9445897499681,834.9450647910126,835.3785115409992,835.6308203749941,835.6308203749941,835.6308203749941,836.9451334159821,836.9451334159821,836.9451334159821,836.9451334159821,837.963710541022,200007,001,2023-04-11_08h39.15.080,DMS_et_12-36,2022.2.4,None,
99,UNPRED,12,0.6850590835942414,2,images/picture_3.png,images/picture_1.png,0,"[-11.733433509789466, -11.733433509789462]",-11.733433509789464,-11.733433509789462,images/picture_2.png,1,"[11.733433509789462, -11.733433509789466]",11.733433509789462,-11.733433509789464,images/picture_3.png,2,"[11.733433509789464, 11.733433509789462]",11.733433509789464,11.733433509789462,0,1,1,0.6850590835942414,1.6850590835942414,1.3149409164057586,3.0,1,1.4350590835942414,0,4.0,3.0,1,2,11,0,11,0,0,6,6,0,,,,,,,837.963710541022,837.963710541022,838.9784715410206,839.41203675,839.6315778749995,839.6315778749995,839.6315778749995,840.9448680829955,840.9448680829955,840.9448680829955,840.9448680829955,841.9461988330004,200007,001,2023-04-11_08h39.15.080,DMS_et_12-36,2022.2.4,None,
100,UNPRED,12,0.6850590835942414,0,images/picture_1.png,images/picture_1.png,0,"[11.733433509789464, 11.733433509789462]",11.733433509789464,11.733433509789462,images/picture_2.png,1,"[11.733433509789462, -11.733433509789466]",11.733433509789462,-11.733433509789464,images/picture_3.png,2,"[-11.733433509789466, -11.733433509789462]",-11.733433509789464,-11.733433509789462,0,1,1,0.6850590835942414,1.6850590835942414,1.3149409164057586,3.0,1,1.4350590835942414,0,4.0,3.0,1,2,11,0,11,0,0,7,7,1,,,,,,,841.9461988330004,841.9461988330004,842.9451229579863,843.3785122910049,843.6311681660009,843.6311681660009,843.6311681660009,844.945080458012,844.945080458012,844.945080458012,844.945080458012,845.9445625829976,200007,001,2023-04-11_08h39.15.080,DMS_et_12-36,2022.2.4,None,
103,UNPRED,12,0.6850590835942414,0,images/picture_1.png,images/picture_1.png,0,"[-11.733433509789462, 11.733433509789464]",-11.733433509789462,11.733433509789464,images/picture_2.png,1,"[11.733433509789464, 11.733433509789462]",11.733433509789464,11.733433509789462,images/picture_3.png,2,"[11.733433509789462, -11.733433509789466]",11.733433509789462,-11.733433509789464,0,1,1,0.6850590835942414,1.6850590835942414,1.3149409164057586,3.0,1,1.4350590835942414,0,4.0,3.0,1,2,11,0,11,0,0,8,8,4,,,,,,,845.9445625829976,845.9445625829976,846.9452033750131,847.3783733749879,847.631061166001,847.631061166001,847.631061166001,848.9451084160246,848.9451084160246,848.9451084160246,848.9451084160246,850.1169044999988,200007,001,2023-04-11_08h39.15.080,DMS_et_12-36,2022.2.4,None,
,,,,,,,,,,,,,,,,,,,,,,,,,,,,,,,,,,,11,0,11,0,,,,,,,,,850.1169044999988,862.2438977080164,,,,,,,,,,,,,200007,001,2023-04-11_08h39.15.080,DMS_et_12-36,2022.2.4,None,
,,,,,,,,,,,,,,,,,,,,,,,,,,,,,,,,,,,,,,,,,,,,,,,862.2438977080164,874.7543437909917,,,,,,,,,,,,,,,,,,,
