trial_count,blockType,blockNum,delay_time,stimImage_i,stimImage,responseImage1,responseImage1_i,responseImage1_pos,responseImage1_X,responseImage1_Y,responseImage2,responseImage2_i,responseImage2_pos,responseImage2_X,responseImage2_Y,responseImage3,responseImage3_i,responseImage3_pos,responseImage3_X,responseImage3_Y,cue_onset,cue_dur,delay_onset,delay_dur,resp_onset,resp_dur,rest_onset,rest_dur,circle_dur,circle_onset,total_dur,cross_onset,cross_dur,delay_resp_period,blocks.thisRepN,blocks.thisTrialN,blocks.thisN,blocks.thisIndex,trials.thisRepN,trials.thisTrialN,trials.thisN,trials.thisIndex,key_resp.started,text.started,key_resp.keys,key_resp.rt,text_2.started,text_2.stopped,sample.started,Delay.started,sample.stopped,Delay.stopped,Response_1.started,Response_2.started,Response_3.started,Response_1.stopped,Response_2.stopped,Response_3.stopped,polygon.started,polygon.stopped,participant,session,date,expName,psychopyVersion,frameRate,
,,,,,,,,,,,,,,,,,,,,,,,,,,,,,,,,,,,,,,,,,,,75.11980037500007,75.11980037500007,t,74.19295720899981,,,,,,,,,,,,,,,200007,005,2023-04-11_09h34.36.036,DMS_et_12-36,2022.2.4,None,
2,PRED,12,1.0338939206976834,0,images/picture_1.png,images/picture_1.png,0,"[-11.733433509789466, -11.733433509789462]",-11.733433509789464,-11.733433509789462,images/picture_2.png,1,"[11.733433509789464, 11.733433509789462]",11.733433509789464,11.733433509789462,images/picture_3.png,2,"[-11.733433509789462, 11.733433509789464]",-11.733433509789462,11.733433509789464,0,1,1,1.0338939206976834,2.033893920697684,0.9661060793023166,3.0,1,1.7838939206976834,0,4.0,3.0,1,2,0,0,0,0,0,0,0,2,,,,,149.83128354200016,161.86299375,161.86299375,161.86299375,162.87590395799998,163.6567043330001,163.89004387500017,163.89004387500017,163.89004387500017,164.85688258300024,164.85688258300024,164.85688258300024,164.85688258300024,165.85639412499995,200007,005,2023-04-11_09h34.36.036,DMS_et_12-36,2022.2.4,None,
0,PRED,12,1.0338939206976834,0,images/picture_1.png,images/picture_1.png,0,"[11.733433509789464, 11.733433509789462]",11.733433509789464,11.733433509789462,images/picture_2.png,1,"[-11.733433509789462, 11.733433509789464]",-11.733433509789462,11.733433509789464,images/picture_3.png,2,"[-11.733433509789466, -11.733433509789462]",-11.733433509789464,-11.733433509789462,0,1,1,1.0338939206976834,2.033893920697684,0.9661060793023166,3.0,1,1.7838939206976834,0,4.0,3.0,1,2,0,0,0,0,0,1,1,0,,,,,,,165.85639412499995,165.85639412499995,166.8567042919999,167.64235695800016,167.89003104199992,167.89003104199992,167.89003104199992,168.85673316700013,168.85673316700013,168.85673316700013,168.85673316700013,169.85613254200007,200007,005,2023-04-11_09h34.36.036,DMS_et_12-36,2022.2.4,None,
1,PRED,12,1.0338939206976834,0,images/picture_1.png,images/picture_1.png,0,"[11.733433509789464, 11.733433509789462]",11.733433509789464,11.733433509789462,images/picture_2.png,1,"[-11.733433509789466, -11.733433509789462]",-11.733433509789464,-11.733433509789462,images/picture_3.png,2,"[-11.733433509789462, 11.733433509789464]",-11.733433509789462,11.733433509789464,0,1,1,1.0338939206976834,2.033893920697684,0.9661060793023166,3.0,1,1.7838939206976834,0,4.0,3.0,1,2,0,0,0,0,0,2,2,1,,,,,,,169.85613254200007,169.85613254200007,170.856718042,171.642606375,171.8900012920003,171.8900012920003,171.8900012920003,172.85674212499998,172.85674212499998,172.85674212499998,172.85674212499998,173.8562742920003,200007,005,2023-04-11_09h34.36.036,DMS_et_12-36,2022.2.4,None,
3,PRED,12,1.0338939206976834,0,images/picture_1.png,images/picture_1.png,0,"[11.733433509789462, -11.733433509789466]",11.733433509789462,-11.733433509789464,images/picture_2.png,1,"[-11.733433509789462, 11.733433509789464]",-11.733433509789462,11.733433509789464,images/picture_3.png,2,"[-11.733433509789466, -11.733433509789462]",-11.733433509789464,-11.733433509789462,0,1,1,1.0338939206976834,2.033893920697684,0.9661060793023166,3.0,1,1.7838939206976834,0,4.0,3.0,1,2,0,0,0,0,0,3,3,3,,,,,,,173.8562742920003,173.8562742920003,174.85674491700001,175.64255125,175.88981508300003,175.88981508300003,175.88981508300003,176.85643291700035,176.85643291700035,176.85643291700035,176.85643291700035,177.8561718750002,200007,005,2023-04-11_09h34.36.036,DMS_et_12-36,2022.2.4,None,
8,PRED,12,1.0338939206976834,0,images/picture_1.png,images/picture_1.png,0,"[-11.733433509789466, -11.733433509789462]",-11.733433509789464,-11.733433509789462,images/picture_2.png,1,"[11.733433509789462, -11.733433509789466]",11.733433509789462,-11.733433509789464,images/picture_3.png,2,"[-11.733433509789462, 11.733433509789464]",-11.733433509789462,11.733433509789464,0,1,1,1.0338939206976834,2.033893920697684,0.9661060793023166,3.0,1,1.7838939206976834,0,4.0,3.0,1,2,0,0,0,0,0,4,4,8,,,,,,,177.8561718750002,177.8561718750002,178.85675029200002,179.64282370799992,179.8900805420003,179.8900805420003,179.8900805420003,180.85681049999994,180.85681049999994,180.85681049999994,180.85681049999994,181.85618895800008,200007,005,2023-04-11_09h34.36.036,DMS_et_12-36,2022.2.4,None,
4,PRED,12,1.0338939206976834,0,images/picture_1.png,images/picture_1.png,0,"[-11.733433509789462, 11.733433509789464]",-11.733433509789462,11.733433509789464,images/picture_2.png,1,"[11.733433509789464, 11.733433509789462]",11.733433509789464,11.733433509789462,images/picture_3.png,2,"[11.733433509789462, -11.733433509789466]",11.733433509789462,-11.733433509789464,0,1,1,1.0338939206976834,2.033893920697684,0.9661060793023166,3.0,1,1.7838939206976834,0,4.0,3.0,1,2,0,0,0,0,0,5,5,4,,,,,,,181.85618895800008,181.85618895800008,182.85671150000007,183.64282437500015,183.89000024999996,183.89000024999996,183.89000024999996,184.8567290000001,184.8567290000001,184.8567290000001,184.8567290000001,185.85641483300014,200007,005,2023-04-11_09h34.36.036,DMS_et_12-36,2022.2.4,None,
7,PRED,12,1.0338939206976834,0,images/picture_1.png,images/picture_1.png,0,"[-11.733433509789462, 11.733433509789464]",-11.733433509789462,11.733433509789464,images/picture_2.png,1,"[11.733433509789464, 11.733433509789462]",11.733433509789464,11.733433509789462,images/picture_3.png,2,"[11.733433509789462, -11.733433509789466]",11.733433509789462,-11.733433509789464,0,1,1,1.0338939206976834,2.033893920697684,0.9661060793023166,3.0,1,1.7838939206976834,0,4.0,3.0,1,2,0,0,0,0,0,6,6,7,,,,,,,185.85641483300014,185.85641483300014,186.85676016700017,187.64271833300018,187.89020333300004,187.89020333300004,187.89020333300004,188.85672150000028,188.85672150000028,188.85672150000028,188.85672150000028,189.85647479199997,200007,005,2023-04-11_09h34.36.036,DMS_et_12-36,2022.2.4,None,
5,PRED,12,1.0338939206976834,0,images/picture_1.png,images/picture_1.png,0,"[-11.733433509789462, 11.733433509789464]",-11.733433509789462,11.733433509789464,images/picture_2.png,1,"[11.733433509789464, 11.733433509789462]",11.733433509789464,11.733433509789462,images/picture_3.png,2,"[11.733433509789462, -11.733433509789466]",11.733433509789462,-11.733433509789464,0,1,1,1.0338939206976834,2.033893920697684,0.9661060793023166,3.0,1,1.7838939206976834,0,4.0,3.0,1,2,0,0,0,0,0,7,7,5,,,,,,,189.85647479199997,189.85647479199997,190.8567526669999,191.64275616700024,191.89001154200014,191.89001154200014,191.89001154200014,192.85675945799994,192.85675945799994,192.85675945799994,192.85675945799994,193.85645716699992,200007,005,2023-04-11_09h34.36.036,DMS_et_12-36,2022.2.4,None,
6,PRED,12,1.0338939206976834,0,images/picture_1.png,images/picture_1.png,0,"[-11.733433509789462, 11.733433509789464]",-11.733433509789462,11.733433509789464,images/picture_2.png,1,"[-11.733433509789466, -11.733433509789462]",-11.733433509789464,-11.733433509789462,images/picture_3.png,2,"[11.733433509789462, -11.733433509789466]",11.733433509789462,-11.733433509789464,0,1,1,1.0338939206976834,2.033893920697684,0.9661060793023166,3.0,1,1.7838939206976834,0,4.0,3.0,1,2,0,0,0,0,0,8,8,6,,,,,,,193.85645716699992,193.85645716699992,194.85684604200014,195.64246550000007,195.89023674999999,195.89023674999999,195.89023674999999,196.85649908300002,196.85649908300002,196.85649908300002,196.85649908300002,197.87576591700008,200007,005,2023-04-11_09h34.36.036,DMS_et_12-36,2022.2.4,None,
,,,,,,,,,,,,,,,,,,,,,,,,,,,,,,,,,,,0,0,0,0,,,,,,,,,197.87576591700008,209.9086174170002,,,,,,,,,,,,,200007,005,2023-04-11_09h34.36.036,DMS_et_12-36,2022.2.4,None,
11,UNPRED,12,1.0338939206976834,0,images/picture_1.png,images/picture_1.png,0,"[-11.733433509789466, -11.733433509789462]",-11.733433509789464,-11.733433509789462,images/picture_2.png,1,"[-11.733433509789462, 11.733433509789464]",-11.733433509789462,11.733433509789464,images/picture_3.png,2,"[11.733433509789462, -11.733433509789466]",11.733433509789462,-11.733433509789464,0,1,1,1.0338939206976834,2.033893920697684,0.9661060793023166,3.0,1,1.7838939206976834,0,4.0,3.0,1,2,1,0,1,0,0,0,0,2,,,,,,,209.9086174170002,209.9086174170002,210.92356104200007,211.6902691250002,211.94255066699998,211.94255066699998,211.94255066699998,212.92347474999997,212.92347474999997,212.92347474999997,212.90941137500022,213.94214287500017,200007,005,2023-04-11_09h34.36.036,DMS_et_12-36,2022.2.4,None,
13,UNPRED,12,1.0338939206976834,2,images/picture_3.png,images/picture_1.png,0,"[11.733433509789464, 11.733433509789462]",11.733433509789464,11.733433509789462,images/picture_2.png,1,"[-11.733433509789466, -11.733433509789462]",-11.733433509789464,-11.733433509789462,images/picture_3.png,2,"[11.733433509789462, -11.733433509789466]",11.733433509789462,-11.733433509789464,0,1,1,1.0338939206976834,2.033893920697684,0.9661060793023166,3.0,1,1.7838939206976834,0,4.0,3.0,1,2,1,0,1,0,0,1,1,4,,,,,,,213.94214287500017,213.94214287500017,214.95677166700034,215.7235175830001,215.95674633299996,215.95674633299996,215.95674633299996,216.92321520800033,216.92321520800033,216.92321520800033,216.92321520800033,217.9233266670003,200007,005,2023-04-11_09h34.36.036,DMS_et_12-36,2022.2.4,None,
14,UNPRED,12,1.0338939206976834,1,images/picture_2.png,images/picture_1.png,0,"[-11.733433509789462, 11.733433509789464]",-11.733433509789462,11.733433509789464,images/picture_2.png,1,"[11.733433509789462, -11.733433509789466]",11.733433509789462,-11.733433509789464,images/picture_3.png,2,"[11.733433509789464, 11.733433509789462]",11.733433509789464,11.733433509789462,0,1,1,1.0338939206976834,2.033893920697684,0.9661060793023166,3.0,1,1.7838939206976834,0,4.0,3.0,1,2,1,0,1,0,0,2,2,5,,,,,,,217.9233266670003,217.9233266670003,218.92345754200005,219.71016475000033,219.95671625000023,219.95671625000023,219.95671625000023,220.92369416700012,220.92369416700012,220.92369416700012,220.92369416700012,221.94212562500024,200007,005,2023-04-11_09h34.36.036,DMS_et_12-36,2022.2.4,None,
9,UNPRED,12,1.0338939206976834,2,images/picture_3.png,images/picture_1.png,0,"[-11.733433509789462, 11.733433509789464]",-11.733433509789462,11.733433509789464,images/picture_2.png,1,"[11.733433509789462, -11.733433509789466]",11.733433509789462,-11.733433509789464,images/picture_3.png,2,"[-11.733433509789466, -11.733433509789462]",-11.733433509789464,-11.733433509789462,0,1,1,1.0338939206976834,2.033893920697684,0.9661060793023166,3.0,1,1.7838939206976834,0,4.0,3.0,1,2,1,0,1,0,0,3,3,0,,,,,,,221.94212562500024,221.94212562500024,222.9567545,223.72351800000024,223.95695316699994,223.95695316699994,223.95695316699994,224.9236323330001,224.9236323330001,224.9236323330001,224.9236323330001,225.92304712500027,200007,005,2023-04-11_09h34.36.036,DMS_et_12-36,2022.2.4,None,
12,UNPRED,12,1.0338939206976834,0,images/picture_1.png,images/picture_1.png,0,"[11.733433509789462, -11.733433509789466]",11.733433509789462,-11.733433509789464,images/picture_2.png,1,"[-11.733433509789466, -11.733433509789462]",-11.733433509789464,-11.733433509789462,images/picture_3.png,2,"[-11.733433509789462, 11.733433509789464]",-11.733433509789462,11.733433509789464,0,1,1,1.0338939206976834,2.033893920697684,0.9661060793023166,3.0,1,1.7838939206976834,0,4.0,3.0,1,2,1,0,1,0,0,4,4,3,,,,,,,225.92304712500027,225.92304712500027,226.92347029200027,227.70874037500016,227.95663104200003,227.95663104200003,227.95663104200003,228.9235188749999,228.9235188749999,228.9235188749999,228.9235188749999,229.9229397920003,200007,005,2023-04-11_09h34.36.036,DMS_et_12-36,2022.2.4,None,
17,UNPRED,12,1.0338939206976834,1,images/picture_2.png,images/picture_1.png,0,"[-11.733433509789462, 11.733433509789464]",-11.733433509789462,11.733433509789464,images/picture_2.png,1,"[11.733433509789462, -11.733433509789466]",11.733433509789462,-11.733433509789464,images/picture_3.png,2,"[-11.733433509789466, -11.733433509789462]",-11.733433509789464,-11.733433509789462,0,1,1,1.0338939206976834,2.033893920697684,0.9661060793023166,3.0,1,1.7838939206976834,0,4.0,3.0,1,2,1,0,1,0,0,5,5,8,,,,,,,229.9229397920003,229.9229397920003,230.9236107920001,231.70946320800022,231.9570275420001,231.9570275420001,231.9570275420001,232.92361104200018,232.92361104200018,232.92361104200018,232.92361104200018,233.9230546670001,200007,005,2023-04-11_09h34.36.036,DMS_et_12-36,2022.2.4,None,
16,UNPRED,12,1.0338939206976834,1,images/picture_2.png,images/picture_1.png,0,"[11.733433509789462, -11.733433509789466]",11.733433509789462,-11.733433509789464,images/picture_2.png,1,"[-11.733433509789466, -11.733433509789462]",-11.733433509789464,-11.733433509789462,images/picture_3.png,2,"[-11.733433509789462, 11.733433509789464]",-11.733433509789462,11.733433509789464,0,1,1,1.0338939206976834,2.033893920697684,0.9661060793023166,3.0,1,1.7838939206976834,0,4.0,3.0,1,2,1,0,1,0,0,6,6,7,,,,,,,233.9230546670001,233.9230546670001,234.92374295800028,235.70957220800028,235.9567762920001,235.9567762920001,235.9567762920001,236.92351416700012,236.92351416700012,236.92351416700012,236.92351416700012,237.94254124999998,200007,005,2023-04-11_09h34.36.036,DMS_et_12-36,2022.2.4,None,
15,UNPRED,12,1.0338939206976834,2,images/picture_3.png,images/picture_1.png,0,"[-11.733433509789462, 11.733433509789464]",-11.733433509789462,11.733433509789464,images/picture_2.png,1,"[11.733433509789464, 11.733433509789462]",11.733433509789464,11.733433509789462,images/picture_3.png,2,"[11.733433509789462, -11.733433509789466]",11.733433509789462,-11.733433509789464,0,1,1,1.0338939206976834,2.033893920697684,0.9661060793023166,3.0,1,1.7838939206976834,0,4.0,3.0,1,2,1,0,1,0,0,7,7,6,,,,,,,237.94254124999998,237.94254124999998,238.95698554199998,239.72346837500027,239.95673270800035,239.95673270800035,239.95673270800035,240.92353304200014,240.92353304200014,240.92353304200014,240.92353304200014,241.92329420800024,200007,005,2023-04-11_09h34.36.036,DMS_et_12-36,2022.2.4,None,
10,UNPRED,12,1.0338939206976834,0,images/picture_1.png,images/picture_1.png,0,"[-11.733433509789466, -11.733433509789462]",-11.733433509789464,-11.733433509789462,images/picture_2.png,1,"[-11.733433509789462, 11.733433509789464]",-11.733433509789462,11.733433509789464,images/picture_3.png,2,"[11.733433509789464, 11.733433509789462]",11.733433509789464,11.733433509789462,0,1,1,1.0338939206976834,2.033893920697684,0.9661060793023166,3.0,1,1.7838939206976834,0,4.0,3.0,1,2,1,0,1,0,0,8,8,1,,,,,,,241.92329420800024,241.92329420800024,242.92354300000034,243.709439708,243.9569750830001,243.9569750830001,243.9569750830001,244.92360774999997,244.92360774999997,244.92360774999997,244.92360774999997,245.95469908299992,200007,005,2023-04-11_09h34.36.036,DMS_et_12-36,2022.2.4,None,
,,,,,,,,,,,,,,,,,,,,,,,,,,,,,,,,,,,1,0,1,0,,,,,,,,,245.95469908299992,257.9760322920001,,,,,,,,,,,,,200007,005,2023-04-11_09h34.36.036,DMS_et_12-36,2022.2.4,None,
24,PRED,12,1.0338939206976834,0,images/picture_1.png,images/picture_1.png,0,"[-11.733433509789462, 11.733433509789464]",-11.733433509789462,11.733433509789464,images/picture_2.png,1,"[11.733433509789464, 11.733433509789462]",11.733433509789464,11.733433509789462,images/picture_3.png,2,"[-11.733433509789466, -11.733433509789462]",-11.733433509789464,-11.733433509789462,0,1,1,1.0338939206976834,2.033893920697684,0.9661060793023166,3.0,1,1.7838939206976834,0,4.0,3.0,1,2,2,0,2,0,0,0,0,6,,,,,,,257.9760322920001,257.9760322920001,258.98990566700013,259.7570055420001,259.99042829200016,259.99042829200016,259.99042829200016,260.95696991700015,260.95696991700015,260.95696991700015,260.95696991700015,261.95657154200035,200007,005,2023-04-11_09h34.36.036,DMS_et_12-36,2022.2.4,None,
26,PRED,12,1.0338939206976834,0,images/picture_1.png,images/picture_1.png,0,"[11.733433509789462, -11.733433509789466]",11.733433509789462,-11.733433509789464,images/picture_2.png,1,"[11.733433509789464, 11.733433509789462]",11.733433509789464,11.733433509789462,images/picture_3.png,2,"[-11.733433509789466, -11.733433509789462]",-11.733433509789464,-11.733433509789462,0,1,1,1.0338939206976834,2.033893920697684,0.9661060793023166,3.0,1,1.7838939206976834,0,4.0,3.0,1,2,2,0,2,0,0,1,1,8,,,,,,,261.95657154200035,261.95657154200035,262.95697800000016,263.74273925000034,263.99021925000034,263.99021925000034,263.99021925000034,264.95702762500014,264.95702762500014,264.95702762500014,264.95702762500014,265.9566022500003,200007,005,2023-04-11_09h34.36.036,DMS_et_12-36,2022.2.4,None,
18,PRED,12,1.0338939206976834,0,images/picture_1.png,images/picture_1.png,0,"[-11.733433509789466, -11.733433509789462]",-11.733433509789464,-11.733433509789462,images/picture_2.png,1,"[11.733433509789464, 11.733433509789462]",11.733433509789464,11.733433509789462,images/picture_3.png,2,"[-11.733433509789462, 11.733433509789464]",-11.733433509789462,11.733433509789464,0,1,1,1.0338939206976834,2.033893920697684,0.9661060793023166,3.0,1,1.7838939206976834,0,4.0,3.0,1,2,2,0,2,0,0,2,2,0,,,,,,,265.9566022500003,265.9566022500003,266.95703512499995,267.7426934580003,267.99030904200026,267.99030904200026,267.99030904200026,268.95673050000005,268.95673050000005,268.95673050000005,268.95673050000005,269.95676329200023,200007,005,2023-04-11_09h34.36.036,DMS_et_12-36,2022.2.4,None,
21,PRED,12,1.0338939206976834,0,images/picture_1.png,images/picture_1.png,0,"[-11.733433509789462, 11.733433509789464]",-11.733433509789462,11.733433509789464,images/picture_2.png,1,"[11.733433509789462, -11.733433509789466]",11.733433509789462,-11.733433509789464,images/picture_3.png,2,"[11.733433509789464, 11.733433509789462]",11.733433509789464,11.733433509789462,0,1,1,1.0338939206976834,2.033893920697684,0.9661060793023166,3.0,1,1.7838939206976834,0,4.0,3.0,1,2,2,0,2,0,0,3,3,3,,,,,,,269.95676329200023,269.95676329200023,270.95702904200016,271.742950458,271.9902580830003,271.9902580830003,271.9902580830003,272.9569557919999,272.9569557919999,272.9569557919999,272.9569557919999,273.9564062500003,200007,005,2023-04-11_09h34.36.036,DMS_et_12-36,2022.2.4,None,
23,PRED,12,1.0338939206976834,0,images/picture_1.png,images/picture_1.png,0,"[-11.733433509789466, -11.733433509789462]",-11.733433509789464,-11.733433509789462,images/picture_2.png,1,"[11.733433509789462, -11.733433509789466]",11.733433509789462,-11.733433509789464,images/picture_3.png,2,"[-11.733433509789462, 11.733433509789464]",-11.733433509789462,11.733433509789464,0,1,1,1.0338939206976834,2.033893920697684,0.9661060793023166,3.0,1,1.7838939206976834,0,4.0,3.0,1,2,2,0,2,0,0,4,4,5,,,,,,,273.9564062500003,273.9564062500003,274.9570175829999,275.74246629200024,275.9903026249999,275.9903026249999,275.9903026249999,276.9570332080002,276.9570332080002,276.9570332080002,276.9570332080002,277.9564942920001,200007,005,2023-04-11_09h34.36.036,DMS_et_12-36,2022.2.4,None,
22,PRED,12,1.0338939206976834,0,images/picture_1.png,images/picture_1.png,0,"[-11.733433509789466, -11.733433509789462]",-11.733433509789464,-11.733433509789462,images/picture_2.png,1,"[11.733433509789464, 11.733433509789462]",11.733433509789464,11.733433509789462,images/picture_3.png,2,"[-11.733433509789462, 11.733433509789464]",-11.733433509789462,11.733433509789464,0,1,1,1.0338939206976834,2.033893920697684,0.9661060793023166,3.0,1,1.7838939206976834,0,4.0,3.0,1,2,2,0,2,0,0,5,5,4,,,,,,,277.9564942920001,277.9564942920001,278.95680525000034,279.74305762500035,279.99031979200026,279.99031979200026,279.99031979200026,280.9569904580003,280.9569904580003,280.9569904580003,280.9569904580003,281.9565939170002,200007,005,2023-04-11_09h34.36.036,DMS_et_12-36,2022.2.4,None,
20,PRED,12,1.0338939206976834,0,images/picture_1.png,images/picture_1.png,0,"[-11.733433509789466, -11.733433509789462]",-11.733433509789464,-11.733433509789462,images/picture_2.png,1,"[11.733433509789464, 11.733433509789462]",11.733433509789464,11.733433509789462,images/picture_3.png,2,"[11.733433509789462, -11.733433509789466]",11.733433509789462,-11.733433509789464,0,1,1,1.0338939206976834,2.033893920697684,0.9661060793023166,3.0,1,1.7838939206976834,0,4.0,3.0,1,2,2,0,2,0,0,6,6,2,,,,,,,281.9565939170002,281.9565939170002,282.95697962500026,283.7427092920002,283.99027279200027,283.99027279200027,283.99027279200027,284.9570305000002,284.9570305000002,284.9570305000002,284.9570305000002,285.9565241670002,200007,005,2023-04-11_09h34.36.036,DMS_et_12-36,2022.2.4,None,
25,PRED,12,1.0338939206976834,0,images/picture_1.png,images/picture_1.png,0,"[11.733433509789464, 11.733433509789462]",11.733433509789464,11.733433509789462,images/picture_2.png,1,"[-11.733433509789466, -11.733433509789462]",-11.733433509789464,-11.733433509789462,images/picture_3.png,2,"[-11.733433509789462, 11.733433509789464]",-11.733433509789462,11.733433509789464,0,1,1,1.0338939206976834,2.033893920697684,0.9661060793023166,3.0,1,1.7838939206976834,0,4.0,3.0,1,2,2,0,2,0,0,7,7,7,,,,,,,285.9565241670002,285.9565241670002,286.95714799999996,287.7431865000003,287.9902743749999,287.9902743749999,287.9902743749999,288.95664691699994,288.95664691699994,288.95664691699994,288.95664691699994,289.9564780420001,200007,005,2023-04-11_09h34.36.036,DMS_et_12-36,2022.2.4,None,
19,PRED,12,1.0338939206976834,0,images/picture_1.png,images/picture_1.png,0,"[-11.733433509789462, 11.733433509789464]",-11.733433509789462,11.733433509789464,images/picture_2.png,1,"[-11.733433509789466, -11.733433509789462]",-11.733433509789464,-11.733433509789462,images/picture_3.png,2,"[11.733433509789462, -11.733433509789466]",11.733433509789462,-11.733433509789464,0,1,1,1.0338939206976834,2.033893920697684,0.9661060793023166,3.0,1,1.7838939206976834,0,4.0,3.0,1,2,2,0,2,0,0,8,8,1,,,,,,,289.9564780420001,289.9564780420001,290.95698441700006,291.74275829199996,291.99043500000016,291.99043500000016,291.99043500000016,292.95699112500006,292.95699112500006,292.95699112500006,292.95699112500006,293.99885941699995,200007,005,2023-04-11_09h34.36.036,DMS_et_12-36,2022.2.4,None,
,,,,,,,,,,,,,,,,,,,,,,,,,,,,,,,,,,,2,0,2,0,,,,,,,,,293.99885941699995,306.0316966250002,,,,,,,,,,,,,200007,005,2023-04-11_09h34.36.036,DMS_et_12-36,2022.2.4,None,
33,UNPRED,12,1.0338939206976834,2,images/picture_3.png,images/picture_1.png,0,"[11.733433509789464, 11.733433509789462]",11.733433509789464,11.733433509789462,images/picture_2.png,1,"[11.733433509789462, -11.733433509789466]",11.733433509789462,-11.733433509789464,images/picture_3.png,2,"[-11.733433509789462, 11.733433509789464]",-11.733433509789462,11.733433509789464,0,1,1,1.0338939206976834,2.033893920697684,0.9661060793023166,3.0,1,1.7838939206976834,0,4.0,3.0,1,2,3,0,3,0,0,0,0,6,,,,,,,306.0316966250002,306.0316966250002,307.04304116699996,307.8240407080002,308.05700875,308.05700875,308.05700875,309.0238222500002,309.0238222500002,309.0238222500002,309.0238222500002,310.02330520800024,200007,005,2023-04-11_09h34.36.036,DMS_et_12-36,2022.2.4,None,
34,UNPRED,12,1.0338939206976834,1,images/picture_2.png,images/picture_1.png,0,"[11.733433509789462, -11.733433509789466]",11.733433509789462,-11.733433509789464,images/picture_2.png,1,"[-11.733433509789462, 11.733433509789464]",-11.733433509789462,11.733433509789464,images/picture_3.png,2,"[11.733433509789464, 11.733433509789462]",11.733433509789464,11.733433509789462,0,1,1,1.0338939206976834,2.033893920697684,0.9661060793023166,3.0,1,1.7838939206976834,0,4.0,3.0,1,2,3,0,3,0,0,1,1,7,,,,,,,310.02330520800024,310.02330520800024,311.02373533300033,311.80973629200025,312.05703004199995,312.05703004199995,312.05703004199995,313.0237553750003,313.0237553750003,313.0237553750003,313.0237553750003,314.04220020799994,200007,005,2023-04-11_09h34.36.036,DMS_et_12-36,2022.2.4,None,
31,UNPRED,12,1.0338939206976834,2,images/picture_3.png,images/picture_1.png,0,"[-11.733433509789466, -11.733433509789462]",-11.733433509789464,-11.733433509789462,images/picture_2.png,1,"[11.733433509789462, -11.733433509789466]",11.733433509789462,-11.733433509789464,images/picture_3.png,2,"[-11.733433509789462, 11.733433509789464]",-11.733433509789462,11.733433509789464,0,1,1,1.0338939206976834,2.033893920697684,0.9661060793023166,3.0,1,1.7838939206976834,0,4.0,3.0,1,2,3,0,3,0,0,2,2,4,,,,,,,314.04220020799994,314.04220020799994,315.0570278330001,315.82383233300015,316.0570321670002,316.0570321670002,316.0570321670002,317.02372441700027,317.02372441700027,317.02372441700027,317.02372441700027,318.023191708,200007,005,2023-04-11_09h34.36.036,DMS_et_12-36,2022.2.4,None,
28,UNPRED,12,1.0338939206976834,1,images/picture_2.png,images/picture_1.png,0,"[-11.733433509789462, 11.733433509789464]",-11.733433509789462,11.733433509789464,images/picture_2.png,1,"[-11.733433509789466, -11.733433509789462]",-11.733433509789464,-11.733433509789462,images/picture_3.png,2,"[11.733433509789462, -11.733433509789466]",11.733433509789462,-11.733433509789464,0,1,1,1.0338939206976834,2.033893920697684,0.9661060793023166,3.0,1,1.7838939206976834,0,4.0,3.0,1,2,3,0,3,0,0,3,3,1,,,,,,,318.023191708,318.023191708,319.0237884170001,319.80888675000006,320.0568302500001,320.0568302500001,320.0568302500001,321.02385412500007,321.02385412500007,321.02385412500007,321.02385412500007,322.02319312500003,200007,005,2023-04-11_09h34.36.036,DMS_et_12-36,2022.2.4,None,
29,UNPRED,12,1.0338939206976834,1,images/picture_2.png,images/picture_1.png,0,"[11.733433509789462, -11.733433509789466]",11.733433509789462,-11.733433509789464,images/picture_2.png,1,"[11.733433509789464, 11.733433509789462]",11.733433509789464,11.733433509789462,images/picture_3.png,2,"[-11.733433509789466, -11.733433509789462]",-11.733433509789464,-11.733433509789462,0,1,1,1.0338939206976834,2.033893920697684,0.9661060793023166,3.0,1,1.7838939206976834,0,4.0,3.0,1,2,3,0,3,0,0,4,4,2,,,,,,,322.02319312500003,322.02319312500003,323.023759875,323.8095075420001,324.0570600000001,324.0570600000001,324.0570600000001,325.02373070800013,325.02373070800013,325.02373070800013,325.02373070800013,326.0430689580003,200007,005,2023-04-11_09h34.36.036,DMS_et_12-36,2022.2.4,None,
32,UNPRED,12,1.0338939206976834,2,images/picture_3.png,images/picture_1.png,0,"[11.733433509789462, -11.733433509789466]",11.733433509789462,-11.733433509789464,images/picture_2.png,1,"[11.733433509789464, 11.733433509789462]",11.733433509789464,11.733433509789462,images/picture_3.png,2,"[-11.733433509789462, 11.733433509789464]",-11.733433509789462,11.733433509789464,0,1,1,1.0338939206976834,2.033893920697684,0.9661060793023166,3.0,1,1.7838939206976834,0,4.0,3.0,1,2,3,0,3,0,0,5,5,5,,,,,,,326.0430689580003,326.0430689580003,327.05724050000026,327.82378991700034,328.05700029200034,328.05700029200034,328.05700029200034,329.0237390000002,329.0237390000002,329.0237390000002,329.0237390000002,330.0233792500003,200007,005,2023-04-11_09h34.36.036,DMS_et_12-36,2022.2.4,None,
30,UNPRED,12,1.0338939206976834,0,images/picture_1.png,images/picture_1.png,0,"[11.733433509789462, -11.733433509789466]",11.733433509789462,-11.733433509789464,images/picture_2.png,1,"[-11.733433509789462, 11.733433509789464]",-11.733433509789462,11.733433509789464,images/picture_3.png,2,"[-11.733433509789466, -11.733433509789462]",-11.733433509789464,-11.733433509789462,0,1,1,1.0338939206976834,2.033893920697684,0.9661060793023166,3.0,1,1.7838939206976834,0,4.0,3.0,1,2,3,0,3,0,0,6,6,3,,,,,,,330.0233792500003,330.0233792500003,331.0237134170002,331.80942733300026,332.0570667920001,332.0570667920001,332.0570667920001,333.02377070800003,333.02377070800003,333.02377070800003,333.02377070800003,334.02323745800004,200007,005,2023-04-11_09h34.36.036,DMS_et_12-36,2022.2.4,None,
35,UNPRED,12,1.0338939206976834,1,images/picture_2.png,images/picture_1.png,0,"[-11.733433509789466, -11.733433509789462]",-11.733433509789464,-11.733433509789462,images/picture_2.png,1,"[-11.733433509789462, 11.733433509789464]",-11.733433509789462,11.733433509789464,images/picture_3.png,2,"[11.733433509789462, -11.733433509789466]",11.733433509789462,-11.733433509789464,0,1,1,1.0338939206976834,2.033893920697684,0.9661060793023166,3.0,1,1.7838939206976834,0,4.0,3.0,1,2,3,0,3,0,0,7,7,8,,,,,,,334.02323745800004,334.02323745800004,335.0238120419999,335.80984800000033,336.0570895000001,336.0570895000001,336.0570895000001,337.02374075000034,337.02374075000034,337.02374075000034,337.02374075000034,338.0228486250003,200007,005,2023-04-11_09h34.36.036,DMS_et_12-36,2022.2.4,None,
27,UNPRED,12,1.0338939206976834,1,images/picture_2.png,images/picture_1.png,0,"[11.733433509789464, 11.733433509789462]",11.733433509789464,11.733433509789462,images/picture_2.png,1,"[-11.733433509789466, -11.733433509789462]",-11.733433509789464,-11.733433509789462,images/picture_3.png,2,"[11.733433509789462, -11.733433509789466]",11.733433509789462,-11.733433509789464,0,1,1,1.0338939206976834,2.033893920697684,0.9661060793023166,3.0,1,1.7838939206976834,0,4.0,3.0,1,2,3,0,3,0,0,8,8,0,,,,,,,338.0228486250003,338.0228486250003,339.02371604200016,339.80947400000014,340.056745375,340.056745375,340.056745375,341.0237488749999,341.0237488749999,341.0237488749999,341.0237488749999,342.073783542,200007,005,2023-04-11_09h34.36.036,DMS_et_12-36,2022.2.4,None,
,,,,,,,,,,,,,,,,,,,,,,,,,,,,,,,,,,,3,0,3,0,,,,,,,,,342.073783542,354.10113550000005,,,,,,,,,,,,,200007,005,2023-04-11_09h34.36.036,DMS_et_12-36,2022.2.4,None,
38,PRED,12,1.0338939206976834,2,images/picture_3.png,images/picture_1.png,0,"[11.733433509789462, -11.733433509789466]",11.733433509789462,-11.733433509789464,images/picture_2.png,1,"[-11.733433509789462, 11.733433509789464]",-11.733433509789462,11.733433509789464,images/picture_3.png,2,"[11.733433509789464, 11.733433509789462]",11.733433509789464,11.733433509789462,0,1,1,1.0338939206976834,2.033893920697684,0.9661060793023166,3.0,1,1.7838939206976834,0,4.0,3.0,1,2,4,0,4,0,0,0,0,2,,,,,,,354.10113550000005,354.10113550000005,355.1104056250001,355.89071920800006,356.12379445800025,356.12379445800025,356.12379445800025,357.0905191669999,357.0905191669999,357.0905191669999,357.0905191669999,358.10898829200005,200007,005,2023-04-11_09h34.36.036,DMS_et_12-36,2022.2.4,None,
36,PRED,12,1.0338939206976834,2,images/picture_3.png,images/picture_1.png,0,"[11.733433509789462, -11.733433509789466]",11.733433509789462,-11.733433509789464,images/picture_2.png,1,"[11.733433509789464, 11.733433509789462]",11.733433509789464,11.733433509789462,images/picture_3.png,2,"[-11.733433509789466, -11.733433509789462]",-11.733433509789464,-11.733433509789462,0,1,1,1.0338939206976834,2.033893920697684,0.9661060793023166,3.0,1,1.7838939206976834,0,4.0,3.0,1,2,4,0,4,0,0,1,1,0,,,,,,,358.10898829200005,358.10898829200005,359.1239438749999,359.8905291670003,360.12377379200007,360.12377379200007,360.12377379200007,361.09023849999994,361.09023849999994,361.09023849999994,361.09023849999994,362.109035167,200007,005,2023-04-11_09h34.36.036,DMS_et_12-36,2022.2.4,None,
39,PRED,12,1.0338939206976834,2,images/picture_3.png,images/picture_1.png,0,"[11.733433509789464, 11.733433509789462]",11.733433509789464,11.733433509789462,images/picture_2.png,1,"[-11.733433509789466, -11.733433509789462]",-11.733433509789464,-11.733433509789462,images/picture_3.png,2,"[11.733433509789462, -11.733433509789466]",11.733433509789462,-11.733433509789464,0,1,1,1.0338939206976834,2.033893920697684,0.9661060793023166,3.0,1,1.7838939206976834,0,4.0,3.0,1,2,4,0,4,0,0,2,2,3,,,,,,,362.109035167,362.109035167,363.12393900000006,363.8905245830001,364.12400075000005,364.12400075000005,364.12400075000005,365.09059045799995,365.09059045799995,365.09059045799995,365.09059045799995,366.10905437500014,200007,005,2023-04-11_09h34.36.036,DMS_et_12-36,2022.2.4,None,
40,PRED,12,1.0338939206976834,2,images/picture_3.png,images/picture_1.png,0,"[11.733433509789462, -11.733433509789466]",11.733433509789462,-11.733433509789464,images/picture_2.png,1,"[-11.733433509789466, -11.733433509789462]",-11.733433509789464,-11.733433509789462,images/picture_3.png,2,"[11.733433509789464, 11.733433509789462]",11.733433509789464,11.733433509789462,0,1,1,1.0338939206976834,2.033893920697684,0.9661060793023166,3.0,1,1.7838939206976834,0,4.0,3.0,1,2,4,0,4,0,0,3,3,4,,,,,,,366.10905437500014,366.10905437500014,367.12376141699997,367.890548375,368.12381970800016,368.12381970800016,368.12381970800016,369.0905618750003,369.0905618750003,369.0905618750003,369.0905618750003,370.1099520830003,200007,005,2023-04-11_09h34.36.036,DMS_et_12-36,2022.2.4,None,
37,PRED,12,1.0338939206976834,2,images/picture_3.png,images/picture_1.png,0,"[-11.733433509789462, 11.733433509789464]",-11.733433509789462,11.733433509789464,images/picture_2.png,1,"[11.733433509789462, -11.733433509789466]",11.733433509789462,-11.733433509789464,images/picture_3.png,2,"[11.733433509789464, 11.733433509789462]",11.733433509789464,11.733433509789462,0,1,1,1.0338939206976834,2.033893920697684,0.9661060793023166,3.0,1,1.7838939206976834,0,4.0,3.0,1,2,4,0,4,0,0,4,4,1,,,,,,,370.1099520830003,370.1099520830003,371.12361620799993,371.890500125,372.12394541699996,372.12394541699996,372.12394541699996,373.0905055000003,373.0905055000003,373.0905055000003,373.0905055000003,374.1099892080001,200007,005,2023-04-11_09h34.36.036,DMS_et_12-36,2022.2.4,None,
42,PRED,12,1.0338939206976834,2,images/picture_3.png,images/picture_1.png,0,"[-11.733433509789466, -11.733433509789462]",-11.733433509789464,-11.733433509789462,images/picture_2.png,1,"[11.733433509789462, -11.733433509789466]",11.733433509789462,-11.733433509789464,images/picture_3.png,2,"[-11.733433509789462, 11.733433509789464]",-11.733433509789462,11.733433509789464,0,1,1,1.0338939206976834,2.033893920697684,0.9661060793023166,3.0,1,1.7838939206976834,0,4.0,3.0,1,2,4,0,4,0,0,5,5,6,,,,,,,374.1099892080001,374.1099892080001,375.12378312500005,375.8905379170001,376.1239579170001,376.1239579170001,376.1239579170001,377.090515375,377.090515375,377.090515375,377.090515375,378.1097935830003,200007,005,2023-04-11_09h34.36.036,DMS_et_12-36,2022.2.4,None,
43,PRED,12,1.0338939206976834,2,images/picture_3.png,images/picture_1.png,0,"[-11.733433509789462, 11.733433509789464]",-11.733433509789462,11.733433509789464,images/picture_2.png,1,"[11.733433509789464, 11.733433509789462]",11.733433509789464,11.733433509789462,images/picture_3.png,2,"[-11.733433509789466, -11.733433509789462]",-11.733433509789464,-11.733433509789462,0,1,1,1.0338939206976834,2.033893920697684,0.9661060793023166,3.0,1,1.7838939206976834,0,4.0,3.0,1,2,4,0,4,0,0,6,6,7,,,,,,,378.1097935830003,378.1097935830003,379.12400725,379.89053491699997,380.1239351250001,380.1239351250001,380.1239351250001,381.0902075419999,381.0902075419999,381.0902075419999,381.0902075419999,382.1099816250003,200007,005,2023-04-11_09h34.36.036,DMS_et_12-36,2022.2.4,None,
41,PRED,12,1.0338939206976834,2,images/picture_3.png,images/picture_1.png,0,"[-11.733433509789462, 11.733433509789464]",-11.733433509789462,11.733433509789464,images/picture_2.png,1,"[-11.733433509789466, -11.733433509789462]",-11.733433509789464,-11.733433509789462,images/picture_3.png,2,"[11.733433509789464, 11.733433509789462]",11.733433509789464,11.733433509789462,0,1,1,1.0338939206976834,2.033893920697684,0.9661060793023166,3.0,1,1.7838939206976834,0,4.0,3.0,1,2,4,0,4,0,0,7,7,5,,,,,,,382.1099816250003,382.1099816250003,383.1239840420003,383.8905392920001,384.123979042,384.123979042,384.123979042,385.09052900000006,385.09052900000006,385.09052900000006,385.09052900000006,386.10937600000034,200007,005,2023-04-11_09h34.36.036,DMS_et_12-36,2022.2.4,None,
44,PRED,12,1.0338939206976834,2,images/picture_3.png,images/picture_1.png,0,"[11.733433509789464, 11.733433509789462]",11.733433509789464,11.733433509789462,images/picture_2.png,1,"[-11.733433509789466, -11.733433509789462]",-11.733433509789464,-11.733433509789462,images/picture_3.png,2,"[-11.733433509789462, 11.733433509789464]",-11.733433509789462,11.733433509789464,0,1,1,1.0338939206976834,2.033893920697684,0.9661060793023166,3.0,1,1.7838939206976834,0,4.0,3.0,1,2,4,0,4,0,0,8,8,8,,,,,,,386.10937600000034,386.10937600000034,387.12399133300005,387.890482542,388.1238010830002,388.1238010830002,388.1238010830002,389.0907117500001,389.0907117500001,389.0907117500001,389.0907117500001,390.20060254200007,200007,005,2023-04-11_09h34.36.036,DMS_et_12-36,2022.2.4,None,
,,,,,,,,,,,,,,,,,,,,,,,,,,,,,,,,,,,4,0,4,0,,,,,,,,,390.20060254200007,402.22015820800016,,,,,,,,,,,,,200007,005,2023-04-11_09h34.36.036,DMS_et_12-36,2022.2.4,None,
47,UNPRED,12,1.0338939206976834,2,images/picture_3.png,images/picture_1.png,0,"[-11.733433509789462, 11.733433509789464]",-11.733433509789462,11.733433509789464,images/picture_2.png,1,"[11.733433509789462, -11.733433509789466]",11.733433509789462,-11.733433509789464,images/picture_3.png,2,"[-11.733433509789466, -11.733433509789462]",-11.733433509789464,-11.733433509789462,0,1,1,1.0338939206976834,2.033893920697684,0.9661060793023166,3.0,1,1.7838939206976834,0,4.0,3.0,1,2,5,0,5,0,0,0,0,2,,,,,,,402.22015820800016,402.22015820800016,403.2239783330001,404.010001958,404.2435945420002,404.2435945420002,404.2435945420002,405.2239977500003,405.2239977500003,405.2239977500003,405.21000112499996,406.24258312500024,200007,005,2023-04-11_09h34.36.036,DMS_et_12-36,2022.2.4,None,
50,UNPRED,12,1.0338939206976834,2,images/picture_3.png,images/picture_1.png,0,"[-11.733433509789462, 11.733433509789464]",-11.733433509789462,11.733433509789464,images/picture_2.png,1,"[-11.733433509789466, -11.733433509789462]",-11.733433509789464,-11.733433509789462,images/picture_3.png,2,"[11.733433509789464, 11.733433509789462]",11.733433509789464,11.733433509789462,0,1,1,1.0338939206976834,2.033893920697684,0.9661060793023166,3.0,1,1.7838939206976834,0,4.0,3.0,1,2,5,0,5,0,0,1,1,5,,,,,,,406.24258312500024,406.24258312500024,407.25731275,408.0240492500002,408.2573519580001,408.2573519580001,408.2573519580001,409.2240287919999,409.2240287919999,409.2240287919999,409.2240287919999,410.2427805000002,200007,005,2023-04-11_09h34.36.036,DMS_et_12-36,2022.2.4,None,
46,UNPRED,12,1.0338939206976834,2,images/picture_3.png,images/picture_1.png,0,"[-11.733433509789462, 11.733433509789464]",-11.733433509789462,11.733433509789464,images/picture_2.png,1,"[11.733433509789462, -11.733433509789466]",11.733433509789462,-11.733433509789464,images/picture_3.png,2,"[11.733433509789464, 11.733433509789462]",11.733433509789464,11.733433509789462,0,1,1,1.0338939206976834,2.033893920697684,0.9661060793023166,3.0,1,1.7838939206976834,0,4.0,3.0,1,2,5,0,5,0,0,2,2,1,,,,,,,410.2427805000002,410.2427805000002,411.2572755420001,412.02381541700015,412.2575481250001,412.2575481250001,412.2575481250001,413.224029167,413.224029167,413.224029167,413.224029167,414.22454870799993,200007,005,2023-04-11_09h34.36.036,DMS_et_12-36,2022.2.4,None,
52,UNPRED,12,1.0338939206976834,1,images/picture_2.png,images/picture_1.png,0,"[-11.733433509789466, -11.733433509789462]",-11.733433509789464,-11.733433509789462,images/picture_2.png,1,"[11.733433509789462, -11.733433509789466]",11.733433509789462,-11.733433509789464,images/picture_3.png,2,"[-11.733433509789462, 11.733433509789464]",-11.733433509789462,11.733433509789464,0,1,1,1.0338939206976834,2.033893920697684,0.9661060793023166,3.0,1,1.7838939206976834,0,4.0,3.0,1,2,5,0,5,0,0,3,3,7,,,,,,,414.22454870799993,414.22454870799993,415.22401683299995,416.02401854200025,416.2572755420001,416.2572755420001,416.2572755420001,417.2239356670002,417.2239356670002,417.2239356670002,417.2239356670002,418.22361783299993,200007,005,2023-04-11_09h34.36.036,DMS_et_12-36,2022.2.4,None,
49,UNPRED,12,1.0338939206976834,1,images/picture_2.png,images/picture_1.png,0,"[11.733433509789462, -11.733433509789466]",11.733433509789462,-11.733433509789464,images/picture_2.png,1,"[-11.733433509789462, 11.733433509789464]",-11.733433509789462,11.733433509789464,images/picture_3.png,2,"[-11.733433509789466, -11.733433509789462]",-11.733433509789464,-11.733433509789462,0,1,1,1.0338939206976834,2.033893920697684,0.9661060793023166,3.0,1,1.7838939206976834,0,4.0,3.0,1,2,5,0,5,0,0,4,4,4,,,,,,,418.22361783299993,418.22361783299993,419.2239813750002,420.01005166699997,420.25730054199994,420.25730054199994,420.25730054199994,421.22405583299997,421.22405583299997,421.22405583299997,421.22405583299997,422.22365333300013,200007,005,2023-04-11_09h34.36.036,DMS_et_12-36,2022.2.4,None,
51,UNPRED,12,1.0338939206976834,1,images/picture_2.png,images/picture_1.png,0,"[11.733433509789464, 11.733433509789462]",11.733433509789464,11.733433509789462,images/picture_2.png,1,"[11.733433509789462, -11.733433509789466]",11.733433509789462,-11.733433509789464,images/picture_3.png,2,"[-11.733433509789466, -11.733433509789462]",-11.733433509789464,-11.733433509789462,0,1,1,1.0338939206976834,2.033893920697684,0.9661060793023166,3.0,1,1.7838939206976834,0,4.0,3.0,1,2,5,0,5,0,0,5,5,6,,,,,,,422.22365333300013,422.22365333300013,423.2239856250003,424.0102055000002,424.2572489170002,424.2572489170002,424.2572489170002,425.2239924999999,425.2239924999999,425.2239924999999,425.2239924999999,426.24250704199994,200007,005,2023-04-11_09h34.36.036,DMS_et_12-36,2022.2.4,None,
45,UNPRED,12,1.0338939206976834,2,images/picture_3.png,images/picture_1.png,0,"[11.733433509789464, 11.733433509789462]",11.733433509789464,11.733433509789462,images/picture_2.png,1,"[-11.733433509789466, -11.733433509789462]",-11.733433509789464,-11.733433509789462,images/picture_3.png,2,"[11.733433509789462, -11.733433509789466]",11.733433509789462,-11.733433509789464,0,1,1,1.0338939206976834,2.033893920697684,0.9661060793023166,3.0,1,1.7838939206976834,0,4.0,3.0,1,2,5,0,5,0,0,6,6,0,,,,,,,426.24250704199994,426.24250704199994,427.25745366699994,428.0239966670001,428.25746441699994,428.25746441699994,428.25746441699994,429.2239816250003,429.2239816250003,429.2239816250003,429.2239816250003,430.22350566700015,200007,005,2023-04-11_09h34.36.036,DMS_et_12-36,2022.2.4,None,
48,UNPRED,12,1.0338939206976834,0,images/picture_1.png,images/picture_1.png,0,"[11.733433509789464, 11.733433509789462]",11.733433509789464,11.733433509789462,images/picture_2.png,1,"[11.733433509789462, -11.733433509789466]",11.733433509789462,-11.733433509789464,images/picture_3.png,2,"[-11.733433509789462, 11.733433509789464]",-11.733433509789462,11.733433509789464,0,1,1,1.0338939206976834,2.033893920697684,0.9661060793023166,3.0,1,1.7838939206976834,0,4.0,3.0,1,2,5,0,5,0,0,7,7,3,,,,,,,430.22350566700015,430.22350566700015,431.2240038330001,432.0100257080003,432.25702095800034,432.25702095800034,432.25702095800034,433.2239294169999,433.2239294169999,433.2239294169999,433.2239294169999,434.22297479200006,200007,005,2023-04-11_09h34.36.036,DMS_et_12-36,2022.2.4,None,
53,UNPRED,12,1.0338939206976834,1,images/picture_2.png,images/picture_1.png,0,"[-11.733433509789466, -11.733433509789462]",-11.733433509789464,-11.733433509789462,images/picture_2.png,1,"[11.733433509789462, -11.733433509789466]",11.733433509789462,-11.733433509789464,images/picture_3.png,2,"[-11.733433509789462, 11.733433509789464]",-11.733433509789462,11.733433509789464,0,1,1,1.0338939206976834,2.033893920697684,0.9661060793023166,3.0,1,1.7838939206976834,0,4.0,3.0,1,2,5,0,5,0,0,8,8,8,,,,,,,434.22297479200006,434.22297479200006,435.2240549580001,436.0103465420002,436.25747095800034,436.25747095800034,436.25747095800034,437.22400479199996,437.22400479199996,437.22400479199996,437.22400479199996,438.29283325000006,200007,005,2023-04-11_09h34.36.036,DMS_et_12-36,2022.2.4,None,
,,,,,,,,,,,,,,,,,,,,,,,,,,,,,,,,,,,5,0,5,0,,,,,,,,,438.29283325000006,450.3109434580001,,,,,,,,,,,,,200007,005,2023-04-11_09h34.36.036,DMS_et_12-36,2022.2.4,None,
61,PRED,12,1.0338939206976834,0,images/picture_1.png,images/picture_1.png,0,"[11.733433509789462, -11.733433509789466]",11.733433509789462,-11.733433509789464,images/picture_2.png,1,"[11.733433509789464, 11.733433509789462]",11.733433509789464,11.733433509789462,images/picture_3.png,2,"[-11.733433509789462, 11.733433509789464]",-11.733433509789462,11.733433509789464,0,1,1,1.0338939206976834,2.033893920697684,0.9661060793023166,3.0,1,1.7838939206976834,0,4.0,3.0,1,2,6,0,6,0,0,0,0,7,,,,,,,450.3109434580001,450.3109434580001,451.3237813750002,452.0902863330002,452.343270375,452.343270375,452.343270375,453.32363154199993,453.32363154199993,453.32363154199993,453.309049125,454.3232790420002,200007,005,2023-04-11_09h34.36.036,DMS_et_12-36,2022.2.4,None,
58,PRED,12,1.0338939206976834,0,images/picture_1.png,images/picture_1.png,0,"[-11.733433509789466, -11.733433509789462]",-11.733433509789464,-11.733433509789462,images/picture_2.png,1,"[-11.733433509789462, 11.733433509789464]",-11.733433509789462,11.733433509789464,images/picture_3.png,2,"[11.733433509789464, 11.733433509789462]",11.733433509789464,11.733433509789462,0,1,1,1.0338939206976834,2.033893920697684,0.9661060793023166,3.0,1,1.7838939206976834,0,4.0,3.0,1,2,6,0,6,0,0,1,1,4,,,,,,,454.3232790420002,454.3232790420002,455.32364729200026,456.1095327080002,456.357110167,456.357110167,456.357110167,457.323987792,457.323987792,457.323987792,457.323987792,458.32386891700025,200007,005,2023-04-11_09h34.36.036,DMS_et_12-36,2022.2.4,None,
60,PRED,12,1.0338939206976834,0,images/picture_1.png,images/picture_1.png,0,"[-11.733433509789462, 11.733433509789464]",-11.733433509789462,11.733433509789464,images/picture_2.png,1,"[-11.733433509789466, -11.733433509789462]",-11.733433509789464,-11.733433509789462,images/picture_3.png,2,"[11.733433509789462, -11.733433509789466]",11.733433509789462,-11.733433509789464,0,1,1,1.0338939206976834,2.033893920697684,0.9661060793023166,3.0,1,1.7838939206976834,0,4.0,3.0,1,2,6,0,6,0,0,2,2,6,,,,,,,458.32386891700025,458.32386891700025,459.3237845829999,460.1101160420003,460.3570882080003,460.3570882080003,460.3570882080003,461.3236212920001,461.3236212920001,461.3236212920001,461.3236212920001,462.3232848749999,200007,005,2023-04-11_09h34.36.036,DMS_et_12-36,2022.2.4,None,
62,PRED,12,1.0338939206976834,0,images/picture_1.png,images/picture_1.png,0,"[-11.733433509789466, -11.733433509789462]",-11.733433509789464,-11.733433509789462,images/picture_2.png,1,"[11.733433509789462, -11.733433509789466]",11.733433509789462,-11.733433509789464,images/picture_3.png,2,"[11.733433509789464, 11.733433509789462]",11.733433509789464,11.733433509789462,0,1,1,1.0338939206976834,2.033893920697684,0.9661060793023166,3.0,1,1.7838939206976834,0,4.0,3.0,1,2,6,0,6,0,0,3,3,8,,,,,,,462.3232848749999,462.3232848749999,463.32346833300016,464.1089500830003,464.35707575000015,464.35707575000015,464.35707575000015,465.32396479199997,465.32396479199997,465.32396479199997,465.32396479199997,466.3236052080001,200007,005,2023-04-11_09h34.36.036,DMS_et_12-36,2022.2.4,None,
56,PRED,12,1.0338939206976834,0,images/picture_1.png,images/picture_1.png,0,"[11.733433509789462, -11.733433509789466]",11.733433509789462,-11.733433509789464,images/picture_2.png,1,"[-11.733433509789466, -11.733433509789462]",-11.733433509789464,-11.733433509789462,images/picture_3.png,2,"[11.733433509789464, 11.733433509789462]",11.733433509789464,11.733433509789462,0,1,1,1.0338939206976834,2.033893920697684,0.9661060793023166,3.0,1,1.7838939206976834,0,4.0,3.0,1,2,6,0,6,0,0,4,4,2,,,,,,,466.3236052080001,466.3236052080001,467.3235822500001,468.1097070420001,468.3571938330001,468.3571938330001,468.3571938330001,469.3237465420002,469.3237465420002,469.3237465420002,469.3237465420002,470.3233713750001,200007,005,2023-04-11_09h34.36.036,DMS_et_12-36,2022.2.4,None,
55,PRED,12,1.0338939206976834,0,images/picture_1.png,images/picture_1.png,0,"[-11.733433509789466, -11.733433509789462]",-11.733433509789464,-11.733433509789462,images/picture_2.png,1,"[11.733433509789462, -11.733433509789466]",11.733433509789462,-11.733433509789464,images/picture_3.png,2,"[-11.733433509789462, 11.733433509789464]",-11.733433509789462,11.733433509789464,0,1,1,1.0338939206976834,2.033893920697684,0.9661060793023166,3.0,1,1.7838939206976834,0,4.0,3.0,1,2,6,0,6,0,0,5,5,1,,,,,,,470.3233713750001,470.3233713750001,471.3237755,472.1096434169999,472.35724258300024,472.35724258300024,472.35724258300024,473.3235326670001,473.3235326670001,473.3235326670001,473.3235326670001,474.3235293749999,200007,005,2023-04-11_09h34.36.036,DMS_et_12-36,2022.2.4,None,
59,PRED,12,1.0338939206976834,0,images/picture_1.png,images/picture_1.png,0,"[-11.733433509789462, 11.733433509789464]",-11.733433509789462,11.733433509789464,images/picture_2.png,1,"[11.733433509789462, -11.733433509789466]",11.733433509789462,-11.733433509789464,images/picture_3.png,2,"[11.733433509789464, 11.733433509789462]",11.733433509789464,11.733433509789462,0,1,1,1.0338939206976834,2.033893920697684,0.9661060793023166,3.0,1,1.7838939206976834,0,4.0,3.0,1,2,6,0,6,0,0,6,6,5,,,,,,,474.3235293749999,474.3235293749999,475.32374929200023,476.1094914170003,476.35705754200035,476.35705754200035,476.35705754200035,477.3239710830003,477.3239710830003,477.3239710830003,477.3239710830003,478.323269,200007,005,2023-04-11_09h34.36.036,DMS_et_12-36,2022.2.4,None,
57,PRED,12,1.0338939206976834,0,images/picture_1.png,images/picture_1.png,0,"[11.733433509789462, -11.733433509789466]",11.733433509789462,-11.733433509789464,images/picture_2.png,1,"[-11.733433509789462, 11.733433509789464]",-11.733433509789462,11.733433509789464,images/picture_3.png,2,"[11.733433509789464, 11.733433509789462]",11.733433509789464,11.733433509789462,0,1,1,1.0338939206976834,2.033893920697684,0.9661060793023166,3.0,1,1.7838939206976834,0,4.0,3.0,1,2,6,0,6,0,0,7,7,3,,,,,,,478.323269,478.323269,479.32365420800033,480.10962070799997,480.3572353750001,480.3572353750001,480.3572353750001,481.32378870799994,481.32378870799994,481.32378870799994,481.32378870799994,482.3236327919999,200007,005,2023-04-11_09h34.36.036,DMS_et_12-36,2022.2.4,None,
54,PRED,12,1.0338939206976834,0,images/picture_1.png,images/picture_1.png,0,"[11.733433509789464, 11.733433509789462]",11.733433509789464,11.733433509789462,images/picture_2.png,1,"[11.733433509789462, -11.733433509789466]",11.733433509789462,-11.733433509789464,images/picture_3.png,2,"[-11.733433509789466, -11.733433509789462]",-11.733433509789464,-11.733433509789462,0,1,1,1.0338939206976834,2.033893920697684,0.9661060793023166,3.0,1,1.7838939206976834,0,4.0,3.0,1,2,6,0,6,0,0,8,8,0,,,,,,,482.3236327919999,482.3236327919999,483.3240175000001,484.108930417,484.357005458,484.357005458,484.357005458,485.3236446670003,485.3236446670003,485.3236446670003,485.3236446670003,486.4069670829999,200007,005,2023-04-11_09h34.36.036,DMS_et_12-36,2022.2.4,None,
,,,,,,,,,,,,,,,,,,,,,,,,,,,,,,,,,,,6,0,6,0,,,,,,,,,486.4069670829999,498.4248360830002,,,,,,,,,,,,,200007,005,2023-04-11_09h34.36.036,DMS_et_12-36,2022.2.4,None,
69,UNPRED,12,1.0338939206976834,0,images/picture_1.png,images/picture_1.png,0,"[-11.733433509789462, 11.733433509789464]",-11.733433509789462,11.733433509789464,images/picture_2.png,1,"[11.733433509789464, 11.733433509789462]",11.733433509789464,11.733433509789462,images/picture_3.png,2,"[-11.733433509789466, -11.733433509789462]",-11.733433509789464,-11.733433509789462,0,1,1,1.0338939206976834,2.033893920697684,0.9661060793023166,3.0,1,1.7838939206976834,0,4.0,3.0,1,2,7,0,7,0,0,0,0,6,,,,,,,498.4248360830002,498.4248360830002,499.423836167,500.223974,500.4573155000003,500.4573155000003,500.4573155000003,501.4239415830002,501.4239415830002,501.4239415830002,501.4239415830002,502.4232833330002,200007,005,2023-04-11_09h34.36.036,DMS_et_12-36,2022.2.4,None,
70,UNPRED,12,1.0338939206976834,0,images/picture_1.png,images/picture_1.png,0,"[-11.733433509789466, -11.733433509789462]",-11.733433509789464,-11.733433509789462,images/picture_2.png,1,"[-11.733433509789462, 11.733433509789464]",-11.733433509789462,11.733433509789464,images/picture_3.png,2,"[11.733433509789464, 11.733433509789462]",11.733433509789464,11.733433509789462,0,1,1,1.0338939206976834,2.033893920697684,0.9661060793023166,3.0,1,1.7838939206976834,0,4.0,3.0,1,2,7,0,7,0,0,1,1,7,,,,,,,502.4232833330002,502.4232833330002,503.42407875000026,504.209566,504.4568609580001,504.4568609580001,504.4568609580001,505.4238095420001,505.4238095420001,505.4238095420001,505.4238095420001,506.42348812499995,200007,005,2023-04-11_09h34.36.036,DMS_et_12-36,2022.2.4,None,
63,UNPRED,12,1.0338939206976834,1,images/picture_2.png,images/picture_1.png,0,"[-11.733433509789466, -11.733433509789462]",-11.733433509789464,-11.733433509789462,images/picture_2.png,1,"[-11.733433509789462, 11.733433509789464]",-11.733433509789462,11.733433509789464,images/picture_3.png,2,"[11.733433509789464, 11.733433509789462]",11.733433509789464,11.733433509789462,0,1,1,1.0338939206976834,2.033893920697684,0.9661060793023166,3.0,1,1.7838939206976834,0,4.0,3.0,1,2,7,0,7,0,0,2,2,0,,,,,,,506.42348812499995,506.42348812499995,507.423977167,508.2096025000001,508.457255583,508.457255583,508.457255583,509.4241542499999,509.4241542499999,509.4241542499999,509.4241542499999,510.4425735,200007,005,2023-04-11_09h34.36.036,DMS_et_12-36,2022.2.4,None,
64,UNPRED,12,1.0338939206976834,2,images/picture_3.png,images/picture_1.png,0,"[11.733433509789462, -11.733433509789466]",11.733433509789462,-11.733433509789464,images/picture_2.png,1,"[11.733433509789464, 11.733433509789462]",11.733433509789464,11.733433509789462,images/picture_3.png,2,"[-11.733433509789462, 11.733433509789464]",-11.733433509789462,11.733433509789464,0,1,1,1.0338939206976834,2.033893920697684,0.9661060793023166,3.0,1,1.7838939206976834,0,4.0,3.0,1,2,7,0,7,0,0,3,3,1,,,,,,,510.4425735,510.4425735,511.4572401250002,512.2239609170001,512.4573662920002,512.4573662920002,512.4573662920002,513.4239952920002,513.4239952920002,513.4239952920002,513.4239952920002,514.4242398750002,200007,005,2023-04-11_09h34.36.036,DMS_et_12-36,2022.2.4,None,
71,UNPRED,12,1.0338939206976834,2,images/picture_3.png,images/picture_1.png,0,"[-11.733433509789462, 11.733433509789464]",-11.733433509789462,11.733433509789464,images/picture_2.png,1,"[11.733433509789462, -11.733433509789466]",11.733433509789462,-11.733433509789464,images/picture_3.png,2,"[-11.733433509789466, -11.733433509789462]",-11.733433509789464,-11.733433509789462,0,1,1,1.0338939206976834,2.033893920697684,0.9661060793023166,3.0,1,1.7838939206976834,0,4.0,3.0,1,2,7,0,7,0,0,4,4,8,,,,,,,514.4242398750002,514.4242398750002,515.4238623750002,516.2095671669999,516.4572647079999,516.4572647079999,516.4572647079999,517.4239660420003,517.4239660420003,517.4239660420003,517.4239660420003,518.4233806249999,200007,005,2023-04-11_09h34.36.036,DMS_et_12-36,2022.2.4,None,
68,UNPRED,12,1.0338939206976834,1,images/picture_2.png,images/picture_1.png,0,"[11.733433509789462, -11.733433509789466]",11.733433509789462,-11.733433509789464,images/picture_2.png,1,"[-11.733433509789462, 11.733433509789464]",-11.733433509789462,11.733433509789464,images/picture_3.png,2,"[-11.733433509789466, -11.733433509789462]",-11.733433509789464,-11.733433509789462,0,1,1,1.0338939206976834,2.033893920697684,0.9661060793023166,3.0,1,1.7838939206976834,0,4.0,3.0,1,2,7,0,7,0,0,5,5,5,,,,,,,518.4233806249999,518.4233806249999,519.4237927920003,520.2099172500002,520.4573384580003,520.4573384580003,520.4573384580003,521.4241412920001,521.4241412920001,521.4241412920001,521.4241412920001,522.4232782080003,200007,005,2023-04-11_09h34.36.036,DMS_et_12-36,2022.2.4,None,
65,UNPRED,12,1.0338939206976834,1,images/picture_2.png,images/picture_1.png,0,"[11.733433509789464, 11.733433509789462]",11.733433509789464,11.733433509789462,images/picture_2.png,1,"[11.733433509789462, -11.733433509789466]",11.733433509789462,-11.733433509789464,images/picture_3.png,2,"[-11.733433509789462, 11.733433509789464]",-11.733433509789462,11.733433509789464,0,1,1,1.0338939206976834,2.033893920697684,0.9661060793023166,3.0,1,1.7838939206976834,0,4.0,3.0,1,2,7,0,7,0,0,6,6,2,,,,,,,522.4232782080003,522.4232782080003,523.4239721250001,524.2098272080002,524.4570900829999,524.4570900829999,524.4570900829999,525.4235976670002,525.4235976670002,525.4235976670002,525.4235976670002,526.4233616670003,200007,005,2023-04-11_09h34.36.036,DMS_et_12-36,2022.2.4,None,
67,UNPRED,12,1.0338939206976834,0,images/picture_1.png,images/picture_1.png,0,"[11.733433509789464, 11.733433509789462]",11.733433509789464,11.733433509789462,images/picture_2.png,1,"[-11.733433509789462, 11.733433509789464]",-11.733433509789462,11.733433509789464,images/picture_3.png,2,"[-11.733433509789466, -11.733433509789462]",-11.733433509789464,-11.733433509789462,0,1,1,1.0338939206976834,2.033893920697684,0.9661060793023166,3.0,1,1.7838939206976834,0,4.0,3.0,1,2,7,0,7,0,0,7,7,4,,,,,,,526.4233616670003,526.4233616670003,527.4241260829999,528.209932708,528.4572940830003,528.4572940830003,528.4572940830003,529.4240736669999,529.4240736669999,529.4240736669999,529.4240736669999,530.4428122080003,200007,005,2023-04-11_09h34.36.036,DMS_et_12-36,2022.2.4,None,
66,UNPRED,12,1.0338939206976834,2,images/picture_3.png,images/picture_1.png,0,"[-11.733433509789462, 11.733433509789464]",-11.733433509789462,11.733433509789464,images/picture_2.png,1,"[11.733433509789464, 11.733433509789462]",11.733433509789464,11.733433509789462,images/picture_3.png,2,"[11.733433509789462, -11.733433509789466]",11.733433509789462,-11.733433509789464,0,1,1,1.0338939206976834,2.033893920697684,0.9661060793023166,3.0,1,1.7838939206976834,0,4.0,3.0,1,2,7,0,7,0,0,8,8,3,,,,,,,530.4428122080003,530.4428122080003,531.4572145420002,532.2237821250001,532.4570275420001,532.4570275420001,532.4570275420001,533.4241473750003,533.4241473750003,533.4241473750003,533.4241473750003,534.512542125,200007,005,2023-04-11_09h34.36.036,DMS_et_12-36,2022.2.4,None,
,,,,,,,,,,,,,,,,,,,,,,,,,,,,,,,,,,,7,0,7,0,,,,,,,,,534.512542125,546.5490549169999,,,,,,,,,,,,,200007,005,2023-04-11_09h34.36.036,DMS_et_12-36,2022.2.4,None,
76,PRED,12,1.0338939206976834,1,images/picture_2.png,images/picture_1.png,0,"[-11.733433509789462, 11.733433509789464]",-11.733433509789462,11.733433509789464,images/picture_2.png,1,"[11.733433509789462, -11.733433509789466]",11.733433509789462,-11.733433509789464,images/picture_3.png,2,"[11.733433509789464, 11.733433509789462]",11.733433509789464,11.733433509789462,0,1,1,1.0338939206976834,2.033893920697684,0.9661060793023166,3.0,1,1.7838939206976834,0,4.0,3.0,1,2,8,0,8,0,0,0,0,4,,,,,,,546.5490549169999,546.5490549169999,547.5572957080003,548.3429810420002,548.5801353330003,548.5801353330003,548.5801353330003,549.5573627080003,549.5573627080003,549.5573627080003,549.5432312080002,550.556912083,200007,005,2023-04-11_09h34.36.036,DMS_et_12-36,2022.2.4,None,
79,PRED,12,1.0338939206976834,1,images/picture_2.png,images/picture_1.png,0,"[-11.733433509789462, 11.733433509789464]",-11.733433509789462,11.733433509789464,images/picture_2.png,1,"[11.733433509789462, -11.733433509789466]",11.733433509789462,-11.733433509789464,images/picture_3.png,2,"[-11.733433509789466, -11.733433509789462]",-11.733433509789464,-11.733433509789462,0,1,1,1.0338939206976834,2.033893920697684,0.9661060793023166,3.0,1,1.7838939206976834,0,4.0,3.0,1,2,8,0,8,0,0,1,1,7,,,,,,,550.556912083,550.556912083,551.557273167,552.3430584170001,552.5905392080003,552.5905392080003,552.5905392080003,553.5572842920001,553.5572842920001,553.5572842920001,553.5572842920001,554.5567630420001,200007,005,2023-04-11_09h34.36.036,DMS_et_12-36,2022.2.4,None,
78,PRED,12,1.0338939206976834,1,images/picture_2.png,images/picture_1.png,0,"[-11.733433509789466, -11.733433509789462]",-11.733433509789464,-11.733433509789462,images/picture_2.png,1,"[11.733433509789462, -11.733433509789466]",11.733433509789462,-11.733433509789464,images/picture_3.png,2,"[11.733433509789464, 11.733433509789462]",11.733433509789464,11.733433509789462,0,1,1,1.0338939206976834,2.033893920697684,0.9661060793023166,3.0,1,1.7838939206976834,0,4.0,3.0,1,2,8,0,8,0,0,2,2,6,,,,,,,554.5567630420001,554.5567630420001,555.5568692080001,556.3425475829999,556.5907035,556.5907035,556.5907035,557.557255708,557.557255708,557.557255708,557.557255708,558.5568164169999,200007,005,2023-04-11_09h34.36.036,DMS_et_12-36,2022.2.4,None,
72,PRED,12,1.0338939206976834,1,images/picture_2.png,images/picture_1.png,0,"[11.733433509789464, 11.733433509789462]",11.733433509789464,11.733433509789462,images/picture_2.png,1,"[11.733433509789462, -11.733433509789466]",11.733433509789462,-11.733433509789464,images/picture_3.png,2,"[-11.733433509789466, -11.733433509789462]",-11.733433509789464,-11.733433509789462,0,1,1,1.0338939206976834,2.033893920697684,0.9661060793023166,3.0,1,1.7838939206976834,0,4.0,3.0,1,2,8,0,8,0,0,3,3,0,,,,,,,558.5568164169999,558.5568164169999,559.5572725000002,560.3429980000001,560.590730292,560.590730292,560.590730292,561.5572735000001,561.5572735000001,561.5572735000001,561.5572735000001,562.5567595830003,200007,005,2023-04-11_09h34.36.036,DMS_et_12-36,2022.2.4,None,
80,PRED,12,1.0338939206976834,1,images/picture_2.png,images/picture_1.png,0,"[-11.733433509789466, -11.733433509789462]",-11.733433509789464,-11.733433509789462,images/picture_2.png,1,"[11.733433509789464, 11.733433509789462]",11.733433509789464,11.733433509789462,images/picture_3.png,2,"[-11.733433509789462, 11.733433509789464]",-11.733433509789462,11.733433509789464,0,1,1,1.0338939206976834,2.033893920697684,0.9661060793023166,3.0,1,1.7838939206976834,0,4.0,3.0,1,2,8,0,8,0,0,4,4,8,,,,,,,562.5567595830003,562.5567595830003,563.5572644580002,564.3431242080001,564.5905590420002,564.5905590420002,564.5905590420002,565.557141667,565.557141667,565.557141667,565.557141667,566.5569287080002,200007,005,2023-04-11_09h34.36.036,DMS_et_12-36,2022.2.4,None,
74,PRED,12,1.0338939206976834,1,images/picture_2.png,images/picture_1.png,0,"[-11.733433509789466, -11.733433509789462]",-11.733433509789464,-11.733433509789462,images/picture_2.png,1,"[11.733433509789464, 11.733433509789462]",11.733433509789464,11.733433509789462,images/picture_3.png,2,"[-11.733433509789462, 11.733433509789464]",-11.733433509789462,11.733433509789464,0,1,1,1.0338939206976834,2.033893920697684,0.9661060793023166,3.0,1,1.7838939206976834,0,4.0,3.0,1,2,8,0,8,0,0,5,5,2,,,,,,,566.5569287080002,566.5569287080002,567.557304167,568.343201917,568.5905861250003,568.5905861250003,568.5905861250003,569.5573453330003,569.5573453330003,569.5573453330003,569.5573453330003,570.5566643750003,200007,005,2023-04-11_09h34.36.036,DMS_et_12-36,2022.2.4,None,
77,PRED,12,1.0338939206976834,1,images/picture_2.png,images/picture_1.png,0,"[11.733433509789464, 11.733433509789462]",11.733433509789464,11.733433509789462,images/picture_2.png,1,"[-11.733433509789466, -11.733433509789462]",-11.733433509789464,-11.733433509789462,images/picture_3.png,2,"[-11.733433509789462, 11.733433509789464]",-11.733433509789462,11.733433509789464,0,1,1,1.0338939206976834,2.033893920697684,0.9661060793023166,3.0,1,1.7838939206976834,0,4.0,3.0,1,2,8,0,8,0,0,6,6,5,,,,,,,570.5566643750003,570.5566643750003,571.5572610419999,572.3429774169999,572.5907845420002,572.5907845420002,572.5907845420002,573.5573291670003,573.5573291670003,573.5573291670003,573.5573291670003,574.5566895000002,200007,005,2023-04-11_09h34.36.036,DMS_et_12-36,2022.2.4,None,
73,PRED,12,1.0338939206976834,1,images/picture_2.png,images/picture_1.png,0,"[-11.733433509789462, 11.733433509789464]",-11.733433509789462,11.733433509789464,images/picture_2.png,1,"[-11.733433509789466, -11.733433509789462]",-11.733433509789464,-11.733433509789462,images/picture_3.png,2,"[11.733433509789462, -11.733433509789466]",11.733433509789462,-11.733433509789464,0,1,1,1.0338939206976834,2.033893920697684,0.9661060793023166,3.0,1,1.7838939206976834,0,4.0,3.0,1,2,8,0,8,0,0,7,7,1,,,,,,,574.5566895000002,574.5566895000002,575.5572402920002,576.3426751669999,576.5903575000002,576.5903575000002,576.5903575000002,577.5574458330002,577.5574458330002,577.5574458330002,577.5574458330002,578.5567634580002,200007,005,2023-04-11_09h34.36.036,DMS_et_12-36,2022.2.4,None,
75,PRED,12,1.0338939206976834,1,images/picture_2.png,images/picture_1.png,0,"[-11.733433509789462, 11.733433509789464]",-11.733433509789462,11.733433509789464,images/picture_2.png,1,"[-11.733433509789466, -11.733433509789462]",-11.733433509789464,-11.733433509789462,images/picture_3.png,2,"[11.733433509789462, -11.733433509789466]",11.733433509789462,-11.733433509789464,0,1,1,1.0338939206976834,2.033893920697684,0.9661060793023166,3.0,1,1.7838939206976834,0,4.0,3.0,1,2,8,0,8,0,0,8,8,3,,,,,,,578.5567634580002,578.5567634580002,579.5574381250003,580.3430282920003,580.590754417,580.590754417,580.590754417,581.5572681250001,581.5572681250001,581.5572681250001,581.5572681250001,582.6546940000003,200007,005,2023-04-11_09h34.36.036,DMS_et_12-36,2022.2.4,None,
,,,,,,,,,,,,,,,,,,,,,,,,,,,,,,,,,,,8,0,8,0,,,,,,,,,582.6546940000003,594.6801506249999,,,,,,,,,,,,,200007,005,2023-04-11_09h34.36.036,DMS_et_12-36,2022.2.4,None,
85,UNPRED,12,1.0338939206976834,0,images/picture_1.png,images/picture_1.png,0,"[11.733433509789462, -11.733433509789466]",11.733433509789462,-11.733433509789464,images/picture_2.png,1,"[-11.733433509789466, -11.733433509789462]",-11.733433509789464,-11.733433509789462,images/picture_3.png,2,"[-11.733433509789462, 11.733433509789464]",-11.733433509789462,11.733433509789464,0,1,1,1.0338939206976834,2.033893920697684,0.9661060793023166,3.0,1,1.7838939206976834,0,4.0,3.0,1,2,9,0,9,0,0,0,0,4,,,,,,,594.6801506249999,594.6801506249999,595.6908183750002,596.4760271670002,596.7093795420001,596.7093795420001,596.7093795420001,597.6907140000003,597.6907140000003,597.6907140000003,597.6768909580001,598.6898535830001,200007,005,2023-04-11_09h34.36.036,DMS_et_12-36,2022.2.4,None,
88,UNPRED,12,1.0338939206976834,1,images/picture_2.png,images/picture_1.png,0,"[-11.733433509789466, -11.733433509789462]",-11.733433509789464,-11.733433509789462,images/picture_2.png,1,"[11.733433509789462, -11.733433509789466]",11.733433509789462,-11.733433509789464,images/picture_3.png,2,"[-11.733433509789462, 11.733433509789464]",-11.733433509789462,11.733433509789464,0,1,1,1.0338939206976834,2.033893920697684,0.9661060793023166,3.0,1,1.7838939206976834,0,4.0,3.0,1,2,9,0,9,0,0,1,1,7,,,,,,,598.6898535830001,598.6898535830001,599.6905030420003,600.4765739170002,600.7240216670002,600.7240216670002,600.7240216670002,601.69073475,601.69073475,601.69073475,601.69073475,602.6900632920001,200007,005,2023-04-11_09h34.36.036,DMS_et_12-36,2022.2.4,None,
82,UNPRED,12,1.0338939206976834,0,images/picture_1.png,images/picture_1.png,0,"[-11.733433509789462, 11.733433509789464]",-11.733433509789462,11.733433509789464,images/picture_2.png,1,"[-11.733433509789466, -11.733433509789462]",-11.733433509789464,-11.733433509789462,images/picture_3.png,2,"[11.733433509789464, 11.733433509789462]",11.733433509789464,11.733433509789462,0,1,1,1.0338939206976834,2.033893920697684,0.9661060793023166,3.0,1,1.7838939206976834,0,4.0,3.0,1,2,9,0,9,0,0,2,2,1,,,,,,,602.6900632920001,602.6900632920001,603.6907002080002,604.4765415000002,604.7240777080001,604.7240777080001,604.7240777080001,605.6907217500002,605.6907217500002,605.6907217500002,605.6907217500002,606.691438458,200007,005,2023-04-11_09h34.36.036,DMS_et_12-36,2022.2.4,None,
86,UNPRED,12,1.0338939206976834,2,images/picture_3.png,images/picture_1.png,0,"[-11.733433509789466, -11.733433509789462]",-11.733433509789464,-11.733433509789462,images/picture_2.png,1,"[11.733433509789462, -11.733433509789466]",11.733433509789462,-11.733433509789464,images/picture_3.png,2,"[-11.733433509789462, 11.733433509789464]",-11.733433509789462,11.733433509789464,0,1,1,1.0338939206976834,2.033893920697684,0.9661060793023166,3.0,1,1.7838939206976834,0,4.0,3.0,1,2,9,0,9,0,0,3,3,5,,,,,,,606.691438458,606.691438458,607.6905355419999,608.4908317080003,608.724046542,608.724046542,608.724046542,609.690705167,609.690705167,609.690705167,609.690705167,610.6903514170003,200007,005,2023-04-11_09h34.36.036,DMS_et_12-36,2022.2.4,None,
84,UNPRED,12,1.0338939206976834,0,images/picture_1.png,images/picture_1.png,0,"[11.733433509789464, 11.733433509789462]",11.733433509789464,11.733433509789462,images/picture_2.png,1,"[-11.733433509789466, -11.733433509789462]",-11.733433509789464,-11.733433509789462,images/picture_3.png,2,"[11.733433509789462, -11.733433509789466]",11.733433509789462,-11.733433509789464,0,1,1,1.0338939206976834,2.033893920697684,0.9661060793023166,3.0,1,1.7838939206976834,0,4.0,3.0,1,2,9,0,9,0,0,4,4,3,,,,,,,610.6903514170003,610.6903514170003,611.6906891250001,612.4771688750002,612.7240328329999,612.7240328329999,612.7240328329999,613.6907599169999,613.6907599169999,613.6907599169999,613.6907599169999,614.6903539170003,200007,005,2023-04-11_09h34.36.036,DMS_et_12-36,2022.2.4,None,
89,UNPRED,12,1.0338939206976834,1,images/picture_2.png,images/picture_1.png,0,"[-11.733433509789466, -11.733433509789462]",-11.733433509789464,-11.733433509789462,images/picture_2.png,1,"[11.733433509789464, 11.733433509789462]",11.733433509789464,11.733433509789462,images/picture_3.png,2,"[11.733433509789462, -11.733433509789466]",11.733433509789462,-11.733433509789464,0,1,1,1.0338939206976834,2.033893920697684,0.9661060793023166,3.0,1,1.7838939206976834,0,4.0,3.0,1,2,9,0,9,0,0,5,5,8,,,,,,,614.6903539170003,614.6903539170003,615.6907403330001,616.4767220000003,616.7237721250003,616.7237721250003,616.7237721250003,617.690588167,617.690588167,617.690588167,617.690588167,618.7091412919999,200007,005,2023-04-11_09h34.36.036,DMS_et_12-36,2022.2.4,None,
81,UNPRED,12,1.0338939206976834,2,images/picture_3.png,images/picture_1.png,0,"[11.733433509789462, -11.733433509789466]",11.733433509789462,-11.733433509789464,images/picture_2.png,1,"[-11.733433509789462, 11.733433509789464]",-11.733433509789462,11.733433509789464,images/picture_3.png,2,"[11.733433509789464, 11.733433509789462]",11.733433509789464,11.733433509789462,0,1,1,1.0338939206976834,2.033893920697684,0.9661060793023166,3.0,1,1.7838939206976834,0,4.0,3.0,1,2,9,0,9,0,0,6,6,0,,,,,,,618.7091412919999,618.7091412919999,619.7240125830003,620.490694958,620.7240006249999,620.7240006249999,620.7240006249999,621.690743917,621.690743917,621.690743917,621.690743917,622.6905927080002,200007,005,2023-04-11_09h34.36.036,DMS_et_12-36,2022.2.4,None,
83,UNPRED,12,1.0338939206976834,0,images/picture_1.png,images/picture_1.png,0,"[-11.733433509789462, 11.733433509789464]",-11.733433509789462,11.733433509789464,images/picture_2.png,1,"[11.733433509789464, 11.733433509789462]",11.733433509789464,11.733433509789462,images/picture_3.png,2,"[-11.733433509789466, -11.733433509789462]",-11.733433509789464,-11.733433509789462,0,1,1,1.0338939206976834,2.033893920697684,0.9661060793023166,3.0,1,1.7838939206976834,0,4.0,3.0,1,2,9,0,9,0,0,7,7,2,,,,,,,622.6905927080002,622.6905927080002,623.6907931670003,624.4767056670003,624.724003458,624.724003458,624.724003458,625.6907271670002,625.6907271670002,625.6907271670002,625.6907271670002,626.7091700830001,200007,005,2023-04-11_09h34.36.036,DMS_et_12-36,2022.2.4,None,
87,UNPRED,12,1.0338939206976834,2,images/picture_3.png,images/picture_1.png,0,"[11.733433509789464, 11.733433509789462]",11.733433509789464,11.733433509789462,images/picture_2.png,1,"[-11.733433509789466, -11.733433509789462]",-11.733433509789464,-11.733433509789462,images/picture_3.png,2,"[-11.733433509789462, 11.733433509789464]",-11.733433509789462,11.733433509789464,0,1,1,1.0338939206976834,2.033893920697684,0.9661060793023166,3.0,1,1.7838939206976834,0,4.0,3.0,1,2,9,0,9,0,0,8,8,6,,,,,,,626.7091700830001,626.7091700830001,627.7237508329999,628.4908740830001,628.7240207919999,628.7240207919999,628.7240207919999,629.690743958,629.690743958,629.690743958,629.690743958,630.7965506250002,200007,005,2023-04-11_09h34.36.036,DMS_et_12-36,2022.2.4,None,
,,,,,,,,,,,,,,,,,,,,,,,,,,,,,,,,,,,9,0,9,0,,,,,,,,,630.7965506250002,642.8376895420001,,,,,,,,,,,,,200007,005,2023-04-11_09h34.36.036,DMS_et_12-36,2022.2.4,None,
98,PRED,12,1.0338939206976834,2,images/picture_3.png,images/picture_1.png,0,"[-11.733433509789466, -11.733433509789462]",-11.733433509789464,-11.733433509789462,images/picture_2.png,1,"[11.733433509789464, 11.733433509789462]",11.733433509789464,11.733433509789462,images/picture_3.png,2,"[11.733433509789462, -11.733433509789466]",11.733433509789462,-11.733433509789464,0,1,1,1.0338939206976834,2.033893920697684,0.9661060793023166,3.0,1,1.7838939206976834,0,4.0,3.0,1,2,10,0,10,0,0,0,0,8,,,,,,,642.8376895420001,642.8376895420001,643.8433153750002,644.6242535830002,644.8573167080003,644.8573167080003,644.8573167080003,645.8240765420001,645.8240765420001,645.8240765420001,645.8240765420001,646.843142875,200007,005,2023-04-11_09h34.36.036,DMS_et_12-36,2022.2.4,None,
90,PRED,12,1.0338939206976834,2,images/picture_3.png,images/picture_1.png,0,"[-11.733433509789462, 11.733433509789464]",-11.733433509789462,11.733433509789464,images/picture_2.png,1,"[11.733433509789464, 11.733433509789462]",11.733433509789464,11.733433509789462,images/picture_3.png,2,"[11.733433509789462, -11.733433509789466]",11.733433509789462,-11.733433509789464,0,1,1,1.0338939206976834,2.033893920697684,0.9661060793023166,3.0,1,1.7838939206976834,0,4.0,3.0,1,2,10,0,10,0,0,1,1,0,,,,,,,646.843142875,646.843142875,647.857161208,648.623790917,648.857337375,648.857337375,648.857337375,649.8240015830002,649.8240015830002,649.8240015830002,649.8240015830002,650.8427177500002,200007,005,2023-04-11_09h34.36.036,DMS_et_12-36,2022.2.4,None,
97,PRED,12,1.0338939206976834,2,images/picture_3.png,images/picture_1.png,0,"[-11.733433509789462, 11.733433509789464]",-11.733433509789462,11.733433509789464,images/picture_2.png,1,"[11.733433509789464, 11.733433509789462]",11.733433509789464,11.733433509789462,images/picture_3.png,2,"[-11.733433509789466, -11.733433509789462]",-11.733433509789464,-11.733433509789462,0,1,1,1.0338939206976834,2.033893920697684,0.9661060793023166,3.0,1,1.7838939206976834,0,4.0,3.0,1,2,10,0,10,0,0,2,2,7,,,,,,,650.8427177500002,650.8427177500002,651.8572533330002,652.6240593330003,652.85749025,652.85749025,652.85749025,653.8240447500002,653.8240447500002,653.8240447500002,653.8240447500002,654.8433574579999,200007,005,2023-04-11_09h34.36.036,DMS_et_12-36,2022.2.4,None,
95,PRED,12,1.0338939206976834,2,images/picture_3.png,images/picture_1.png,0,"[-11.733433509789466, -11.733433509789462]",-11.733433509789464,-11.733433509789462,images/picture_2.png,1,"[11.733433509789462, -11.733433509789466]",11.733433509789462,-11.733433509789464,images/picture_3.png,2,"[-11.733433509789462, 11.733433509789464]",-11.733433509789462,11.733433509789464,0,1,1,1.0338939206976834,2.033893920697684,0.9661060793023166,3.0,1,1.7838939206976834,0,4.0,3.0,1,2,10,0,10,0,0,3,3,5,,,,,,,654.8433574579999,654.8433574579999,655.8575087920003,656.6240297500003,656.8574641670002,656.8574641670002,656.8574641670002,657.824146333,657.824146333,657.824146333,657.824146333,658.8244580830001,200007,005,2023-04-11_09h34.36.036,DMS_et_12-36,2022.2.4,None,
92,PRED,12,1.0338939206976834,2,images/picture_3.png,images/picture_1.png,0,"[11.733433509789462, -11.733433509789466]",11.733433509789462,-11.733433509789464,images/picture_2.png,1,"[11.733433509789464, 11.733433509789462]",11.733433509789464,11.733433509789462,images/picture_3.png,2,"[-11.733433509789462, 11.733433509789464]",-11.733433509789462,11.733433509789464,0,1,1,1.0338939206976834,2.033893920697684,0.9661060793023166,3.0,1,1.7838939206976834,0,4.0,3.0,1,2,10,0,10,0,0,4,4,2,,,,,,,658.8244580830001,658.8244580830001,659.824209208,660.6102062919999,660.857423167,660.857423167,660.857423167,661.8240287500003,661.8240287500003,661.8240287500003,661.8240287500003,662.843968875,200007,005,2023-04-11_09h34.36.036,DMS_et_12-36,2022.2.4,None,
96,PRED,12,1.0338939206976834,2,images/picture_3.png,images/picture_1.png,0,"[11.733433509789464, 11.733433509789462]",11.733433509789464,11.733433509789462,images/picture_2.png,1,"[-11.733433509789462, 11.733433509789464]",-11.733433509789462,11.733433509789464,images/picture_3.png,2,"[-11.733433509789466, -11.733433509789462]",-11.733433509789464,-11.733433509789462,0,1,1,1.0338939206976834,2.033893920697684,0.9661060793023166,3.0,1,1.7838939206976834,0,4.0,3.0,1,2,10,0,10,0,0,5,5,6,,,,,,,662.843968875,662.843968875,663.857484958,664.643151833,664.857499708,664.857499708,664.857499708,665.8240340830002,665.8240340830002,665.8240340830002,665.8240340830002,666.8429156669999,200007,005,2023-04-11_09h34.36.036,DMS_et_12-36,2022.2.4,None,
91,PRED,12,1.0338939206976834,2,images/picture_3.png,images/picture_1.png,0,"[-11.733433509789462, 11.733433509789464]",-11.733433509789462,11.733433509789464,images/picture_2.png,1,"[11.733433509789464, 11.733433509789462]",11.733433509789464,11.733433509789462,images/picture_3.png,2,"[11.733433509789462, -11.733433509789466]",11.733433509789462,-11.733433509789464,0,1,1,1.0338939206976834,2.033893920697684,0.9661060793023166,3.0,1,1.7838939206976834,0,4.0,3.0,1,2,10,0,10,0,0,6,6,1,,,,,,,666.8429156669999,666.8429156669999,667.8574496670003,668.6238235830001,668.8571897920001,668.8571897920001,668.8571897920001,669.8240099170002,669.8240099170002,669.8240099170002,669.8240099170002,670.8435200829999,200007,005,2023-04-11_09h34.36.036,DMS_et_12-36,2022.2.4,None,
94,PRED,12,1.0338939206976834,2,images/picture_3.png,images/picture_1.png,0,"[11.733433509789462, -11.733433509789466]",11.733433509789462,-11.733433509789464,images/picture_2.png,1,"[11.733433509789464, 11.733433509789462]",11.733433509789464,11.733433509789462,images/picture_3.png,2,"[-11.733433509789462, 11.733433509789464]",-11.733433509789462,11.733433509789464,0,1,1,1.0338939206976834,2.033893920697684,0.9661060793023166,3.0,1,1.7838939206976834,0,4.0,3.0,1,2,10,0,10,0,0,7,7,4,,,,,,,670.8435200829999,670.8435200829999,671.857447333,672.6239942500001,672.8574858330003,672.8574858330003,672.8574858330003,673.82418375,673.82418375,673.82418375,673.82418375,674.842734542,200007,005,2023-04-11_09h34.36.036,DMS_et_12-36,2022.2.4,None,
93,PRED,12,1.0338939206976834,2,images/picture_3.png,images/picture_1.png,0,"[11.733433509789462, -11.733433509789466]",11.733433509789462,-11.733433509789464,images/picture_2.png,1,"[-11.733433509789462, 11.733433509789464]",-11.733433509789462,11.733433509789464,images/picture_3.png,2,"[11.733433509789464, 11.733433509789462]",11.733433509789464,11.733433509789462,0,1,1,1.0338939206976834,2.033893920697684,0.9661060793023166,3.0,1,1.7838939206976834,0,4.0,3.0,1,2,10,0,10,0,0,8,8,3,,,,,,,674.842734542,674.842734542,675.8574536670003,676.6240425420001,676.8575080830001,676.8575080830001,676.8575080830001,677.824072208,677.824072208,677.824072208,677.824072208,678.9205887500002,200007,005,2023-04-11_09h34.36.036,DMS_et_12-36,2022.2.4,None,
,,,,,,,,,,,,,,,,,,,,,,,,,,,,,,,,,,,10,0,10,0,,,,,,,,,678.9205887500002,690.949159583,,,,,,,,,,,,,200007,005,2023-04-11_09h34.36.036,DMS_et_12-36,2022.2.4,None,
106,UNPRED,12,1.0338939206976834,0,images/picture_1.png,images/picture_1.png,0,"[-11.733433509789466, -11.733433509789462]",-11.733433509789464,-11.733433509789462,images/picture_2.png,1,"[11.733433509789464, 11.733433509789462]",11.733433509789464,11.733433509789462,images/picture_3.png,2,"[-11.733433509789462, 11.733433509789464]",-11.733433509789462,11.733433509789464,0,1,1,1.0338939206976834,2.033893920697684,0.9661060793023166,3.0,1,1.7838939206976834,0,4.0,3.0,1,2,11,0,11,0,0,0,0,7,,,,,,,690.949159583,690.949159583,691.95752275,692.7434995420003,692.9768098750001,692.9768098750001,692.9768098750001,693.9574762920001,693.9574762920001,693.9574762920001,693.9433919580001,694.976081458,200007,005,2023-04-11_09h34.36.036,DMS_et_12-36,2022.2.4,None,
101,UNPRED,12,1.0338939206976834,2,images/picture_3.png,images/picture_1.png,0,"[-11.733433509789462, 11.733433509789464]",-11.733433509789462,11.733433509789464,images/picture_2.png,1,"[11.733433509789462, -11.733433509789466]",11.733433509789462,-11.733433509789464,images/picture_3.png,2,"[11.733433509789464, 11.733433509789462]",11.733433509789464,11.733433509789462,0,1,1,1.0338939206976834,2.033893920697684,0.9661060793023166,3.0,1,1.7838939206976834,0,4.0,3.0,1,2,11,0,11,0,0,1,1,2,,,,,,,694.976081458,694.976081458,695.9907480000002,696.7575429170001,696.9908193330002,696.9908193330002,696.9908193330002,697.9575532920003,697.9575532920003,697.9575532920003,697.9575532920003,698.9570359170002,200007,005,2023-04-11_09h34.36.036,DMS_et_12-36,2022.2.4,None,
99,UNPRED,12,1.0338939206976834,0,images/picture_1.png,images/picture_1.png,0,"[-11.733433509789466, -11.733433509789462]",-11.733433509789464,-11.733433509789462,images/picture_2.png,1,"[11.733433509789462, -11.733433509789466]",11.733433509789462,-11.733433509789464,images/picture_3.png,2,"[11.733433509789464, 11.733433509789462]",11.733433509789464,11.733433509789462,0,1,1,1.0338939206976834,2.033893920697684,0.9661060793023166,3.0,1,1.7838939206976834,0,4.0,3.0,1,2,11,0,11,0,0,2,2,0,,,,,,,698.9570359170002,698.9570359170002,699.9571599169999,700.743506458,700.9907124169999,700.9907124169999,700.9907124169999,701.9575206250001,701.9575206250001,701.9575206250001,701.9575206250001,702.9569433330003,200007,005,2023-04-11_09h34.36.036,DMS_et_12-36,2022.2.4,None,
105,UNPRED,12,1.0338939206976834,0,images/picture_1.png,images/picture_1.png,0,"[11.733433509789462, -11.733433509789466]",11.733433509789462,-11.733433509789464,images/picture_2.png,1,"[-11.733433509789466, -11.733433509789462]",-11.733433509789464,-11.733433509789462,images/picture_3.png,2,"[-11.733433509789462, 11.733433509789464]",-11.733433509789462,11.733433509789464,0,1,1,1.0338939206976834,2.033893920697684,0.9661060793023166,3.0,1,1.7838939206976834,0,4.0,3.0,1,2,11,0,11,0,0,3,3,6,,,,,,,702.9569433330003,702.9569433330003,703.957530875,704.7431947919999,704.9908163330001,704.9908163330001,704.9908163330001,705.957544458,705.957544458,705.957544458,705.957544458,706.9571930000002,200007,005,2023-04-11_09h34.36.036,DMS_et_12-36,2022.2.4,None,
104,UNPRED,12,1.0338939206976834,1,images/picture_2.png,images/picture_1.png,0,"[11.733433509789462, -11.733433509789466]",11.733433509789462,-11.733433509789464,images/picture_2.png,1,"[11.733433509789464, 11.733433509789462]",11.733433509789464,11.733433509789462,images/picture_3.png,2,"[-11.733433509789462, 11.733433509789464]",-11.733433509789462,11.733433509789464,0,1,1,1.0338939206976834,2.033893920697684,0.9661060793023166,3.0,1,1.7838939206976834,0,4.0,3.0,1,2,11,0,11,0,0,4,4,5,,,,,,,706.9571930000002,706.9571930000002,707.95754175,708.7433120000001,708.990779917,708.990779917,708.990779917,709.957189875,709.957189875,709.957189875,709.957189875,710.976768125,200007,005,2023-04-11_09h34.36.036,DMS_et_12-36,2022.2.4,None,
102,UNPRED,12,1.0338939206976834,2,images/picture_3.png,images/picture_1.png,0,"[11.733433509789462, -11.733433509789466]",11.733433509789462,-11.733433509789464,images/picture_2.png,1,"[11.733433509789464, 11.733433509789462]",11.733433509789464,11.733433509789462,images/picture_3.png,2,"[-11.733433509789462, 11.733433509789464]",-11.733433509789462,11.733433509789464,0,1,1,1.0338939206976834,2.033893920697684,0.9661060793023166,3.0,1,1.7838939206976834,0,4.0,3.0,1,2,11,0,11,0,0,5,5,3,,,,,,,710.976768125,710.976768125,711.990973125,712.7574500000001,712.9907302500001,712.9907302500001,712.9907302500001,713.957524292,713.957524292,713.957524292,713.957524292,714.976714125,200007,005,2023-04-11_09h34.36.036,DMS_et_12-36,2022.2.4,None,
107,UNPRED,12,1.0338939206976834,1,images/picture_2.png,images/picture_1.png,0,"[-11.733433509789462, 11.733433509789464]",-11.733433509789462,11.733433509789464,images/picture_2.png,1,"[11.733433509789464, 11.733433509789462]",11.733433509789464,11.733433509789462,images/picture_3.png,2,"[-11.733433509789466, -11.733433509789462]",-11.733433509789464,-11.733433509789462,0,1,1,1.0338939206976834,2.033893920697684,0.9661060793023166,3.0,1,1.7838939206976834,0,4.0,3.0,1,2,11,0,11,0,0,6,6,8,,,,,,,714.976714125,714.976714125,715.9907548330002,716.7574624170002,716.990713958,716.990713958,716.990713958,717.9575937919999,717.9575937919999,717.9575937919999,717.9575937919999,718.976139208,200007,005,2023-04-11_09h34.36.036,DMS_et_12-36,2022.2.4,None,
103,UNPRED,12,1.0338939206976834,2,images/picture_3.png,images/picture_1.png,0,"[-11.733433509789462, 11.733433509789464]",-11.733433509789462,11.733433509789464,images/picture_2.png,1,"[11.733433509789464, 11.733433509789462]",11.733433509789464,11.733433509789462,images/picture_3.png,2,"[-11.733433509789466, -11.733433509789462]",-11.733433509789464,-11.733433509789462,0,1,1,1.0338939206976834,2.033893920697684,0.9661060793023166,3.0,1,1.7838939206976834,0,4.0,3.0,1,2,11,0,11,0,0,7,7,4,,,,,,,718.976139208,718.976139208,719.990489667,720.757549375,720.990820042,720.990820042,720.990820042,721.9573180420002,721.9573180420002,721.9573180420002,721.9573180420002,722.957324167,200007,005,2023-04-11_09h34.36.036,DMS_et_12-36,2022.2.4,None,
100,UNPRED,12,1.0338939206976834,0,images/picture_1.png,images/picture_1.png,0,"[11.733433509789464, 11.733433509789462]",11.733433509789464,11.733433509789462,images/picture_2.png,1,"[-11.733433509789466, -11.733433509789462]",-11.733433509789464,-11.733433509789462,images/picture_3.png,2,"[-11.733433509789462, 11.733433509789464]",-11.733433509789462,11.733433509789464,0,1,1,1.0338939206976834,2.033893920697684,0.9661060793023166,3.0,1,1.7838939206976834,0,4.0,3.0,1,2,11,0,11,0,0,8,8,1,,,,,,,722.957324167,722.957324167,723.957481125,724.743408417,724.9909641670001,724.9909641670001,724.9909641670001,725.9574712080002,725.9574712080002,725.9574712080002,725.9574712080002,727.126998667,200007,005,2023-04-11_09h34.36.036,DMS_et_12-36,2022.2.4,None,
,,,,,,,,,,,,,,,,,,,,,,,,,,,,,,,,,,,11,0,11,0,,,,,,,,,727.126998667,739.2600497500002,,,,,,,,,,,,,200007,005,2023-04-11_09h34.36.036,DMS_et_12-36,2022.2.4,None,
,,,,,,,,,,,,,,,,,,,,,,,,,,,,,,,,,,,,,,,,,,,,,,,739.2600497500002,751.7868552079999,,,,,,,,,,,,,,,,,,,
