trial_count,blockType,blockNum,delay_time,stimImage_i,stimImage,responseImage1,responseImage1_i,responseImage1_pos,responseImage1_X,responseImage1_Y,responseImage2,responseImage2_i,responseImage2_pos,responseImage2_X,responseImage2_Y,responseImage3,responseImage3_i,responseImage3_pos,responseImage3_X,responseImage3_Y,cue_onset,cue_dur,delay_onset,delay_dur,resp_onset,resp_dur,rest_onset,rest_dur,circle_dur,circle_onset,total_dur,cross_onset,cross_dur,delay_resp_period,blocks.thisRepN,blocks.thisTrialN,blocks.thisN,blocks.thisIndex,trials.thisRepN,trials.thisTrialN,trials.thisN,trials.thisIndex,key_resp.started,text.started,key_resp.keys,key_resp.rt,text_2.started,text_2.stopped,sample.started,Delay.started,sample.stopped,Delay.stopped,Response_1.started,Response_2.started,Response_3.started,polygon.started,Response_1.stopped,Response_2.stopped,Response_3.stopped,polygon.stopped,participant,session,date,expName,psychopyVersion,frameRate,
,,,,,,,,,,,,,,,,,,,,,,,,,,,,,,,,,,,,,,,,,,,114.76043104194105,114.76043104194105,t,48.36993445898406,,,,,,,,,,,,,,,200003,106,2023-03-24_13h42.05.700,DMS_et_12-36,2022.2.4,None,
2,PRED,12,0.9947008566905448,1,images/picture_2.png,images/picture_1.png,0,"[11.733433509789462, -11.733433509789466]",11.733433509789462,-11.733433509789464,images/picture_2.png,1,"[-11.733433509789462, 11.733433509789464]",-11.733433509789462,11.733433509789464,images/picture_3.png,2,"[11.733433509789464, 11.733433509789462]",11.733433509789464,11.733433509789462,0,1,1,0.9947008566905448,1.9947008566905449,1.0052991433094551,3.0,1,1.7447008566905449,0,4.0,3.0,1,2,0,0,0,0,0,0,0,2,,,,,163.64840816694777,175.66637287498452,175.66637287498452,175.66637287498452,176.67435279197525,177.40792170900386,177.66053437499795,177.66053437499795,177.66053437499795,178.6604246669449,178.67448795901146,178.67448795901146,178.67448795901146,179.67378812504467,200003,106,2023-03-24_13h42.05.700,DMS_et_12-36,2022.2.4,None,
8,PRED,12,0.9947008566905448,1,images/picture_2.png,images/picture_1.png,0,"[11.733433509789462, -11.733433509789466]",11.733433509789462,-11.733433509789464,images/picture_2.png,1,"[11.733433509789464, 11.733433509789462]",11.733433509789464,11.733433509789462,images/picture_3.png,2,"[-11.733433509789466, -11.733433509789462]",-11.733433509789464,-11.733433509789462,0,1,1,0.9947008566905448,1.9947008566905449,1.0052991433094551,3.0,1,1.7447008566905449,0,4.0,3.0,1,2,0,0,0,0,0,1,1,8,,,,,,,179.67378812504467,179.67378812504467,180.67453916696832,181.42771054198965,181.66025979199912,181.66025979199912,181.66025979199912,182.6749139999738,182.6749139999738,182.6749139999738,182.6749139999738,183.67411183402874,200003,106,2023-03-24_13h42.05.700,DMS_et_12-36,2022.2.4,None,
0,PRED,12,0.9947008566905448,1,images/picture_2.png,images/picture_1.png,0,"[11.733433509789462, -11.733433509789466]",11.733433509789462,-11.733433509789464,images/picture_2.png,1,"[-11.733433509789462, 11.733433509789464]",-11.733433509789462,11.733433509789464,images/picture_3.png,2,"[-11.733433509789466, -11.733433509789462]",-11.733433509789464,-11.733433509789462,0,1,1,0.9947008566905448,1.9947008566905449,1.0052991433094551,3.0,1,1.7447008566905449,0,4.0,3.0,1,2,0,0,0,0,0,2,2,0,,,,,,,183.67411183402874,183.67411183402874,184.67450391699094,185.42706916702446,185.65981029195245,185.65981029195245,185.65981029195245,186.67416079202667,186.67416079202667,186.67416079202667,186.67416079202667,187.67387104197405,200003,106,2023-03-24_13h42.05.700,DMS_et_12-36,2022.2.4,None,
4,PRED,12,0.9947008566905448,1,images/picture_2.png,images/picture_1.png,0,"[-11.733433509789462, 11.733433509789464]",-11.733433509789462,11.733433509789464,images/picture_2.png,1,"[11.733433509789464, 11.733433509789462]",11.733433509789464,11.733433509789462,images/picture_3.png,2,"[11.733433509789462, -11.733433509789466]",11.733433509789462,-11.733433509789464,0,1,1,0.9947008566905448,1.9947008566905449,1.0052991433094551,3.0,1,1.7447008566905449,0,4.0,3.0,1,2,0,0,0,0,0,3,3,4,,,,,,,187.67387104197405,187.67387104197405,188.67462104198057,189.42690004198812,189.6605937089771,189.6605937089771,189.6605937089771,190.67448116699234,190.67448116699234,190.67448116699234,190.67448116699234,191.67346666695084,200003,106,2023-03-24_13h42.05.700,DMS_et_12-36,2022.2.4,None,
7,PRED,12,0.9947008566905448,1,images/picture_2.png,images/picture_1.png,0,"[11.733433509789462, -11.733433509789466]",11.733433509789462,-11.733433509789464,images/picture_2.png,1,"[-11.733433509789466, -11.733433509789462]",-11.733433509789464,-11.733433509789462,images/picture_3.png,2,"[-11.733433509789462, 11.733433509789464]",-11.733433509789462,11.733433509789464,0,1,1,0.9947008566905448,1.9947008566905449,1.0052991433094551,3.0,1,1.7447008566905449,0,4.0,3.0,1,2,0,0,0,0,0,4,4,7,,,,,,,191.67346666695084,191.67346666695084,192.6745635420084,193.42702829197515,193.66068520897534,193.66068520897534,193.66068520897534,194.67438937502448,194.67438937502448,194.67438937502448,194.67438937502448,195.6741966670379,200003,106,2023-03-24_13h42.05.700,DMS_et_12-36,2022.2.4,None,
3,PRED,12,0.9947008566905448,1,images/picture_2.png,images/picture_1.png,0,"[-11.733433509789462, 11.733433509789464]",-11.733433509789462,11.733433509789464,images/picture_2.png,1,"[11.733433509789462, -11.733433509789466]",11.733433509789462,-11.733433509789464,images/picture_3.png,2,"[11.733433509789464, 11.733433509789462]",11.733433509789464,11.733433509789462,0,1,1,0.9947008566905448,1.9947008566905449,1.0052991433094551,3.0,1,1.7447008566905449,0,4.0,3.0,1,2,0,0,0,0,0,5,5,3,,,,,,,195.6741966670379,195.6741966670379,196.67422458401415,197.42644583398942,197.65992537501734,197.65992537501734,197.65992537501734,198.674537917017,198.674537917017,198.674537917017,198.674537917017,199.6739287499804,200003,106,2023-03-24_13h42.05.700,DMS_et_12-36,2022.2.4,None,
6,PRED,12,0.9947008566905448,1,images/picture_2.png,images/picture_1.png,0,"[11.733433509789464, 11.733433509789462]",11.733433509789464,11.733433509789462,images/picture_2.png,1,"[-11.733433509789466, -11.733433509789462]",-11.733433509789464,-11.733433509789462,images/picture_3.png,2,"[-11.733433509789462, 11.733433509789464]",-11.733433509789462,11.733433509789464,0,1,1,0.9947008566905448,1.9947008566905449,1.0052991433094551,3.0,1,1.7447008566905449,0,4.0,3.0,1,2,0,0,0,0,0,6,6,6,,,,,,,199.6739287499804,199.6739287499804,200.6746472090017,201.42693004198372,201.6605487089837,201.6605487089837,201.6605487089837,202.6744341669837,202.6744341669837,202.6744341669837,202.6744341669837,203.6737318340456,200003,106,2023-03-24_13h42.05.700,DMS_et_12-36,2022.2.4,None,
5,PRED,12,0.9947008566905448,1,images/picture_2.png,images/picture_1.png,0,"[11.733433509789464, 11.733433509789462]",11.733433509789464,11.733433509789462,images/picture_2.png,1,"[11.733433509789462, -11.733433509789466]",11.733433509789462,-11.733433509789464,images/picture_3.png,2,"[-11.733433509789466, -11.733433509789462]",-11.733433509789464,-11.733433509789462,0,1,1,0.9947008566905448,1.9947008566905449,1.0052991433094551,3.0,1,1.7447008566905449,0,4.0,3.0,1,2,0,0,0,0,0,7,7,5,,,,,,,203.6737318340456,203.6737318340456,204.67449300002772,205.42692400002852,205.6744585839333,205.6744585839333,205.6744585839333,206.6744315000251,206.69333499995992,206.69333499995992,206.69333499995992,207.67366787500214,200003,106,2023-03-24_13h42.05.700,DMS_et_12-36,2022.2.4,None,
1,PRED,12,0.9947008566905448,1,images/picture_2.png,images/picture_1.png,0,"[-11.733433509789466, -11.733433509789462]",-11.733433509789464,-11.733433509789462,images/picture_2.png,1,"[-11.733433509789462, 11.733433509789464]",-11.733433509789462,11.733433509789464,images/picture_3.png,2,"[11.733433509789462, -11.733433509789466]",11.733433509789462,-11.733433509789464,0,1,1,0.9947008566905448,1.9947008566905449,1.0052991433094551,3.0,1,1.7447008566905449,0,4.0,3.0,1,2,0,0,0,0,0,8,8,1,,,,,,,207.67366787500214,207.67366787500214,208.67450533399824,209.42704108403996,209.66051499999594,209.66051499999594,209.66051499999594,210.67448291694745,210.67448291694745,210.67448291694745,210.67448291694745,211.69352645904291,200003,106,2023-03-24_13h42.05.700,DMS_et_12-36,2022.2.4,None,
,,,,,,,,,,,,,,,,,,,,,,,,,,,,,,,,,,,0,0,0,0,,,,,,,,,211.69352645904291,223.73683845903724,,,,,,,,,,,,,200003,106,2023-03-24_13h42.05.700,DMS_et_12-36,2022.2.4,None,
14,UNPRED,12,0.9947008566905448,2,images/picture_3.png,images/picture_1.png,0,"[11.733433509789464, 11.733433509789462]",11.733433509789464,11.733433509789462,images/picture_2.png,1,"[11.733433509789462, -11.733433509789466]",11.733433509789462,-11.733433509789464,images/picture_3.png,2,"[-11.733433509789466, -11.733433509789462]",-11.733433509789464,-11.733433509789462,0,1,1,0.9947008566905448,1.9947008566905449,1.0052991433094551,3.0,1,1.7447008566905449,0,4.0,3.0,1,2,1,0,1,0,0,0,0,5,,,,,,,223.73683845903724,223.73683845903724,224.741336917039,225.49368841701653,225.70774700003676,225.70774700003676,225.70774700003676,226.7264478750294,226.7264478750294,226.7264478750294,226.7264478750294,227.74120666703675,200003,106,2023-03-24_13h42.05.700,DMS_et_12-36,2022.2.4,None,
13,UNPRED,12,0.9947008566905448,0,images/picture_1.png,images/picture_1.png,0,"[-11.733433509789466, -11.733433509789462]",-11.733433509789464,-11.733433509789462,images/picture_2.png,1,"[-11.733433509789462, 11.733433509789464]",-11.733433509789462,11.733433509789464,images/picture_3.png,2,"[11.733433509789464, 11.733433509789462]",11.733433509789464,11.733433509789462,0,1,1,0.9947008566905448,1.9947008566905449,1.0052991433094551,3.0,1,1.7447008566905449,0,4.0,3.0,1,2,1,0,1,0,0,1,1,4,,,,,,,227.74120666703675,227.74120666703675,228.74123133404646,229.4938651670236,229.72712874994613,229.72712874994613,229.72712874994613,230.74137095897458,230.74137095897458,230.74137095897458,230.74137095897458,231.75970645900816,200003,106,2023-03-24_13h42.05.700,DMS_et_12-36,2022.2.4,None,
9,UNPRED,12,0.9947008566905448,2,images/picture_3.png,images/picture_1.png,0,"[11.733433509789462, -11.733433509789466]",11.733433509789462,-11.733433509789464,images/picture_2.png,1,"[-11.733433509789462, 11.733433509789464]",-11.733433509789462,11.733433509789464,images/picture_3.png,2,"[-11.733433509789466, -11.733433509789462]",-11.733433509789464,-11.733433509789462,0,1,1,0.9947008566905448,1.9947008566905449,1.0052991433094551,3.0,1,1.7447008566905449,0,4.0,3.0,1,2,1,0,1,0,0,2,2,0,,,,,,,231.75970645900816,231.75970645900816,232.77451983396895,233.50792312494013,233.72716208396014,233.72716208396014,233.72716208396014,234.741234584013,234.741234584013,234.741234584013,234.741234584013,235.7415809170343,200003,106,2023-03-24_13h42.05.700,DMS_et_12-36,2022.2.4,None,
17,UNPRED,12,0.9947008566905448,1,images/picture_2.png,images/picture_1.png,0,"[11.733433509789464, 11.733433509789462]",11.733433509789464,11.733433509789462,images/picture_2.png,1,"[-11.733433509789466, -11.733433509789462]",-11.733433509789464,-11.733433509789462,images/picture_3.png,2,"[-11.733433509789462, 11.733433509789464]",-11.733433509789462,11.733433509789464,0,1,1,0.9947008566905448,1.9947008566905449,1.0052991433094551,3.0,1,1.7447008566905449,0,4.0,3.0,1,2,1,0,1,0,0,3,3,8,,,,,,,235.7415809170343,235.7415809170343,236.74136054201517,237.49350904196035,237.72665545903146,237.72665545903146,237.72665545903146,238.74112820904702,238.74112820904702,238.74112820904702,238.74112820904702,239.75982362497598,200003,106,2023-03-24_13h42.05.700,DMS_et_12-36,2022.2.4,None,
11,UNPRED,12,0.9947008566905448,2,images/picture_3.png,images/picture_1.png,0,"[-11.733433509789462, 11.733433509789464]",-11.733433509789462,11.733433509789464,images/picture_2.png,1,"[-11.733433509789466, -11.733433509789462]",-11.733433509789464,-11.733433509789462,images/picture_3.png,2,"[11.733433509789464, 11.733433509789462]",11.733433509789464,11.733433509789462,0,1,1,0.9947008566905448,1.9947008566905449,1.0052991433094551,3.0,1,1.7447008566905449,0,4.0,3.0,1,2,1,0,1,0,0,4,4,2,,,,,,,239.75982362497598,239.75982362497598,240.7745787500171,241.50791170902085,241.72696775000077,241.72696775000077,241.72696775000077,242.74141883396078,242.74141883396078,242.74141883396078,242.74141883396078,243.75988558400422,200003,106,2023-03-24_13h42.05.700,DMS_et_12-36,2022.2.4,None,
15,UNPRED,12,0.9947008566905448,2,images/picture_3.png,images/picture_1.png,0,"[11.733433509789464, 11.733433509789462]",11.733433509789464,11.733433509789462,images/picture_2.png,1,"[-11.733433509789466, -11.733433509789462]",-11.733433509789464,-11.733433509789462,images/picture_3.png,2,"[-11.733433509789462, 11.733433509789464]",-11.733433509789462,11.733433509789464,0,1,1,0.9947008566905448,1.9947008566905449,1.0052991433094551,3.0,1,1.7447008566905449,0,4.0,3.0,1,2,1,0,1,0,0,5,5,6,,,,,,,243.75988558400422,243.75988558400422,244.77458370896056,245.5079191669356,245.72704349993728,245.72704349993728,245.72704349993728,246.74123304197565,246.74123304197565,246.74123304197565,246.74123304197565,247.74087850004435,200003,106,2023-03-24_13h42.05.700,DMS_et_12-36,2022.2.4,None,
12,UNPRED,12,0.9947008566905448,1,images/picture_2.png,images/picture_1.png,0,"[-11.733433509789466, -11.733433509789462]",-11.733433509789464,-11.733433509789462,images/picture_2.png,1,"[-11.733433509789462, 11.733433509789464]",-11.733433509789462,11.733433509789464,images/picture_3.png,2,"[11.733433509789462, -11.733433509789466]",11.733433509789462,-11.733433509789464,0,1,1,0.9947008566905448,1.9947008566905449,1.0052991433094551,3.0,1,1.7447008566905449,0,4.0,3.0,1,2,1,0,1,0,0,6,6,3,,,,,,,247.74087850004435,247.74087850004435,248.74139320896938,249.49389849998988,249.72715491696727,249.72715491696727,249.72715491696727,250.74123358400539,250.74123358400539,250.74123358400539,250.74123358400539,251.74073966697324,200003,106,2023-03-24_13h42.05.700,DMS_et_12-36,2022.2.4,None,
16,UNPRED,12,0.9947008566905448,1,images/picture_2.png,images/picture_1.png,0,"[11.733433509789462, -11.733433509789466]",11.733433509789462,-11.733433509789464,images/picture_2.png,1,"[-11.733433509789462, 11.733433509789464]",-11.733433509789462,11.733433509789464,images/picture_3.png,2,"[-11.733433509789466, -11.733433509789462]",-11.733433509789464,-11.733433509789462,0,1,1,0.9947008566905448,1.9947008566905449,1.0052991433094551,3.0,1,1.7447008566905449,0,4.0,3.0,1,2,1,0,1,0,0,7,7,7,,,,,,,251.74073966697324,251.74073966697324,252.7411649590358,253.4937892089365,253.7270691250451,253.7270691250451,253.7270691250451,254.74145091697574,254.74145091697574,254.74145091697574,254.74145091697574,255.74070537497755,200003,106,2023-03-24_13h42.05.700,DMS_et_12-36,2022.2.4,None,
10,UNPRED,12,0.9947008566905448,0,images/picture_1.png,images/picture_1.png,0,"[11.733433509789464, 11.733433509789462]",11.733433509789464,11.733433509789462,images/picture_2.png,1,"[-11.733433509789462, 11.733433509789464]",-11.733433509789462,11.733433509789464,images/picture_3.png,2,"[11.733433509789462, -11.733433509789466]",11.733433509789462,-11.733433509789464,0,1,1,0.9947008566905448,1.9947008566905449,1.0052991433094551,3.0,1,1.7447008566905449,0,4.0,3.0,1,2,1,0,1,0,0,8,8,1,,,,,,,255.74070537497755,255.74070537497755,256.741236959002,257.4929465840105,257.7263309590053,257.7263309590053,257.7263309590053,258.7410827089334,258.7410827089334,258.7410827089334,258.7410827089334,259.77374620898627,200003,106,2023-03-24_13h42.05.700,DMS_et_12-36,2022.2.4,None,
,,,,,,,,,,,,,,,,,,,,,,,,,,,,,,,,,,,1,0,1,0,,,,,,,,,259.77374620898627,271.7934987919871,,,,,,,,,,,,,200003,106,2023-03-24_13h42.05.700,DMS_et_12-36,2022.2.4,None,
21,PRED,12,0.9947008566905448,0,images/picture_1.png,images/picture_1.png,0,"[-11.733433509789466, -11.733433509789462]",-11.733433509789464,-11.733433509789462,images/picture_2.png,1,"[11.733433509789464, 11.733433509789462]",11.733433509789464,11.733433509789462,images/picture_3.png,2,"[-11.733433509789462, 11.733433509789464]",-11.733433509789462,11.733433509789464,0,1,1,0.9947008566905448,1.9947008566905449,1.0052991433094551,3.0,1,1.7447008566905449,0,4.0,3.0,1,2,2,0,2,0,0,0,0,3,,,,,,,271.7934987919871,271.7934987919871,272.8081027499866,273.54122341703624,273.77447362500243,273.77447362500243,273.77447362500243,274.7937807920389,274.7937807920389,274.7937807920389,274.7937807920389,275.8076325840084,200003,106,2023-03-24_13h42.05.700,DMS_et_12-36,2022.2.4,None,
26,PRED,12,0.9947008566905448,0,images/picture_1.png,images/picture_1.png,0,"[11.733433509789462, -11.733433509789466]",11.733433509789462,-11.733433509789464,images/picture_2.png,1,"[-11.733433509789466, -11.733433509789462]",-11.733433509789464,-11.733433509789462,images/picture_3.png,2,"[11.733433509789464, 11.733433509789462]",11.733433509789464,11.733433509789462,0,1,1,0.9947008566905448,1.9947008566905449,1.0052991433094551,3.0,1,1.7447008566905449,0,4.0,3.0,1,2,2,0,2,0,0,1,1,8,,,,,,,275.8076325840084,275.8076325840084,276.8079409999773,277.56045141699724,277.7935735420324,277.7935735420324,277.7935735420324,278.8077818750171,278.8077818750171,278.8077818750171,278.8077818750171,279.8076270839665,200003,106,2023-03-24_13h42.05.700,DMS_et_12-36,2022.2.4,None,
18,PRED,12,0.9947008566905448,0,images/picture_1.png,images/picture_1.png,0,"[-11.733433509789462, 11.733433509789464]",-11.733433509789462,11.733433509789464,images/picture_2.png,1,"[11.733433509789462, -11.733433509789466]",11.733433509789462,-11.733433509789464,images/picture_3.png,2,"[-11.733433509789466, -11.733433509789462]",-11.733433509789464,-11.733433509789462,0,1,1,0.9947008566905448,1.9947008566905449,1.0052991433094551,3.0,1,1.7447008566905449,0,4.0,3.0,1,2,2,0,2,0,0,2,2,0,,,,,,,279.8076270839665,279.8076270839665,280.8079207090195,281.5605374589795,281.7940263339551,281.7940263339551,281.7940263339551,282.80791429197416,282.80791429197416,282.80791429197416,282.80791429197416,283.8076988749672,200003,106,2023-03-24_13h42.05.700,DMS_et_12-36,2022.2.4,None,
20,PRED,12,0.9947008566905448,0,images/picture_1.png,images/picture_1.png,0,"[11.733433509789462, -11.733433509789466]",11.733433509789462,-11.733433509789464,images/picture_2.png,1,"[-11.733433509789462, 11.733433509789464]",-11.733433509789462,11.733433509789464,images/picture_3.png,2,"[-11.733433509789466, -11.733433509789462]",-11.733433509789464,-11.733433509789462,0,1,1,0.9947008566905448,1.9947008566905449,1.0052991433094551,3.0,1,1.7447008566905449,0,4.0,3.0,1,2,2,0,2,0,0,3,3,2,,,,,,,283.8076988749672,283.8076988749672,284.8081214169506,285.56047733395826,285.794024584,285.794024584,285.794024584,286.80795608402696,286.80795608402696,286.80795608402696,286.80795608402696,287.8078259170288,200003,106,2023-03-24_13h42.05.700,DMS_et_12-36,2022.2.4,None,
24,PRED,12,0.9947008566905448,0,images/picture_1.png,images/picture_1.png,0,"[11.733433509789462, -11.733433509789466]",11.733433509789462,-11.733433509789464,images/picture_2.png,1,"[-11.733433509789466, -11.733433509789462]",-11.733433509789464,-11.733433509789462,images/picture_3.png,2,"[-11.733433509789462, 11.733433509789464]",-11.733433509789462,11.733433509789464,0,1,1,0.9947008566905448,1.9947008566905449,1.0052991433094551,3.0,1,1.7447008566905449,0,4.0,3.0,1,2,2,0,2,0,0,4,4,6,,,,,,,287.8078259170288,287.8078259170288,288.8077132500475,289.56055549997836,289.79397483402863,289.79397483402863,289.79397483402863,290.80815420893487,290.80815420893487,290.80815420893487,290.80815420893487,291.80758637504186,200003,106,2023-03-24_13h42.05.700,DMS_et_12-36,2022.2.4,None,
23,PRED,12,0.9947008566905448,0,images/picture_1.png,images/picture_1.png,0,"[11.733433509789464, 11.733433509789462]",11.733433509789464,11.733433509789462,images/picture_2.png,1,"[-11.733433509789466, -11.733433509789462]",-11.733433509789464,-11.733433509789462,images/picture_3.png,2,"[-11.733433509789462, 11.733433509789464]",-11.733433509789462,11.733433509789464,0,1,1,0.9947008566905448,1.9947008566905449,1.0052991433094551,3.0,1,1.7447008566905449,0,4.0,3.0,1,2,2,0,2,0,0,5,5,5,,,,,,,291.80758637504186,291.80758637504186,292.8080099170329,293.56041270901915,293.79384916694835,293.79384916694835,293.79384916694835,294.80790612497367,294.80790612497367,294.80790612497367,294.80790612497367,295.8073370839702,200003,106,2023-03-24_13h42.05.700,DMS_et_12-36,2022.2.4,None,
25,PRED,12,0.9947008566905448,0,images/picture_1.png,images/picture_1.png,0,"[11.733433509789464, 11.733433509789462]",11.733433509789464,11.733433509789462,images/picture_2.png,1,"[11.733433509789462, -11.733433509789466]",11.733433509789462,-11.733433509789464,images/picture_3.png,2,"[-11.733433509789466, -11.733433509789462]",-11.733433509789464,-11.733433509789462,0,1,1,0.9947008566905448,1.9947008566905449,1.0052991433094551,3.0,1,1.7447008566905449,0,4.0,3.0,1,2,2,0,2,0,0,6,6,7,,,,,,,295.8073370839702,295.8073370839702,296.80806329194456,297.5607004589401,297.793791458942,297.793791458942,297.793791458942,298.80761145893484,298.80761145893484,298.80761145893484,298.80761145893484,299.80764579202514,200003,106,2023-03-24_13h42.05.700,DMS_et_12-36,2022.2.4,None,
19,PRED,12,0.9947008566905448,0,images/picture_1.png,images/picture_1.png,0,"[11.733433509789462, -11.733433509789466]",11.733433509789462,-11.733433509789464,images/picture_2.png,1,"[-11.733433509789462, 11.733433509789464]",-11.733433509789462,11.733433509789464,images/picture_3.png,2,"[-11.733433509789466, -11.733433509789462]",-11.733433509789464,-11.733433509789462,0,1,1,0.9947008566905448,1.9947008566905449,1.0052991433094551,3.0,1,1.7447008566905449,0,4.0,3.0,1,2,2,0,2,0,0,7,7,1,,,,,,,299.80764579202514,299.80764579202514,300.80795458401553,301.5605114999926,301.79391195904464,301.79391195904464,301.79391195904464,302.80807975004427,302.80807975004427,302.80807975004427,302.80807975004427,303.8076287920121,200003,106,2023-03-24_13h42.05.700,DMS_et_12-36,2022.2.4,None,
22,PRED,12,0.9947008566905448,0,images/picture_1.png,images/picture_1.png,0,"[-11.733433509789462, 11.733433509789464]",-11.733433509789462,11.733433509789464,images/picture_2.png,1,"[-11.733433509789466, -11.733433509789462]",-11.733433509789464,-11.733433509789462,images/picture_3.png,2,"[11.733433509789462, -11.733433509789466]",11.733433509789462,-11.733433509789464,0,1,1,0.9947008566905448,1.9947008566905449,1.0052991433094551,3.0,1,1.7447008566905449,0,4.0,3.0,1,2,2,0,2,0,0,8,8,4,,,,,,,303.8076287920121,303.8076287920121,304.8080734589603,305.56044779194053,305.79400929203257,305.79400929203257,305.79400929203257,306.8080052919686,306.8080052919686,306.8080052919686,306.8080052919686,307.8525445839623,200003,106,2023-03-24_13h42.05.700,DMS_et_12-36,2022.2.4,None,
,,,,,,,,,,,,,,,,,,,,,,,,,,,,,,,,,,,2,0,2,0,,,,,,,,,307.8525445839623,319.8686492500128,,,,,,,,,,,,,200003,106,2023-03-24_13h42.05.700,DMS_et_12-36,2022.2.4,None,
30,UNPRED,12,0.9947008566905448,2,images/picture_3.png,images/picture_1.png,0,"[-11.733433509789466, -11.733433509789462]",-11.733433509789464,-11.733433509789462,images/picture_2.png,1,"[11.733433509789464, 11.733433509789462]",11.733433509789464,11.733433509789462,images/picture_3.png,2,"[-11.733433509789462, 11.733433509789464]",-11.733433509789462,11.733433509789464,0,1,1,0.9947008566905448,1.9947008566905449,1.0052991433094551,3.0,1,1.7447008566905449,0,4.0,3.0,1,2,3,0,3,0,0,0,0,3,,,,,,,319.8686492500128,319.8686492500128,320.8747491670074,321.62742483394686,321.8607075420441,321.8607075420441,321.8607075420441,322.86080150003545,322.8747207089327,322.8747207089327,322.8747207089327,323.89320920896716,200003,106,2023-03-24_13h42.05.700,DMS_et_12-36,2022.2.4,None,
35,UNPRED,12,0.9947008566905448,2,images/picture_3.png,images/picture_1.png,0,"[11.733433509789462, -11.733433509789466]",11.733433509789462,-11.733433509789464,images/picture_2.png,1,"[-11.733433509789462, 11.733433509789464]",-11.733433509789462,11.733433509789464,images/picture_3.png,2,"[11.733433509789464, 11.733433509789462]",11.733433509789464,11.733433509789462,0,1,1,0.9947008566905448,1.9947008566905449,1.0052991433094551,3.0,1,1.7447008566905449,0,4.0,3.0,1,2,3,0,3,0,0,1,1,8,,,,,,,323.89320920896716,323.89320920896716,324.90798266697675,325.64123354200274,325.8605814590119,325.8605814590119,325.8605814590119,326.87452225002926,326.87452225002926,326.87452225002926,326.87452225002926,327.89334658393636,200003,106,2023-03-24_13h42.05.700,DMS_et_12-36,2022.2.4,None,
33,UNPRED,12,0.9947008566905448,2,images/picture_3.png,images/picture_1.png,0,"[-11.733433509789462, 11.733433509789464]",-11.733433509789462,11.733433509789464,images/picture_2.png,1,"[-11.733433509789466, -11.733433509789462]",-11.733433509789464,-11.733433509789462,images/picture_3.png,2,"[11.733433509789464, 11.733433509789462]",11.733433509789464,11.733433509789462,0,1,1,0.9947008566905448,1.9947008566905449,1.0052991433094551,3.0,1,1.7447008566905449,0,4.0,3.0,1,2,3,0,3,0,0,2,2,6,,,,,,,327.89334658393636,327.89334658393636,328.9080420419341,329.64112229202874,329.8599144589389,329.8599144589389,329.8599144589389,330.8746850839816,330.8746850839816,330.8746850839816,330.8746850839816,331.874366333941,200003,106,2023-03-24_13h42.05.700,DMS_et_12-36,2022.2.4,None,
32,UNPRED,12,0.9947008566905448,1,images/picture_2.png,images/picture_1.png,0,"[-11.733433509789466, -11.733433509789462]",-11.733433509789464,-11.733433509789462,images/picture_2.png,1,"[11.733433509789464, 11.733433509789462]",11.733433509789464,11.733433509789462,images/picture_3.png,2,"[11.733433509789462, -11.733433509789466]",11.733433509789462,-11.733433509789464,0,1,1,0.9947008566905448,1.9947008566905449,1.0052991433094551,3.0,1,1.7447008566905449,0,4.0,3.0,1,2,3,0,3,0,0,3,3,5,,,,,,,331.874366333941,331.874366333941,332.87470604199916,333.62717062502634,333.86086670903023,333.86086670903023,333.86086670903023,334.87472029193304,334.87472029193304,334.87472029193304,334.87472029193304,335.8740572090028,200003,106,2023-03-24_13h42.05.700,DMS_et_12-36,2022.2.4,None,
27,UNPRED,12,0.9947008566905448,0,images/picture_1.png,images/picture_1.png,0,"[-11.733433509789466, -11.733433509789462]",-11.733433509789464,-11.733433509789462,images/picture_2.png,1,"[-11.733433509789462, 11.733433509789464]",-11.733433509789462,11.733433509789464,images/picture_3.png,2,"[11.733433509789462, -11.733433509789466]",11.733433509789462,-11.733433509789464,0,1,1,0.9947008566905448,1.9947008566905449,1.0052991433094551,3.0,1,1.7447008566905449,0,4.0,3.0,1,2,3,0,3,0,0,4,4,0,,,,,,,335.8740572090028,335.8740572090028,336.8747883340111,337.62703737500124,337.8606630000286,337.8606630000286,337.8606630000286,338.87454162503127,338.87454162503127,338.87454162503127,338.87454162503127,339.87443220894784,200003,106,2023-03-24_13h42.05.700,DMS_et_12-36,2022.2.4,None,
29,UNPRED,12,0.9947008566905448,1,images/picture_2.png,images/picture_1.png,0,"[11.733433509789462, -11.733433509789466]",11.733433509789462,-11.733433509789464,images/picture_2.png,1,"[11.733433509789464, 11.733433509789462]",11.733433509789464,11.733433509789462,images/picture_3.png,2,"[-11.733433509789462, 11.733433509789464]",-11.733433509789462,11.733433509789464,0,1,1,0.9947008566905448,1.9947008566905449,1.0052991433094551,3.0,1,1.7447008566905449,0,4.0,3.0,1,2,3,0,3,0,0,5,5,2,,,,,,,339.87443220894784,339.87443220894784,340.87459233403206,341.6271332920296,341.8606954589486,341.8606954589486,341.8606954589486,342.87472854193766,342.87472854193766,342.87472854193766,342.87472854193766,343.8746697920142,200003,106,2023-03-24_13h42.05.700,DMS_et_12-36,2022.2.4,None,
31,UNPRED,12,0.9947008566905448,1,images/picture_2.png,images/picture_1.png,0,"[11.733433509789462, -11.733433509789466]",11.733433509789462,-11.733433509789464,images/picture_2.png,1,"[-11.733433509789462, 11.733433509789464]",-11.733433509789462,11.733433509789464,images/picture_3.png,2,"[-11.733433509789466, -11.733433509789462]",-11.733433509789464,-11.733433509789462,0,1,1,0.9947008566905448,1.9947008566905449,1.0052991433094551,3.0,1,1.7447008566905449,0,4.0,3.0,1,2,3,0,3,0,0,6,6,4,,,,,,,343.8746697920142,343.8746697920142,344.8746703750221,345.6273596249521,345.860622499953,345.860622499953,345.860622499953,346.8747039169539,346.8747039169539,346.8747039169539,346.8747039169539,347.8740531250369,200003,106,2023-03-24_13h42.05.700,DMS_et_12-36,2022.2.4,None,
34,UNPRED,12,0.9947008566905448,1,images/picture_2.png,images/picture_1.png,0,"[11.733433509789462, -11.733433509789466]",11.733433509789462,-11.733433509789464,images/picture_2.png,1,"[-11.733433509789462, 11.733433509789464]",-11.733433509789462,11.733433509789464,images/picture_3.png,2,"[11.733433509789464, 11.733433509789462]",11.733433509789464,11.733433509789462,0,1,1,0.9947008566905448,1.9947008566905449,1.0052991433094551,3.0,1,1.7447008566905449,0,4.0,3.0,1,2,3,0,3,0,0,7,7,7,,,,,,,347.8740531250369,347.8740531250369,348.8747134170262,349.6270889589796,349.8598820839543,349.8598820839543,349.8598820839543,350.8743975419784,350.8743975419784,350.8743975419784,350.8743975419784,351.8740274589509,200003,106,2023-03-24_13h42.05.700,DMS_et_12-36,2022.2.4,None,
28,UNPRED,12,0.9947008566905448,1,images/picture_2.png,images/picture_1.png,0,"[11.733433509789464, 11.733433509789462]",11.733433509789464,11.733433509789462,images/picture_2.png,1,"[-11.733433509789462, 11.733433509789464]",-11.733433509789462,11.733433509789464,images/picture_3.png,2,"[11.733433509789462, -11.733433509789466]",11.733433509789462,-11.733433509789464,0,1,1,0.9947008566905448,1.9947008566905449,1.0052991433094551,3.0,1,1.7447008566905449,0,4.0,3.0,1,2,3,0,3,0,0,8,8,1,,,,,,,351.8740274589509,351.8740274589509,352.87471104203723,353.62730820896104,353.8609408750199,353.8609408750199,353.8609408750199,354.8747133340221,354.8747133340221,354.8747133340221,354.8747133340221,355.9271423339378,200003,106,2023-03-24_13h42.05.700,DMS_et_12-36,2022.2.4,None,
,,,,,,,,,,,,,,,,,,,,,,,,,,,,,,,,,,,3,0,3,0,,,,,,,,,355.9271423339378,367.96093304199167,,,,,,,,,,,,,200003,106,2023-03-24_13h42.05.700,DMS_et_12-36,2022.2.4,None,
39,PRED,12,0.9947008566905448,1,images/picture_2.png,images/picture_1.png,0,"[11.733433509789462, -11.733433509789466]",11.733433509789462,-11.733433509789464,images/picture_2.png,1,"[11.733433509789464, 11.733433509789462]",11.733433509789464,11.733433509789462,images/picture_3.png,2,"[-11.733433509789462, 11.733433509789464]",-11.733433509789462,11.733433509789464,0,1,1,0.9947008566905448,1.9947008566905449,1.0052991433094551,3.0,1,1.7447008566905449,0,4.0,3.0,1,2,4,0,4,0,0,0,0,3,,,,,,,367.96093304199167,367.96093304199167,368.97469645901583,369.7080358340172,369.9606303339824,369.9606303339824,369.9606303339824,370.9598906249739,370.9743844169425,370.9743844169425,370.9743844169425,371.9740199999651,200003,106,2023-03-24_13h42.05.700,DMS_et_12-36,2022.2.4,None,
44,PRED,12,0.9947008566905448,1,images/picture_2.png,images/picture_1.png,0,"[-11.733433509789462, 11.733433509789464]",-11.733433509789462,11.733433509789464,images/picture_2.png,1,"[11.733433509789464, 11.733433509789462]",11.733433509789464,11.733433509789462,images/picture_3.png,2,"[11.733433509789462, -11.733433509789466]",11.733433509789462,-11.733433509789464,0,1,1,0.9947008566905448,1.9947008566905449,1.0052991433094551,3.0,1,1.7447008566905449,0,4.0,3.0,1,2,4,0,4,0,0,1,1,8,,,,,,,371.9740199999651,371.9740199999651,372.97473649994936,373.72749220894184,373.9608428339707,373.9608428339707,373.9608428339707,374.97468583402224,374.97468583402224,374.97468583402224,374.97468583402224,375.9741917499341,200003,106,2023-03-24_13h42.05.700,DMS_et_12-36,2022.2.4,None,
40,PRED,12,0.9947008566905448,1,images/picture_2.png,images/picture_1.png,0,"[-11.733433509789466, -11.733433509789462]",-11.733433509789464,-11.733433509789462,images/picture_2.png,1,"[-11.733433509789462, 11.733433509789464]",-11.733433509789462,11.733433509789464,images/picture_3.png,2,"[11.733433509789464, 11.733433509789462]",11.733433509789464,11.733433509789462,0,1,1,0.9947008566905448,1.9947008566905449,1.0052991433094551,3.0,1,1.7447008566905449,0,4.0,3.0,1,2,4,0,4,0,0,2,2,4,,,,,,,375.9741917499341,375.9741917499341,376.97470237500966,377.72697275003884,377.96138412493747,377.96138412493747,377.96138412493747,378.974724791944,378.974724791944,378.974724791944,378.974724791944,379.97410887503065,200003,106,2023-03-24_13h42.05.700,DMS_et_12-36,2022.2.4,None,
37,PRED,12,0.9947008566905448,1,images/picture_2.png,images/picture_1.png,0,"[11.733433509789464, 11.733433509789462]",11.733433509789464,11.733433509789462,images/picture_2.png,1,"[11.733433509789462, -11.733433509789466]",11.733433509789462,-11.733433509789464,images/picture_3.png,2,"[-11.733433509789466, -11.733433509789462]",-11.733433509789464,-11.733433509789462,0,1,1,0.9947008566905448,1.9947008566905449,1.0052991433094551,3.0,1,1.7447008566905449,0,4.0,3.0,1,2,4,0,4,0,0,3,3,1,,,,,,,379.97410887503065,379.97410887503065,380.9746103340294,381.7265686249593,381.96060120896436,381.96060120896436,381.96060120896436,382.97482379199937,382.97482379199937,382.97482379199937,382.97482379199937,383.97417458402924,200003,106,2023-03-24_13h42.05.700,DMS_et_12-36,2022.2.4,None,
36,PRED,12,0.9947008566905448,1,images/picture_2.png,images/picture_1.png,0,"[11.733433509789464, 11.733433509789462]",11.733433509789464,11.733433509789462,images/picture_2.png,1,"[-11.733433509789466, -11.733433509789462]",-11.733433509789464,-11.733433509789462,images/picture_3.png,2,"[11.733433509789462, -11.733433509789466]",11.733433509789462,-11.733433509789464,0,1,1,0.9947008566905448,1.9947008566905449,1.0052991433094551,3.0,1,1.7447008566905449,0,4.0,3.0,1,2,4,0,4,0,0,4,4,0,,,,,,,383.97417458402924,383.97417458402924,384.974742542021,385.7272688749945,385.960614874959,385.960614874959,385.960614874959,386.97476570901927,386.97476570901927,386.97476570901927,386.97476570901927,387.97424891695846,200003,106,2023-03-24_13h42.05.700,DMS_et_12-36,2022.2.4,None,
43,PRED,12,0.9947008566905448,1,images/picture_2.png,images/picture_1.png,0,"[-11.733433509789466, -11.733433509789462]",-11.733433509789464,-11.733433509789462,images/picture_2.png,1,"[11.733433509789462, -11.733433509789466]",11.733433509789462,-11.733433509789464,images/picture_3.png,2,"[11.733433509789464, 11.733433509789462]",11.733433509789464,11.733433509789462,0,1,1,0.9947008566905448,1.9947008566905449,1.0052991433094551,3.0,1,1.7447008566905449,0,4.0,3.0,1,2,4,0,4,0,0,5,5,7,,,,,,,387.97424891695846,387.97424891695846,388.9747627499746,389.72694395901635,389.96075624995865,389.96075624995865,389.96075624995865,390.97443070902955,390.97443070902955,390.97443070902955,390.97443070902955,391.9745061249705,200003,106,2023-03-24_13h42.05.700,DMS_et_12-36,2022.2.4,None,
42,PRED,12,0.9947008566905448,1,images/picture_2.png,images/picture_1.png,0,"[11.733433509789462, -11.733433509789466]",11.733433509789462,-11.733433509789464,images/picture_2.png,1,"[11.733433509789464, 11.733433509789462]",11.733433509789464,11.733433509789462,images/picture_3.png,2,"[-11.733433509789462, 11.733433509789464]",-11.733433509789462,11.733433509789464,0,1,1,0.9947008566905448,1.9947008566905449,1.0052991433094551,3.0,1,1.7447008566905449,0,4.0,3.0,1,2,4,0,4,0,0,6,6,6,,,,,,,391.9745061249705,391.9745061249705,392.9746695420472,393.7271912089782,393.9606977920048,393.9606977920048,393.9606977920048,394.974713542033,394.974713542033,394.974713542033,394.974713542033,395.9741367090028,200003,106,2023-03-24_13h42.05.700,DMS_et_12-36,2022.2.4,None,
41,PRED,12,0.9947008566905448,1,images/picture_2.png,images/picture_1.png,0,"[11.733433509789462, -11.733433509789466]",11.733433509789462,-11.733433509789464,images/picture_2.png,1,"[11.733433509789464, 11.733433509789462]",11.733433509789464,11.733433509789462,images/picture_3.png,2,"[-11.733433509789462, 11.733433509789464]",-11.733433509789462,11.733433509789464,0,1,1,0.9947008566905448,1.9947008566905449,1.0052991433094551,3.0,1,1.7447008566905449,0,4.0,3.0,1,2,4,0,4,0,0,7,7,5,,,,,,,395.9741367090028,395.9741367090028,396.9747094169725,397.7273854169762,397.9606872500153,397.9606872500153,397.9606872500153,398.97473837493453,398.97473837493453,398.97473837493453,398.97473837493453,399.9742018750403,200003,106,2023-03-24_13h42.05.700,DMS_et_12-36,2022.2.4,None,
38,PRED,12,0.9947008566905448,1,images/picture_2.png,images/picture_1.png,0,"[11.733433509789464, 11.733433509789462]",11.733433509789464,11.733433509789462,images/picture_2.png,1,"[-11.733433509789462, 11.733433509789464]",-11.733433509789462,11.733433509789464,images/picture_3.png,2,"[11.733433509789462, -11.733433509789466]",11.733433509789462,-11.733433509789464,0,1,1,0.9947008566905448,1.9947008566905449,1.0052991433094551,3.0,1,1.7447008566905449,0,4.0,3.0,1,2,4,0,4,0,0,8,8,2,,,,,,,399.9742018750403,399.9742018750403,400.97480195900425,401.7270717920037,401.9600702919997,401.9600702919997,401.9600702919997,402.9748932919465,402.9748932919465,402.9748932919465,402.9748932919465,404.08524525002576,200003,106,2023-03-24_13h42.05.700,DMS_et_12-36,2022.2.4,None,
,,,,,,,,,,,,,,,,,,,,,,,,,,,,,,,,,,,4,0,4,0,,,,,,,,,404.08524525002576,416.11065608402714,,,,,,,,,,,,,200003,106,2023-03-24_13h42.05.700,DMS_et_12-36,2022.2.4,None,
48,UNPRED,12,0.9947008566905448,1,images/picture_2.png,images/picture_1.png,0,"[11.733433509789464, 11.733433509789462]",11.733433509789464,11.733433509789462,images/picture_2.png,1,"[-11.733433509789466, -11.733433509789462]",-11.733433509789464,-11.733433509789462,images/picture_3.png,2,"[-11.733433509789462, 11.733433509789464]",-11.733433509789462,11.733433509789464,0,1,1,0.9947008566905448,1.9947008566905449,1.0052991433094551,3.0,1,1.7447008566905449,0,4.0,3.0,1,2,5,0,5,0,0,0,0,3,,,,,,,416.11065608402714,416.11065608402714,417.10793499997817,417.86041908396874,418.10777150001377,418.10777150001377,418.10777150001377,419.1077464999398,419.1271168750245,419.1271168750245,419.1271168750245,420.1072027499322,200003,106,2023-03-24_13h42.05.700,DMS_et_12-36,2022.2.4,None,
53,UNPRED,12,0.9947008566905448,1,images/picture_2.png,images/picture_1.png,0,"[11.733433509789462, -11.733433509789466]",11.733433509789462,-11.733433509789464,images/picture_2.png,1,"[11.733433509789464, 11.733433509789462]",11.733433509789464,11.733433509789462,images/picture_3.png,2,"[-11.733433509789462, 11.733433509789464]",-11.733433509789462,11.733433509789464,0,1,1,0.9947008566905448,1.9947008566905449,1.0052991433094551,3.0,1,1.7447008566905449,0,4.0,3.0,1,2,5,0,5,0,0,1,1,8,,,,,,,420.1072027499322,420.1072027499322,421.1077961670235,421.8596594169503,422.09298008400947,422.09298008400947,422.09298008400947,423.1080124169821,423.1080124169821,423.1080124169821,423.1080124169821,424.1075110420352,200003,106,2023-03-24_13h42.05.700,DMS_et_12-36,2022.2.4,None,
47,UNPRED,12,0.9947008566905448,0,images/picture_1.png,images/picture_1.png,0,"[-11.733433509789466, -11.733433509789462]",-11.733433509789464,-11.733433509789462,images/picture_2.png,1,"[11.733433509789462, -11.733433509789466]",11.733433509789462,-11.733433509789464,images/picture_3.png,2,"[-11.733433509789462, 11.733433509789464]",-11.733433509789462,11.733433509789464,0,1,1,0.9947008566905448,1.9947008566905449,1.0052991433094551,3.0,1,1.7447008566905449,0,4.0,3.0,1,2,5,0,5,0,0,2,2,2,,,,,,,424.1075110420352,424.1075110420352,425.10791412496474,425.8605732920114,426.0937101249583,426.0937101249583,426.0937101249583,427.10775929200463,427.10775929200463,427.10775929200463,427.10775929200463,428.12629275000654,200003,106,2023-03-24_13h42.05.700,DMS_et_12-36,2022.2.4,None,
49,UNPRED,12,0.9947008566905448,2,images/picture_3.png,images/picture_1.png,0,"[-11.733433509789462, 11.733433509789464]",-11.733433509789462,11.733433509789464,images/picture_2.png,1,"[11.733433509789464, 11.733433509789462]",11.733433509789464,11.733433509789462,images/picture_3.png,2,"[-11.733433509789466, -11.733433509789462]",-11.733433509789464,-11.733433509789462,0,1,1,0.9947008566905448,1.9947008566905449,1.0052991433094551,3.0,1,1.7447008566905449,0,4.0,3.0,1,2,5,0,5,0,0,3,3,4,,,,,,,428.12629275000654,428.12629275000654,429.1412157500163,429.87448150001,430.09373995894566,430.09373995894566,430.09373995894566,431.10777258395683,431.10777258395683,431.10777258395683,431.10777258395683,432.10742345894687,200003,106,2023-03-24_13h42.05.700,DMS_et_12-36,2022.2.4,None,
50,UNPRED,12,0.9947008566905448,1,images/picture_2.png,images/picture_1.png,0,"[11.733433509789464, 11.733433509789462]",11.733433509789464,11.733433509789462,images/picture_2.png,1,"[-11.733433509789462, 11.733433509789464]",-11.733433509789462,11.733433509789464,images/picture_3.png,2,"[-11.733433509789466, -11.733433509789462]",-11.733433509789464,-11.733433509789462,0,1,1,0.9947008566905448,1.9947008566905449,1.0052991433094551,3.0,1,1.7447008566905449,0,4.0,3.0,1,2,5,0,5,0,0,4,4,5,,,,,,,432.10742345894687,432.10742345894687,433.10755670897197,433.86111587495543,434.0941361669684,434.0941361669684,434.0941361669684,435.10773641697597,435.10773641697597,435.10773641697597,435.10773641697597,436.10727566701826,200003,106,2023-03-24_13h42.05.700,DMS_et_12-36,2022.2.4,None,
51,UNPRED,12,0.9947008566905448,0,images/picture_1.png,images/picture_1.png,0,"[11.733433509789462, -11.733433509789466]",11.733433509789462,-11.733433509789464,images/picture_2.png,1,"[11.733433509789464, 11.733433509789462]",11.733433509789464,11.733433509789462,images/picture_3.png,2,"[-11.733433509789462, 11.733433509789464]",-11.733433509789462,11.733433509789464,0,1,1,0.9947008566905448,1.9947008566905449,1.0052991433094551,3.0,1,1.7447008566905449,0,4.0,3.0,1,2,5,0,5,0,0,5,5,6,,,,,,,436.10727566701826,436.10727566701826,437.1077198749408,437.8604221669957,438.0936261250172,438.0936261250172,438.0936261250172,439.1077604170423,439.1077604170423,439.1077604170423,439.1077604170423,440.10712062497623,200003,106,2023-03-24_13h42.05.700,DMS_et_12-36,2022.2.4,None,
52,UNPRED,12,0.9947008566905448,1,images/picture_2.png,images/picture_1.png,0,"[-11.733433509789462, 11.733433509789464]",-11.733433509789462,11.733433509789464,images/picture_2.png,1,"[-11.733433509789466, -11.733433509789462]",-11.733433509789464,-11.733433509789462,images/picture_3.png,2,"[11.733433509789462, -11.733433509789466]",11.733433509789462,-11.733433509789464,0,1,1,0.9947008566905448,1.9947008566905449,1.0052991433094551,3.0,1,1.7447008566905449,0,4.0,3.0,1,2,5,0,5,0,0,6,6,7,,,,,,,440.10712062497623,440.10712062497623,441.10773399996106,441.8608325419482,442.09351799997967,442.09351799997967,442.09351799997967,443.1076077920152,443.1076077920152,443.1076077920152,443.1076077920152,444.1072380419355,200003,106,2023-03-24_13h42.05.700,DMS_et_12-36,2022.2.4,None,
45,UNPRED,12,0.9947008566905448,0,images/picture_1.png,images/picture_1.png,0,"[-11.733433509789462, 11.733433509789464]",-11.733433509789462,11.733433509789464,images/picture_2.png,1,"[11.733433509789462, -11.733433509789466]",11.733433509789462,-11.733433509789464,images/picture_3.png,2,"[-11.733433509789466, -11.733433509789462]",-11.733433509789464,-11.733433509789462,0,1,1,0.9947008566905448,1.9947008566905449,1.0052991433094551,3.0,1,1.7447008566905449,0,4.0,3.0,1,2,5,0,5,0,0,7,7,0,,,,,,,444.1072380419355,444.1072380419355,445.10773299995344,445.86031120899133,446.09384587500244,446.09384587500244,446.09384587500244,447.1078071669908,447.1078071669908,447.1078071669908,447.1078071669908,448.1071952499915,200003,106,2023-03-24_13h42.05.700,DMS_et_12-36,2022.2.4,None,
46,UNPRED,12,0.9947008566905448,0,images/picture_1.png,images/picture_1.png,0,"[-11.733433509789466, -11.733433509789462]",-11.733433509789464,-11.733433509789462,images/picture_2.png,1,"[11.733433509789464, 11.733433509789462]",11.733433509789464,11.733433509789462,images/picture_3.png,2,"[-11.733433509789462, 11.733433509789464]",-11.733433509789462,11.733433509789464,0,1,1,0.9947008566905448,1.9947008566905449,1.0052991433094551,3.0,1,1.7447008566905449,0,4.0,3.0,1,2,5,0,5,0,0,8,8,1,,,,,,,448.1071952499915,448.1071952499915,449.1079355420079,449.86039016698487,450.0941272090422,450.0941272090422,450.0941272090422,451.1077394169988,451.1077394169988,451.1077394169988,451.1077394169988,452.17848637502175,200003,106,2023-03-24_13h42.05.700,DMS_et_12-36,2022.2.4,None,
,,,,,,,,,,,,,,,,,,,,,,,,,,,,,,,,,,,5,0,5,0,,,,,,,,,452.17848637502175,464.2229792920407,,,,,,,,,,,,,200003,106,2023-03-24_13h42.05.700,DMS_et_12-36,2022.2.4,None,
56,PRED,12,0.9947008566905448,2,images/picture_3.png,images/picture_1.png,0,"[-11.733433509789462, 11.733433509789464]",-11.733433509789462,11.733433509789464,images/picture_2.png,1,"[11.733433509789462, -11.733433509789466]",11.733433509789462,-11.733433509789464,images/picture_3.png,2,"[-11.733433509789466, -11.733433509789462]",-11.733433509789464,-11.733433509789462,0,1,1,0.9947008566905448,1.9947008566905449,1.0052991433094551,3.0,1,1.7447008566905449,0,4.0,3.0,1,2,6,0,6,0,0,0,0,2,,,,,,,464.2229792920407,464.2229792920407,465.2269322499633,465.9744665840408,466.20791091700085,466.20791091700085,466.20791091700085,467.2077267499408,467.22707237501163,467.22707237501163,467.22707237501163,468.2264335840009,200003,106,2023-03-24_13h42.05.700,DMS_et_12-36,2022.2.4,None,
55,PRED,12,0.9947008566905448,2,images/picture_3.png,images/picture_1.png,0,"[11.733433509789464, 11.733433509789462]",11.733433509789464,11.733433509789462,images/picture_2.png,1,"[-11.733433509789466, -11.733433509789462]",-11.733433509789464,-11.733433509789462,images/picture_3.png,2,"[-11.733433509789462, 11.733433509789464]",-11.733433509789462,11.733433509789464,0,1,1,0.9947008566905448,1.9947008566905449,1.0052991433094551,3.0,1,1.7447008566905449,0,4.0,3.0,1,2,6,0,6,0,0,1,1,1,,,,,,,468.2264335840009,468.2264335840009,469.2413439169759,469.97443941701204,470.19381895894185,470.19381895894185,470.19381895894185,471.20772883400787,471.20772883400787,471.20772883400787,471.20772883400787,472.2264622920193,200003,106,2023-03-24_13h42.05.700,DMS_et_12-36,2022.2.4,None,
62,PRED,12,0.9947008566905448,2,images/picture_3.png,images/picture_1.png,0,"[11.733433509789464, 11.733433509789462]",11.733433509789464,11.733433509789462,images/picture_2.png,1,"[-11.733433509789466, -11.733433509789462]",-11.733433509789464,-11.733433509789462,images/picture_3.png,2,"[11.733433509789462, -11.733433509789466]",11.733433509789462,-11.733433509789464,0,1,1,0.9947008566905448,1.9947008566905449,1.0052991433094551,3.0,1,1.7447008566905449,0,4.0,3.0,1,2,6,0,6,0,0,2,2,8,,,,,,,472.2264622920193,472.2264622920193,473.24076166702434,473.9741196249379,474.1933906249469,474.1933906249469,474.1933906249469,475.2079253749689,475.2079253749689,475.2079253749689,475.2079253749689,476.2264702919638,200003,106,2023-03-24_13h42.05.700,DMS_et_12-36,2022.2.4,None,
57,PRED,12,0.9947008566905448,2,images/picture_3.png,images/picture_1.png,0,"[-11.733433509789462, 11.733433509789464]",-11.733433509789462,11.733433509789464,images/picture_2.png,1,"[11.733433509789464, 11.733433509789462]",11.733433509789464,11.733433509789462,images/picture_3.png,2,"[11.733433509789462, -11.733433509789466]",11.733433509789462,-11.733433509789464,0,1,1,0.9947008566905448,1.9947008566905449,1.0052991433094551,3.0,1,1.7447008566905449,0,4.0,3.0,1,2,6,0,6,0,0,3,3,3,,,,,,,476.2264702919638,476.2264702919638,477.2410048750462,477.9744902920211,478.19378391699865,478.19378391699865,478.19378391699865,479.2077102919575,479.2077102919575,479.2077102919575,479.2077102919575,480.2266537499381,200003,106,2023-03-24_13h42.05.700,DMS_et_12-36,2022.2.4,None,
58,PRED,12,0.9947008566905448,2,images/picture_3.png,images/picture_1.png,0,"[11.733433509789464, 11.733433509789462]",11.733433509789464,11.733433509789462,images/picture_2.png,1,"[-11.733433509789462, 11.733433509789464]",-11.733433509789462,11.733433509789464,images/picture_3.png,2,"[11.733433509789462, -11.733433509789466]",11.733433509789462,-11.733433509789464,0,1,1,0.9947008566905448,1.9947008566905449,1.0052991433094551,3.0,1,1.7447008566905449,0,4.0,3.0,1,2,6,0,6,0,0,4,4,4,,,,,,,480.2266537499381,480.2266537499381,481.24113437498454,481.97444158396684,482.19360995898023,482.19360995898023,482.19360995898023,483.2077806669986,483.2077806669986,483.2077806669986,483.2077806669986,484.20823258394375,200003,106,2023-03-24_13h42.05.700,DMS_et_12-36,2022.2.4,None,
61,PRED,12,0.9947008566905448,2,images/picture_3.png,images/picture_1.png,0,"[11.733433509789464, 11.733433509789462]",11.733433509789464,11.733433509789462,images/picture_2.png,1,"[-11.733433509789466, -11.733433509789462]",-11.733433509789464,-11.733433509789462,images/picture_3.png,2,"[11.733433509789462, -11.733433509789466]",11.733433509789462,-11.733433509789464,0,1,1,0.9947008566905448,1.9947008566905449,1.0052991433094551,3.0,1,1.7447008566905449,0,4.0,3.0,1,2,6,0,6,0,0,5,5,7,,,,,,,484.20823258394375,484.20823258394375,485.20769470895175,485.9602055000141,486.1937617090298,486.1937617090298,486.1937617090298,487.20791720901616,487.20791720901616,487.20791720901616,487.20791720901616,488.22667866700795,200003,106,2023-03-24_13h42.05.700,DMS_et_12-36,2022.2.4,None,
60,PRED,12,0.9947008566905448,2,images/picture_3.png,images/picture_1.png,0,"[-11.733433509789466, -11.733433509789462]",-11.733433509789464,-11.733433509789462,images/picture_2.png,1,"[11.733433509789464, 11.733433509789462]",11.733433509789464,11.733433509789462,images/picture_3.png,2,"[11.733433509789462, -11.733433509789466]",11.733433509789462,-11.733433509789464,0,1,1,0.9947008566905448,1.9947008566905449,1.0052991433094551,3.0,1,1.7447008566905449,0,4.0,3.0,1,2,6,0,6,0,0,6,6,6,,,,,,,488.22667866700795,488.22667866700795,489.24119199998677,489.9744042919483,490.1935895839706,490.1935895839706,490.1935895839706,491.2077066670172,491.2077066670172,491.2077066670172,491.2077066670172,492.2265165839344,200003,106,2023-03-24_13h42.05.700,DMS_et_12-36,2022.2.4,None,
54,PRED,12,0.9947008566905448,2,images/picture_3.png,images/picture_1.png,0,"[-11.733433509789462, 11.733433509789464]",-11.733433509789462,11.733433509789464,images/picture_2.png,1,"[-11.733433509789466, -11.733433509789462]",-11.733433509789464,-11.733433509789462,images/picture_3.png,2,"[11.733433509789464, 11.733433509789462]",11.733433509789464,11.733433509789462,0,1,1,0.9947008566905448,1.9947008566905449,1.0052991433094551,3.0,1,1.7447008566905449,0,4.0,3.0,1,2,6,0,6,0,0,7,7,0,,,,,,,492.2265165839344,492.2265165839344,493.2411337919766,493.974103000015,494.193126249942,494.193126249942,494.193126249942,495.20775279193185,495.20775279193185,495.20775279193185,495.20775279193185,496.22646870894823,200003,106,2023-03-24_13h42.05.700,DMS_et_12-36,2022.2.4,None,
59,PRED,12,0.9947008566905448,2,images/picture_3.png,images/picture_1.png,0,"[-11.733433509789462, 11.733433509789464]",-11.733433509789462,11.733433509789464,images/picture_2.png,1,"[11.733433509789462, -11.733433509789466]",11.733433509789462,-11.733433509789464,images/picture_3.png,2,"[11.733433509789464, 11.733433509789462]",11.733433509789464,11.733433509789462,0,1,1,0.9947008566905448,1.9947008566905449,1.0052991433094551,3.0,1,1.7447008566905449,0,4.0,3.0,1,2,6,0,6,0,0,8,8,5,,,,,,,496.22646870894823,496.22646870894823,497.24116533400957,497.9744189999765,498.1938387500122,498.1938387500122,498.1938387500122,499.2079308750108,499.2079308750108,499.2079308750108,499.2079308750108,500.2887079169741,200003,106,2023-03-24_13h42.05.700,DMS_et_12-36,2022.2.4,None,
,,,,,,,,,,,,,,,,,,,,,,,,,,,,,,,,,,,6,0,6,0,,,,,,,,,500.2887079169741,512.3139792500297,,,,,,,,,,,,,200003,106,2023-03-24_13h42.05.700,DMS_et_12-36,2022.2.4,None,
63,UNPRED,12,0.9947008566905448,1,images/picture_2.png,images/picture_1.png,0,"[11.733433509789462, -11.733433509789466]",11.733433509789462,-11.733433509789464,images/picture_2.png,1,"[-11.733433509789466, -11.733433509789462]",-11.733433509789464,-11.733433509789462,images/picture_3.png,2,"[-11.733433509789462, 11.733433509789464]",-11.733433509789462,11.733433509789464,0,1,1,0.9947008566905448,1.9947008566905449,1.0052991433094551,3.0,1,1.7447008566905449,0,4.0,3.0,1,2,7,0,7,0,0,0,0,0,,,,,,,512.3139792500297,512.3139792500297,513.3273820839822,514.0596262089675,514.3075320420321,514.3075320420321,514.3075320420321,515.307771291933,515.3267985000275,515.3267985000275,515.3267985000275,516.326214791974,200003,106,2023-03-24_13h42.05.700,DMS_et_12-36,2022.2.4,None,
65,UNPRED,12,0.9947008566905448,2,images/picture_3.png,images/picture_1.png,0,"[11.733433509789464, 11.733433509789462]",11.733433509789464,11.733433509789462,images/picture_2.png,1,"[11.733433509789462, -11.733433509789466]",11.733433509789462,-11.733433509789464,images/picture_3.png,2,"[-11.733433509789462, 11.733433509789464]",-11.733433509789462,11.733433509789464,0,1,1,0.9947008566905448,1.9947008566905449,1.0052991433094551,3.0,1,1.7447008566905449,0,4.0,3.0,1,2,7,0,7,0,0,1,1,2,,,,,,,516.326214791974,516.326214791974,517.3411404589424,518.0745210419409,518.2934467919404,518.2934467919404,518.2934467919404,519.3077422089409,519.3077422089409,519.3077422089409,519.3077422089409,520.3264059999492,200003,106,2023-03-24_13h42.05.700,DMS_et_12-36,2022.2.4,None,
68,UNPRED,12,0.9947008566905448,2,images/picture_3.png,images/picture_1.png,0,"[11.733433509789462, -11.733433509789466]",11.733433509789462,-11.733433509789464,images/picture_2.png,1,"[-11.733433509789462, 11.733433509789464]",-11.733433509789462,11.733433509789464,images/picture_3.png,2,"[11.733433509789464, 11.733433509789462]",11.733433509789464,11.733433509789462,0,1,1,0.9947008566905448,1.9947008566905449,1.0052991433094551,3.0,1,1.7447008566905449,0,4.0,3.0,1,2,7,0,7,0,0,2,2,5,,,,,,,520.3264059999492,520.3264059999492,521.3410239169607,522.0744285000255,522.2939020839985,522.2939020839985,522.2939020839985,523.30784145894,523.30784145894,523.30784145894,523.30784145894,524.3264528750442,200003,106,2023-03-24_13h42.05.700,DMS_et_12-36,2022.2.4,None,
66,UNPRED,12,0.9947008566905448,2,images/picture_3.png,images/picture_1.png,0,"[-11.733433509789466, -11.733433509789462]",-11.733433509789464,-11.733433509789462,images/picture_2.png,1,"[11.733433509789462, -11.733433509789466]",11.733433509789462,-11.733433509789464,images/picture_3.png,2,"[11.733433509789464, 11.733433509789462]",11.733433509789464,11.733433509789462,0,1,1,0.9947008566905448,1.9947008566905449,1.0052991433094551,3.0,1,1.7447008566905449,0,4.0,3.0,1,2,7,0,7,0,0,3,3,3,,,,,,,524.3264528750442,524.3264528750442,525.3409608339425,526.0744516249979,526.2938503749901,526.2938503749901,526.2938503749901,527.3076266669668,527.3076266669668,527.3076266669668,527.3076266669668,528.3077968750149,200003,106,2023-03-24_13h42.05.700,DMS_et_12-36,2022.2.4,None,
69,UNPRED,12,0.9947008566905448,0,images/picture_1.png,images/picture_1.png,0,"[-11.733433509789462, 11.733433509789464]",-11.733433509789462,11.733433509789464,images/picture_2.png,1,"[11.733433509789464, 11.733433509789462]",11.733433509789464,11.733433509789462,images/picture_3.png,2,"[11.733433509789462, -11.733433509789466]",11.733433509789462,-11.733433509789464,0,1,1,0.9947008566905448,1.9947008566905449,1.0052991433094551,3.0,1,1.7447008566905449,0,4.0,3.0,1,2,7,0,7,0,0,4,4,6,,,,,,,528.3077968750149,528.3077968750149,529.3078454999486,530.0601232920308,530.2937570839422,530.2937570839422,530.2937570839422,531.3077217090176,531.3077217090176,531.3077217090176,531.3077217090176,532.3261853749864,200003,106,2023-03-24_13h42.05.700,DMS_et_12-36,2022.2.4,None,
67,UNPRED,12,0.9947008566905448,2,images/picture_3.png,images/picture_1.png,0,"[-11.733433509789466, -11.733433509789462]",-11.733433509789464,-11.733433509789462,images/picture_2.png,1,"[11.733433509789464, 11.733433509789462]",11.733433509789464,11.733433509789462,images/picture_3.png,2,"[-11.733433509789462, 11.733433509789464]",-11.733433509789462,11.733433509789464,0,1,1,0.9947008566905448,1.9947008566905449,1.0052991433094551,3.0,1,1.7447008566905449,0,4.0,3.0,1,2,7,0,7,0,0,5,5,4,,,,,,,532.3261853749864,532.3261853749864,533.341128375032,534.0744712919695,534.2934366669506,534.2934366669506,534.2934366669506,535.3074845420197,535.3074845420197,535.3074845420197,535.3074845420197,536.3077448749682,200003,106,2023-03-24_13h42.05.700,DMS_et_12-36,2022.2.4,None,
71,UNPRED,12,0.9947008566905448,1,images/picture_2.png,images/picture_1.png,0,"[11.733433509789464, 11.733433509789462]",11.733433509789464,11.733433509789462,images/picture_2.png,1,"[-11.733433509789466, -11.733433509789462]",-11.733433509789464,-11.733433509789462,images/picture_3.png,2,"[-11.733433509789462, 11.733433509789464]",-11.733433509789462,11.733433509789464,0,1,1,0.9947008566905448,1.9947008566905449,1.0052991433094551,3.0,1,1.7447008566905449,0,4.0,3.0,1,2,7,0,7,0,0,6,6,8,,,,,,,536.3077448749682,536.3077448749682,537.3078344169771,538.0601548750419,538.2939701669384,538.2939701669384,538.2939701669384,539.3077231249772,539.3077231249772,539.3077231249772,539.3077231249772,540.3070842089364,200003,106,2023-03-24_13h42.05.700,DMS_et_12-36,2022.2.4,None,
64,UNPRED,12,0.9947008566905448,1,images/picture_2.png,images/picture_1.png,0,"[11.733433509789464, 11.733433509789462]",11.733433509789464,11.733433509789462,images/picture_2.png,1,"[-11.733433509789466, -11.733433509789462]",-11.733433509789464,-11.733433509789462,images/picture_3.png,2,"[-11.733433509789462, 11.733433509789464]",-11.733433509789462,11.733433509789464,0,1,1,0.9947008566905448,1.9947008566905449,1.0052991433094551,3.0,1,1.7447008566905449,0,4.0,3.0,1,2,7,0,7,0,0,7,7,1,,,,,,,540.3070842089364,540.3070842089364,541.3077839169418,542.0602622500155,542.2936796669383,542.2936796669383,542.2936796669383,543.3077176249353,543.3077176249353,543.3077176249353,543.3077176249353,544.3071742920438,200003,106,2023-03-24_13h42.05.700,DMS_et_12-36,2022.2.4,None,
70,UNPRED,12,0.9947008566905448,0,images/picture_1.png,images/picture_1.png,0,"[-11.733433509789462, 11.733433509789464]",-11.733433509789462,11.733433509789464,images/picture_2.png,1,"[11.733433509789464, 11.733433509789462]",11.733433509789464,11.733433509789462,images/picture_3.png,2,"[11.733433509789462, -11.733433509789466]",11.733433509789462,-11.733433509789464,0,1,1,0.9947008566905448,1.9947008566905449,1.0052991433094551,3.0,1,1.7447008566905449,0,4.0,3.0,1,2,7,0,7,0,0,8,8,7,,,,,,,544.3071742920438,544.3071742920438,545.3074772090185,546.0596880839439,546.2935532089323,546.2935532089323,546.2935532089323,547.3078807089478,547.3078807089478,547.3078807089478,547.3078807089478,548.3946382920258,200003,106,2023-03-24_13h42.05.700,DMS_et_12-36,2022.2.4,None,
,,,,,,,,,,,,,,,,,,,,,,,,,,,,,,,,,,,7,0,7,0,,,,,,,,,548.3946382920258,560.4330346670467,,,,,,,,,,,,,200003,106,2023-03-24_13h42.05.700,DMS_et_12-36,2022.2.4,None,
74,PRED,12,0.9947008566905448,1,images/picture_2.png,images/picture_1.png,0,"[11.733433509789464, 11.733433509789462]",11.733433509789464,11.733433509789462,images/picture_2.png,1,"[11.733433509789462, -11.733433509789466]",11.733433509789462,-11.733433509789464,images/picture_3.png,2,"[-11.733433509789462, 11.733433509789464]",-11.733433509789462,11.733433509789464,0,1,1,0.9947008566905448,1.9947008566905449,1.0052991433094551,3.0,1,1.7447008566905449,0,4.0,3.0,1,2,8,0,8,0,0,0,0,2,,,,,,,560.4330346670467,560.4330346670467,561.4410360419424,562.1930841669673,562.4268595839385,562.4268595839385,562.4268595839385,563.4271001250017,563.4410624590237,563.4410624590237,563.4410624590237,564.4403820419684,200003,106,2023-03-24_13h42.05.700,DMS_et_12-36,2022.2.4,None,
79,PRED,12,0.9947008566905448,1,images/picture_2.png,images/picture_1.png,0,"[11.733433509789464, 11.733433509789462]",11.733433509789464,11.733433509789462,images/picture_2.png,1,"[11.733433509789462, -11.733433509789466]",11.733433509789462,-11.733433509789464,images/picture_3.png,2,"[-11.733433509789466, -11.733433509789462]",-11.733433509789464,-11.733433509789462,0,1,1,0.9947008566905448,1.9947008566905449,1.0052991433094551,3.0,1,1.7447008566905449,0,4.0,3.0,1,2,8,0,8,0,0,1,1,7,,,,,,,564.4403820419684,564.4403820419684,565.4407456669724,566.1927621249342,566.426224041963,566.426224041963,566.426224041963,567.4412419169676,567.4412419169676,567.4412419169676,567.4412419169676,568.4404195420211,200003,106,2023-03-24_13h42.05.700,DMS_et_12-36,2022.2.4,None,
78,PRED,12,0.9947008566905448,1,images/picture_2.png,images/picture_1.png,0,"[-11.733433509789466, -11.733433509789462]",-11.733433509789464,-11.733433509789462,images/picture_2.png,1,"[-11.733433509789462, 11.733433509789464]",-11.733433509789462,11.733433509789464,images/picture_3.png,2,"[11.733433509789462, -11.733433509789466]",11.733433509789462,-11.733433509789464,0,1,1,0.9947008566905448,1.9947008566905449,1.0052991433094551,3.0,1,1.7447008566905449,0,4.0,3.0,1,2,8,0,8,0,0,2,2,6,,,,,,,568.4404195420211,568.4404195420211,569.441103292047,570.1935828339774,570.4268969169352,570.4268969169352,570.4268969169352,571.4409526670352,571.4409526670352,571.4409526670352,571.4409526670352,572.4403687500162,200003,106,2023-03-24_13h42.05.700,DMS_et_12-36,2022.2.4,None,
75,PRED,12,0.9947008566905448,1,images/picture_2.png,images/picture_1.png,0,"[11.733433509789464, 11.733433509789462]",11.733433509789464,11.733433509789462,images/picture_2.png,1,"[-11.733433509789462, 11.733433509789464]",-11.733433509789462,11.733433509789464,images/picture_3.png,2,"[-11.733433509789466, -11.733433509789462]",-11.733433509789464,-11.733433509789462,0,1,1,0.9947008566905448,1.9947008566905449,1.0052991433094551,3.0,1,1.7447008566905449,0,4.0,3.0,1,2,8,0,8,0,0,3,3,3,,,,,,,572.4403687500162,572.4403687500162,573.441003749962,574.193626250024,574.4271295840153,574.4271295840153,574.4271295840153,575.4410331669496,575.4410331669496,575.4410331669496,575.4410331669496,576.4407667920459,200003,106,2023-03-24_13h42.05.700,DMS_et_12-36,2022.2.4,None,
72,PRED,12,0.9947008566905448,1,images/picture_2.png,images/picture_1.png,0,"[-11.733433509789466, -11.733433509789462]",-11.733433509789464,-11.733433509789462,images/picture_2.png,1,"[11.733433509789464, 11.733433509789462]",11.733433509789464,11.733433509789462,images/picture_3.png,2,"[-11.733433509789462, 11.733433509789464]",-11.733433509789462,11.733433509789464,0,1,1,0.9947008566905448,1.9947008566905449,1.0052991433094551,3.0,1,1.7447008566905449,0,4.0,3.0,1,2,8,0,8,0,0,4,4,0,,,,,,,576.4407667920459,576.4407667920459,577.441166042001,578.1935887499712,578.4267244590446,578.4267244590446,578.4267244590446,579.4409709169995,579.4409709169995,579.4409709169995,579.4409709169995,580.4403018750018,200003,106,2023-03-24_13h42.05.700,DMS_et_12-36,2022.2.4,None,
76,PRED,12,0.9947008566905448,1,images/picture_2.png,images/picture_1.png,0,"[11.733433509789462, -11.733433509789466]",11.733433509789462,-11.733433509789464,images/picture_2.png,1,"[11.733433509789464, 11.733433509789462]",11.733433509789464,11.733433509789462,images/picture_3.png,2,"[-11.733433509789466, -11.733433509789462]",-11.733433509789464,-11.733433509789462,0,1,1,0.9947008566905448,1.9947008566905449,1.0052991433094551,3.0,1,1.7447008566905449,0,4.0,3.0,1,2,8,0,8,0,0,5,5,4,,,,,,,580.4403018750018,580.4403018750018,581.4409776669927,582.1936176669551,582.4268484170316,582.4268484170316,582.4268484170316,583.4409951670095,583.4409951670095,583.4409951670095,583.4409951670095,584.4404444169486,200003,106,2023-03-24_13h42.05.700,DMS_et_12-36,2022.2.4,None,
80,PRED,12,0.9947008566905448,1,images/picture_2.png,images/picture_1.png,0,"[11.733433509789464, 11.733433509789462]",11.733433509789464,11.733433509789462,images/picture_2.png,1,"[11.733433509789462, -11.733433509789466]",11.733433509789462,-11.733433509789464,images/picture_3.png,2,"[-11.733433509789466, -11.733433509789462]",-11.733433509789464,-11.733433509789462,0,1,1,0.9947008566905448,1.9947008566905449,1.0052991433094551,3.0,1,1.7447008566905449,0,4.0,3.0,1,2,8,0,8,0,0,6,6,8,,,,,,,584.4404444169486,584.4404444169486,585.4410041669616,586.1928055420285,586.4261585000204,586.4261585000204,586.4261585000204,587.4409605000401,587.4409605000401,587.4409605000401,587.4409605000401,588.4404380000196,200003,106,2023-03-24_13h42.05.700,DMS_et_12-36,2022.2.4,None,
73,PRED,12,0.9947008566905448,1,images/picture_2.png,images/picture_1.png,0,"[-11.733433509789462, 11.733433509789464]",-11.733433509789462,11.733433509789464,images/picture_2.png,1,"[-11.733433509789466, -11.733433509789462]",-11.733433509789464,-11.733433509789462,images/picture_3.png,2,"[11.733433509789464, 11.733433509789462]",11.733433509789464,11.733433509789462,0,1,1,0.9947008566905448,1.9947008566905449,1.0052991433094551,3.0,1,1.7447008566905449,0,4.0,3.0,1,2,8,0,8,0,0,7,7,1,,,,,,,588.4404380000196,588.4404380000196,589.4409736669622,590.1936966669746,590.4268180000363,590.4268180000363,590.4268180000363,591.4409229169833,591.4409229169833,591.4409229169833,591.4409229169833,592.4404222499579,200003,106,2023-03-24_13h42.05.700,DMS_et_12-36,2022.2.4,None,
77,PRED,12,0.9947008566905448,1,images/picture_2.png,images/picture_1.png,0,"[-11.733433509789466, -11.733433509789462]",-11.733433509789464,-11.733433509789462,images/picture_2.png,1,"[-11.733433509789462, 11.733433509789464]",-11.733433509789462,11.733433509789464,images/picture_3.png,2,"[11.733433509789464, 11.733433509789462]",11.733433509789464,11.733433509789462,0,1,1,0.9947008566905448,1.9947008566905449,1.0052991433094551,3.0,1,1.7447008566905449,0,4.0,3.0,1,2,8,0,8,0,0,8,8,5,,,,,,,592.4404222499579,592.4404222499579,593.4409460419556,594.1935387919657,594.4268191669835,594.4268191669835,594.4268191669835,595.4409496670123,595.4409496670123,595.4409496670123,595.4409496670123,596.5186072089709,200003,106,2023-03-24_13h42.05.700,DMS_et_12-36,2022.2.4,None,
,,,,,,,,,,,,,,,,,,,,,,,,,,,,,,,,,,,8,0,8,0,,,,,,,,,596.5186072089709,608.5548162920168,,,,,,,,,,,,,200003,106,2023-03-24_13h42.05.700,DMS_et_12-36,2022.2.4,None,
86,UNPRED,12,0.9947008566905448,2,images/picture_3.png,images/picture_1.png,0,"[-11.733433509789466, -11.733433509789462]",-11.733433509789464,-11.733433509789462,images/picture_2.png,1,"[11.733433509789462, -11.733433509789466]",11.733433509789462,-11.733433509789464,images/picture_3.png,2,"[-11.733433509789462, 11.733433509789464]",-11.733433509789462,11.733433509789464,0,1,1,0.9947008566905448,1.9947008566905449,1.0052991433094551,3.0,1,1.7447008566905449,0,4.0,3.0,1,2,9,0,9,0,0,0,0,5,,,,,,,608.5548162920168,608.5548162920168,609.5600797919324,610.3078132090159,610.5409506669967,610.5409506669967,610.5409506669967,611.5409395419993,611.5602457920322,611.5602457920322,611.5602457920322,612.5596645419719,200003,106,2023-03-24_13h42.05.700,DMS_et_12-36,2022.2.4,None,
83,UNPRED,12,0.9947008566905448,2,images/picture_3.png,images/picture_1.png,0,"[-11.733433509789466, -11.733433509789462]",-11.733433509789464,-11.733433509789462,images/picture_2.png,1,"[11.733433509789462, -11.733433509789466]",11.733433509789462,-11.733433509789464,images/picture_3.png,2,"[11.733433509789464, 11.733433509789462]",11.733433509789464,11.733433509789462,0,1,1,0.9947008566905448,1.9947008566905449,1.0052991433094551,3.0,1,1.7447008566905449,0,4.0,3.0,1,2,9,0,9,0,0,1,1,2,,,,,,,612.5596645419719,612.5596645419719,613.5741821669508,614.3077767089708,614.526820500032,614.526820500032,614.526820500032,615.5409432919696,615.5409432919696,615.5409432919696,615.5409432919696,616.5594961249735,200003,106,2023-03-24_13h42.05.700,DMS_et_12-36,2022.2.4,None,
88,UNPRED,12,0.9947008566905448,2,images/picture_3.png,images/picture_1.png,0,"[-11.733433509789466, -11.733433509789462]",-11.733433509789464,-11.733433509789462,images/picture_2.png,1,"[-11.733433509789462, 11.733433509789464]",-11.733433509789462,11.733433509789464,images/picture_3.png,2,"[11.733433509789464, 11.733433509789462]",11.733433509789464,11.733433509789462,0,1,1,0.9947008566905448,1.9947008566905449,1.0052991433094551,3.0,1,1.7447008566905449,0,4.0,3.0,1,2,9,0,9,0,0,2,2,7,,,,,,,616.5594961249735,616.5594961249735,617.5739975420292,618.3076878749998,618.5266596670263,618.5266596670263,618.5266596670263,619.5409536670195,619.5409536670195,619.5409536670195,619.5409536670195,620.559792916989,200003,106,2023-03-24_13h42.05.700,DMS_et_12-36,2022.2.4,None,
84,UNPRED,12,0.9947008566905448,2,images/picture_3.png,images/picture_1.png,0,"[11.733433509789464, 11.733433509789462]",11.733433509789464,11.733433509789462,images/picture_2.png,1,"[11.733433509789462, -11.733433509789466]",11.733433509789462,-11.733433509789464,images/picture_3.png,2,"[-11.733433509789466, -11.733433509789462]",-11.733433509789464,-11.733433509789462,0,1,1,0.9947008566905448,1.9947008566905449,1.0052991433094551,3.0,1,1.7447008566905449,0,4.0,3.0,1,2,9,0,9,0,0,3,3,3,,,,,,,620.559792916989,620.559792916989,621.5742209169548,622.3076391669456,622.5267823339673,622.5267823339673,622.5267823339673,623.5409303749911,623.5409303749911,623.5409303749911,623.5409303749911,624.5602352500428,200003,106,2023-03-24_13h42.05.700,DMS_et_12-36,2022.2.4,None,
87,UNPRED,12,0.9947008566905448,1,images/picture_2.png,images/picture_1.png,0,"[11.733433509789462, -11.733433509789466]",11.733433509789462,-11.733433509789464,images/picture_2.png,1,"[-11.733433509789462, 11.733433509789464]",-11.733433509789462,11.733433509789464,images/picture_3.png,2,"[-11.733433509789466, -11.733433509789462]",-11.733433509789464,-11.733433509789462,0,1,1,0.9947008566905448,1.9947008566905449,1.0052991433094551,3.0,1,1.7447008566905449,0,4.0,3.0,1,2,9,0,9,0,0,4,4,6,,,,,,,624.5602352500428,624.5602352500428,625.574210833991,626.3076669169823,626.5269737499766,626.5269737499766,626.5269737499766,627.5406090839533,627.5406090839533,627.5406090839533,627.5406090839533,628.5404182920465,200003,106,2023-03-24_13h42.05.700,DMS_et_12-36,2022.2.4,None,
82,UNPRED,12,0.9947008566905448,1,images/picture_2.png,images/picture_1.png,0,"[11.733433509789464, 11.733433509789462]",11.733433509789464,11.733433509789462,images/picture_2.png,1,"[-11.733433509789466, -11.733433509789462]",-11.733433509789464,-11.733433509789462,images/picture_3.png,2,"[11.733433509789462, -11.733433509789466]",11.733433509789462,-11.733433509789464,0,1,1,0.9947008566905448,1.9947008566905449,1.0052991433094551,3.0,1,1.7447008566905449,0,4.0,3.0,1,2,9,0,9,0,0,5,5,1,,,,,,,628.5404182920465,628.5404182920465,629.541056209011,630.2935509169474,630.527035209001,630.527035209001,630.527035209001,631.5409268749645,631.5409268749645,631.5409268749645,631.5409268749645,632.540888458956,200003,106,2023-03-24_13h42.05.700,DMS_et_12-36,2022.2.4,None,
85,UNPRED,12,0.9947008566905448,1,images/picture_2.png,images/picture_1.png,0,"[-11.733433509789466, -11.733433509789462]",-11.733433509789464,-11.733433509789462,images/picture_2.png,1,"[-11.733433509789462, 11.733433509789464]",-11.733433509789462,11.733433509789464,images/picture_3.png,2,"[11.733433509789464, 11.733433509789462]",11.733433509789464,11.733433509789462,0,1,1,0.9947008566905448,1.9947008566905449,1.0052991433094551,3.0,1,1.7447008566905449,0,4.0,3.0,1,2,9,0,9,0,0,6,6,4,,,,,,,632.540888458956,632.540888458956,633.5409659169381,634.2934632919496,634.5269290419528,634.5269290419528,634.5269290419528,635.5409290420357,635.5409290420357,635.5409290420357,635.5409290420357,636.5598422499606,200003,106,2023-03-24_13h42.05.700,DMS_et_12-36,2022.2.4,None,
89,UNPRED,12,0.9947008566905448,2,images/picture_3.png,images/picture_1.png,0,"[-11.733433509789466, -11.733433509789462]",-11.733433509789464,-11.733433509789462,images/picture_2.png,1,"[-11.733433509789462, 11.733433509789464]",-11.733433509789462,11.733433509789464,images/picture_3.png,2,"[11.733433509789464, 11.733433509789462]",11.733433509789464,11.733433509789462,0,1,1,0.9947008566905448,1.9947008566905449,1.0052991433094551,3.0,1,1.7447008566905449,0,4.0,3.0,1,2,9,0,9,0,0,7,7,8,,,,,,,636.5598422499606,636.5598422499606,637.573806083994,638.3073808749905,638.526488124975,638.526488124975,638.526488124975,639.540959334001,639.540959334001,639.540959334001,639.540959334001,640.5410704589449,200003,106,2023-03-24_13h42.05.700,DMS_et_12-36,2022.2.4,None,
81,UNPRED,12,0.9947008566905448,1,images/picture_2.png,images/picture_1.png,0,"[11.733433509789464, 11.733433509789462]",11.733433509789464,11.733433509789462,images/picture_2.png,1,"[-11.733433509789466, -11.733433509789462]",-11.733433509789464,-11.733433509789462,images/picture_3.png,2,"[11.733433509789462, -11.733433509789466]",11.733433509789462,-11.733433509789464,0,1,1,0.9947008566905448,1.9947008566905449,1.0052991433094551,3.0,1,1.7447008566905449,0,4.0,3.0,1,2,9,0,9,0,0,8,8,0,,,,,,,640.5410704589449,640.5410704589449,641.5411015419522,642.29353979195,642.5269746669801,642.5269746669801,642.5269746669801,643.5407377920346,643.5407377920346,643.5407377920346,643.5407377920346,644.6506024589762,200003,106,2023-03-24_13h42.05.700,DMS_et_12-36,2022.2.4,None,
,,,,,,,,,,,,,,,,,,,,,,,,,,,,,,,,,,,9,0,9,0,,,,,,,,,644.6506024589762,656.6851716670208,,,,,,,,,,,,,200003,106,2023-03-24_13h42.05.700,DMS_et_12-36,2022.2.4,None,
97,PRED,12,0.9947008566905448,2,images/picture_3.png,images/picture_1.png,0,"[11.733433509789462, -11.733433509789466]",11.733433509789462,-11.733433509789464,images/picture_2.png,1,"[11.733433509789464, 11.733433509789462]",11.733433509789464,11.733433509789462,images/picture_3.png,2,"[-11.733433509789462, 11.733433509789464]",-11.733433509789462,11.733433509789464,0,1,1,0.9947008566905448,1.9947008566905449,1.0052991433094551,3.0,1,1.7447008566905449,0,4.0,3.0,1,2,10,0,10,0,0,0,0,7,,,,,,,656.6851716670208,656.6851716670208,657.6934844170464,658.440520916949,658.6738719999557,658.6738719999557,658.6738719999557,659.6741505420068,659.6935956249945,659.6935956249945,659.6935956249945,660.6928344999906,200003,106,2023-03-24_13h42.05.700,DMS_et_12-36,2022.2.4,None,
95,PRED,12,0.9947008566905448,2,images/picture_3.png,images/picture_1.png,0,"[-11.733433509789466, -11.733433509789462]",-11.733433509789464,-11.733433509789462,images/picture_2.png,1,"[-11.733433509789462, 11.733433509789464]",-11.733433509789462,11.733433509789464,images/picture_3.png,2,"[11.733433509789464, 11.733433509789462]",11.733433509789464,11.733433509789462,0,1,1,0.9947008566905448,1.9947008566905449,1.0052991433094551,3.0,1,1.7447008566905449,0,4.0,3.0,1,2,10,0,10,0,0,1,1,5,,,,,,,660.6928344999906,660.6928344999906,661.7074467500206,662.440906999982,662.6601665839553,662.6601665839553,662.6601665839553,663.6742415420013,663.6742415420013,663.6742415420013,663.6742415420013,664.6930951669347,200003,106,2023-03-24_13h42.05.700,DMS_et_12-36,2022.2.4,None,
98,PRED,12,0.9947008566905448,2,images/picture_3.png,images/picture_1.png,0,"[11.733433509789464, 11.733433509789462]",11.733433509789464,11.733433509789462,images/picture_2.png,1,"[11.733433509789462, -11.733433509789466]",11.733433509789462,-11.733433509789464,images/picture_3.png,2,"[-11.733433509789462, 11.733433509789464]",-11.733433509789462,11.733433509789464,0,1,1,0.9947008566905448,1.9947008566905449,1.0052991433094551,3.0,1,1.7447008566905449,0,4.0,3.0,1,2,10,0,10,0,0,2,2,8,,,,,,,664.6930951669347,664.6930951669347,665.7074788749451,666.4407402089564,666.6606412089895,666.6606412089895,666.6606412089895,667.6742224589689,667.6742224589689,667.6742224589689,667.6742224589689,668.6928382919868,200003,106,2023-03-24_13h42.05.700,DMS_et_12-36,2022.2.4,None,
96,PRED,12,0.9947008566905448,2,images/picture_3.png,images/picture_1.png,0,"[11.733433509789464, 11.733433509789462]",11.733433509789464,11.733433509789462,images/picture_2.png,1,"[11.733433509789462, -11.733433509789466]",11.733433509789462,-11.733433509789464,images/picture_3.png,2,"[-11.733433509789466, -11.733433509789462]",-11.733433509789464,-11.733433509789462,0,1,1,0.9947008566905448,1.9947008566905449,1.0052991433094551,3.0,1,1.7447008566905449,0,4.0,3.0,1,2,10,0,10,0,0,3,3,6,,,,,,,668.6928382919868,668.6928382919868,669.7074202919612,670.4409616669873,670.6603692090139,670.6603692090139,670.6603692090139,671.6743648339761,671.6743648339761,671.6743648339761,671.6743648339761,672.693236000021,200003,106,2023-03-24_13h42.05.700,DMS_et_12-36,2022.2.4,None,
94,PRED,12,0.9947008566905448,2,images/picture_3.png,images/picture_1.png,0,"[-11.733433509789462, 11.733433509789464]",-11.733433509789462,11.733433509789464,images/picture_2.png,1,"[11.733433509789464, 11.733433509789462]",11.733433509789464,11.733433509789462,images/picture_3.png,2,"[-11.733433509789466, -11.733433509789462]",-11.733433509789464,-11.733433509789462,0,1,1,0.9947008566905448,1.9947008566905449,1.0052991433094551,3.0,1,1.7447008566905449,0,4.0,3.0,1,2,10,0,10,0,0,4,4,4,,,,,,,672.693236000021,672.693236000021,673.7074703340186,674.4409627090208,674.6595413750038,674.6595413750038,674.6595413750038,675.6741996669443,675.6741996669443,675.6741996669443,675.6741996669443,676.6938795839669,200003,106,2023-03-24_13h42.05.700,DMS_et_12-36,2022.2.4,None,
93,PRED,12,0.9947008566905448,2,images/picture_3.png,images/picture_1.png,0,"[11.733433509789464, 11.733433509789462]",11.733433509789464,11.733433509789462,images/picture_2.png,1,"[11.733433509789462, -11.733433509789466]",11.733433509789462,-11.733433509789464,images/picture_3.png,2,"[-11.733433509789466, -11.733433509789462]",-11.733433509789464,-11.733433509789462,0,1,1,0.9947008566905448,1.9947008566905449,1.0052991433094551,3.0,1,1.7447008566905449,0,4.0,3.0,1,2,10,0,10,0,0,5,5,3,,,,,,,676.6938795839669,676.6938795839669,677.7074047499336,678.4404914999614,678.659441041993,678.659441041993,678.659441041993,679.6742574999807,679.6742574999807,679.6742574999807,679.6742574999807,680.6928001670167,200003,106,2023-03-24_13h42.05.700,DMS_et_12-36,2022.2.4,None,
92,PRED,12,0.9947008566905448,2,images/picture_3.png,images/picture_1.png,0,"[-11.733433509789462, 11.733433509789464]",-11.733433509789462,11.733433509789464,images/picture_2.png,1,"[11.733433509789462, -11.733433509789466]",11.733433509789462,-11.733433509789464,images/picture_3.png,2,"[-11.733433509789466, -11.733433509789462]",-11.733433509789464,-11.733433509789462,0,1,1,0.9947008566905448,1.9947008566905449,1.0052991433094551,3.0,1,1.7447008566905449,0,4.0,3.0,1,2,10,0,10,0,0,6,6,2,,,,,,,680.6928001670167,680.6928001670167,681.7075057920301,682.4408968749922,682.6742021249374,682.6742021249374,682.6742021249374,683.6740171250422,683.6934043340152,683.6934043340152,683.6934043340152,684.6936410840135,200003,106,2023-03-24_13h42.05.700,DMS_et_12-36,2022.2.4,None,
91,PRED,12,0.9947008566905448,2,images/picture_3.png,images/picture_1.png,0,"[-11.733433509789466, -11.733433509789462]",-11.733433509789464,-11.733433509789462,images/picture_2.png,1,"[11.733433509789462, -11.733433509789466]",11.733433509789462,-11.733433509789464,images/picture_3.png,2,"[11.733433509789464, 11.733433509789462]",11.733433509789464,11.733433509789462,0,1,1,0.9947008566905448,1.9947008566905449,1.0052991433094551,3.0,1,1.7447008566905449,0,4.0,3.0,1,2,10,0,10,0,0,7,7,1,,,,,,,684.6936410840135,684.6936410840135,685.7075470419368,686.4407121250406,686.6607517499942,686.6607517499942,686.6607517499942,687.6741962919477,687.6741962919477,687.6741962919477,687.6741962919477,688.6750439589377,200003,106,2023-03-24_13h42.05.700,DMS_et_12-36,2022.2.4,None,
90,PRED,12,0.9947008566905448,2,images/picture_3.png,images/picture_1.png,0,"[11.733433509789464, 11.733433509789462]",11.733433509789464,11.733433509789462,images/picture_2.png,1,"[-11.733433509789466, -11.733433509789462]",-11.733433509789464,-11.733433509789462,images/picture_3.png,2,"[11.733433509789462, -11.733433509789466]",11.733433509789462,-11.733433509789464,0,1,1,0.9947008566905448,1.9947008566905449,1.0052991433094551,3.0,1,1.7447008566905449,0,4.0,3.0,1,2,10,0,10,0,0,8,8,0,,,,,,,688.6750439589377,688.6750439589377,689.674092042027,690.4267512089573,690.6601687920047,690.6601687920047,690.6601687920047,691.6742556249956,691.6742556249956,691.6742556249956,691.6742556249956,692.7801549589494,200003,106,2023-03-24_13h42.05.700,DMS_et_12-36,2022.2.4,None,
,,,,,,,,,,,,,,,,,,,,,,,,,,,,,,,,,,,10,0,10,0,,,,,,,,,692.7801549589494,704.811653416953,,,,,,,,,,,,,200003,106,2023-03-24_13h42.05.700,DMS_et_12-36,2022.2.4,None,
101,UNPRED,12,0.9947008566905448,1,images/picture_2.png,images/picture_1.png,0,"[-11.733433509789462, 11.733433509789464]",-11.733433509789462,11.733433509789464,images/picture_2.png,1,"[11.733433509789464, 11.733433509789462]",11.733433509789464,11.733433509789462,images/picture_3.png,2,"[11.733433509789462, -11.733433509789466]",11.733433509789462,-11.733433509789464,0,1,1,0.9947008566905448,1.9947008566905449,1.0052991433094551,3.0,1,1.7447008566905449,0,4.0,3.0,1,2,11,0,11,0,0,0,0,2,,,,,,,704.811653416953,704.811653416953,705.8269087499939,706.5598668339662,706.8074915839825,706.8074915839825,706.8074915839825,707.8077716670232,707.8268828339642,707.8268828339642,707.8268828339642,708.8072240840411,200003,106,2023-03-24_13h42.05.700,DMS_et_12-36,2022.2.4,None,
106,UNPRED,12,0.9947008566905448,1,images/picture_2.png,images/picture_1.png,0,"[11.733433509789464, 11.733433509789462]",11.733433509789464,11.733433509789462,images/picture_2.png,1,"[-11.733433509789466, -11.733433509789462]",-11.733433509789464,-11.733433509789462,images/picture_3.png,2,"[-11.733433509789462, 11.733433509789464]",-11.733433509789462,11.733433509789464,0,1,1,0.9947008566905448,1.9947008566905449,1.0052991433094551,3.0,1,1.7447008566905449,0,4.0,3.0,1,2,11,0,11,0,0,1,1,7,,,,,,,708.8072240840411,708.8072240840411,709.8073605420068,710.5602379170014,710.7934046669398,710.7934046669398,710.7934046669398,711.8074589170283,711.8074589170283,711.8074589170283,711.8074589170283,712.8260749590117,200003,106,2023-03-24_13h42.05.700,DMS_et_12-36,2022.2.4,None,
107,UNPRED,12,0.9947008566905448,2,images/picture_3.png,images/picture_1.png,0,"[11.733433509789462, -11.733433509789466]",11.733433509789462,-11.733433509789464,images/picture_2.png,1,"[-11.733433509789462, 11.733433509789464]",-11.733433509789462,11.733433509789464,images/picture_3.png,2,"[-11.733433509789466, -11.733433509789462]",-11.733433509789464,-11.733433509789462,0,1,1,0.9947008566905448,1.9947008566905449,1.0052991433094551,3.0,1,1.7447008566905449,0,4.0,3.0,1,2,11,0,11,0,0,2,2,8,,,,,,,712.8260749590117,712.8260749590117,713.8407429170329,714.5742158750072,714.7934588339413,714.7934588339413,714.7934588339413,715.8074827919481,715.8074827919481,715.8074827919481,715.8074827919481,716.8065741249593,200003,106,2023-03-24_13h42.05.700,DMS_et_12-36,2022.2.4,None,
103,UNPRED,12,0.9947008566905448,0,images/picture_1.png,images/picture_1.png,0,"[-11.733433509789466, -11.733433509789462]",-11.733433509789464,-11.733433509789462,images/picture_2.png,1,"[11.733433509789464, 11.733433509789462]",11.733433509789464,11.733433509789462,images/picture_3.png,2,"[11.733433509789462, -11.733433509789466]",11.733433509789462,-11.733433509789464,0,1,1,0.9947008566905448,1.9947008566905449,1.0052991433094551,3.0,1,1.7447008566905449,0,4.0,3.0,1,2,11,0,11,0,0,3,3,4,,,,,,,716.8065741249593,716.8065741249593,717.8074915419566,718.5605357090244,718.7935452919919,718.7935452919919,718.7935452919919,719.8072598340223,719.8072598340223,719.8072598340223,719.8072598340223,720.8065178339602,200003,106,2023-03-24_13h42.05.700,DMS_et_12-36,2022.2.4,None,
102,UNPRED,12,0.9947008566905448,1,images/picture_2.png,images/picture_1.png,0,"[-11.733433509789462, 11.733433509789464]",-11.733433509789462,11.733433509789464,images/picture_2.png,1,"[11.733433509789462, -11.733433509789466]",11.733433509789462,-11.733433509789464,images/picture_3.png,2,"[-11.733433509789466, -11.733433509789462]",-11.733433509789464,-11.733433509789462,0,1,1,0.9947008566905448,1.9947008566905449,1.0052991433094551,3.0,1,1.7447008566905449,0,4.0,3.0,1,2,11,0,11,0,0,4,4,3,,,,,,,720.8065178339602,720.8065178339602,721.8074803749332,722.560325874947,722.7933685840108,722.7933685840108,722.7933685840108,723.8074894589372,723.8074894589372,723.8074894589372,723.8074894589372,724.806899541989,200003,106,2023-03-24_13h42.05.700,DMS_et_12-36,2022.2.4,None,
105,UNPRED,12,0.9947008566905448,0,images/picture_1.png,images/picture_1.png,0,"[-11.733433509789462, 11.733433509789464]",-11.733433509789462,11.733433509789464,images/picture_2.png,1,"[-11.733433509789466, -11.733433509789462]",-11.733433509789464,-11.733433509789462,images/picture_3.png,2,"[11.733433509789464, 11.733433509789462]",11.733433509789464,11.733433509789462,0,1,1,0.9947008566905448,1.9947008566905449,1.0052991433094551,3.0,1,1.7447008566905449,0,4.0,3.0,1,2,11,0,11,0,0,5,5,6,,,,,,,724.806899541989,724.806899541989,725.8078235420398,726.5602438750211,726.7934530420462,726.7934530420462,726.7934530420462,727.8078022919362,727.8078022919362,727.8078022919362,727.8078022919362,728.8262780839577,200003,106,2023-03-24_13h42.05.700,DMS_et_12-36,2022.2.4,None,
99,UNPRED,12,0.9947008566905448,2,images/picture_3.png,images/picture_1.png,0,"[11.733433509789464, 11.733433509789462]",11.733433509789464,11.733433509789462,images/picture_2.png,1,"[-11.733433509789462, 11.733433509789464]",-11.733433509789462,11.733433509789464,images/picture_3.png,2,"[-11.733433509789466, -11.733433509789462]",-11.733433509789464,-11.733433509789462,0,1,1,0.9947008566905448,1.9947008566905449,1.0052991433094551,3.0,1,1.7447008566905449,0,4.0,3.0,1,2,11,0,11,0,0,6,6,0,,,,,,,728.8262780839577,728.8262780839577,729.8409406669671,730.5740532920463,730.7936212089844,730.7936212089844,730.7936212089844,731.8078684170032,731.8078684170032,731.8078684170032,731.8078684170032,732.807233416941,200003,106,2023-03-24_13h42.05.700,DMS_et_12-36,2022.2.4,None,
100,UNPRED,12,0.9947008566905448,0,images/picture_1.png,images/picture_1.png,0,"[-11.733433509789462, 11.733433509789464]",-11.733433509789462,11.733433509789464,images/picture_2.png,1,"[11.733433509789462, -11.733433509789466]",11.733433509789462,-11.733433509789464,images/picture_3.png,2,"[11.733433509789464, 11.733433509789462]",11.733433509789464,11.733433509789462,0,1,1,0.9947008566905448,1.9947008566905449,1.0052991433094551,3.0,1,1.7447008566905449,0,4.0,3.0,1,2,11,0,11,0,0,7,7,1,,,,,,,732.807233416941,732.807233416941,733.8077155420324,734.5603723749518,734.793620542041,734.793620542041,734.793620542041,735.8077524589607,735.8077524589607,735.8077524589607,735.8077524589607,736.8071309169754,200003,106,2023-03-24_13h42.05.700,DMS_et_12-36,2022.2.4,None,
104,UNPRED,12,0.9947008566905448,0,images/picture_1.png,images/picture_1.png,0,"[11.733433509789462, -11.733433509789466]",11.733433509789462,-11.733433509789464,images/picture_2.png,1,"[-11.733433509789462, 11.733433509789464]",-11.733433509789462,11.733433509789464,images/picture_3.png,2,"[-11.733433509789466, -11.733433509789462]",-11.733433509789464,-11.733433509789462,0,1,1,0.9947008566905448,1.9947008566905449,1.0052991433094551,3.0,1,1.7447008566905449,0,4.0,3.0,1,2,11,0,11,0,0,8,8,5,,,,,,,736.8071309169754,736.8071309169754,737.8077903749654,738.5601879169699,738.7936134999618,738.7936134999618,738.7936134999618,739.8074130839668,739.8074130839668,739.8074130839668,739.8074130839668,740.9638307089917,200003,106,2023-03-24_13h42.05.700,DMS_et_12-36,2022.2.4,None,
,,,,,,,,,,,,,,,,,,,,,,,,,,,,,,,,,,,11,0,11,0,,,,,,,,,740.9638307089917,753.1062182090245,,,,,,,,,,,,,200003,106,2023-03-24_13h42.05.700,DMS_et_12-36,2022.2.4,None,
,,,,,,,,,,,,,,,,,,,,,,,,,,,,,,,,,,,,,,,,,,,,,,,753.1062182090245,765.6370934169972,,,,,,,,,,,,,,,,,,,
