trial_count,blockType,blockNum,delay_time,stimImage_i,stimImage,responseImage1,responseImage1_i,responseImage1_pos,responseImage1_X,responseImage1_Y,responseImage2,responseImage2_i,responseImage2_pos,responseImage2_X,responseImage2_Y,responseImage3,responseImage3_i,responseImage3_pos,responseImage3_X,responseImage3_Y,cue_onset,cue_dur,delay_onset,delay_dur,resp_onset,resp_dur,rest_onset,rest_dur,circle_dur,circle_onset,total_dur,cross_onset,cross_dur,delay_resp_period,blocks.thisRepN,blocks.thisTrialN,blocks.thisN,blocks.thisIndex,trials.thisRepN,trials.thisTrialN,trials.thisN,trials.thisIndex,key_resp.started,text.started,key_resp.keys,key_resp.rt,text_2.started,text_2.stopped,sample.started,Delay.started,sample.stopped,Delay.stopped,Response_1.started,Response_2.started,Response_3.started,Response_1.stopped,Response_2.stopped,Response_3.stopped,polygon.started,polygon.stopped,participant,session,date,expName,psychopyVersion,frameRate,
,,,,,,,,,,,,,,,,,,,,,,,,,,,,,,,,,,,,,,,,,,,75.21795220801141,75.21795220801141,t,99.2714454580564,,,,,,,,,,,,,,,200003,101,2023-03-24_12h34.18.232,DMS_et_12-36,2022.2.4,None,
2,PRED,12,1.0029142210777406,1,images/picture_2.png,images/picture_1.png,0,"[-11.733433509789466, -11.733433509789462]",-11.733433509789464,-11.733433509789462,images/picture_2.png,1,"[11.733433509789462, -11.733433509789466]",11.733433509789462,-11.733433509789464,images/picture_3.png,2,"[-11.733433509789462, 11.733433509789464]",-11.733433509789462,11.733433509789464,0,1,1,1.0029142210777406,2.0029142210777406,0.9970857789222594,3.0,1,1.7529142210777406,0,4.0,3.0,1,2,0,0,0,0,0,0,0,2,,,,,175.00537216698285,187.02229733299464,187.02229733299464,187.02229733299464,188.03251870791428,188.78522945800796,189.01850024994928,189.01850024994928,189.01850024994928,190.01857104199007,190.01857104199007,190.01857104199007,190.01857104199007,191.03213724994566,200003,101,2023-03-24_12h34.18.232,DMS_et_12-36,2022.2.4,None,
8,PRED,12,1.0029142210777406,1,images/picture_2.png,images/picture_1.png,0,"[11.733433509789462, -11.733433509789466]",11.733433509789462,-11.733433509789464,images/picture_2.png,1,"[-11.733433509789466, -11.733433509789462]",-11.733433509789464,-11.733433509789462,images/picture_3.png,2,"[-11.733433509789462, 11.733433509789464]",-11.733433509789462,11.733433509789464,0,1,1,1.0029142210777406,2.0029142210777406,0.9970857789222594,3.0,1,1.7529142210777406,0,4.0,3.0,1,2,0,0,0,0,0,1,1,8,,,,,,,191.03213724994566,191.03213724994566,192.03254745795857,192.79928816691972,193.03256137494463,193.03256137494463,193.03256137494463,194.03274524991866,194.03274524991866,194.03274524991866,194.03274524991866,195.03220183297526,200003,101,2023-03-24_12h34.18.232,DMS_et_12-36,2022.2.4,None,
4,PRED,12,1.0029142210777406,1,images/picture_2.png,images/picture_1.png,0,"[-11.733433509789466, -11.733433509789462]",-11.733433509789464,-11.733433509789462,images/picture_2.png,1,"[-11.733433509789462, 11.733433509789464]",-11.733433509789462,11.733433509789464,images/picture_3.png,2,"[11.733433509789464, 11.733433509789462]",11.733433509789464,11.733433509789462,0,1,1,1.0029142210777406,2.0029142210777406,0.9970857789222594,3.0,1,1.7529142210777406,0,4.0,3.0,1,2,0,0,0,0,0,2,2,4,,,,,,,195.03220183297526,195.03220183297526,196.03273658291437,196.79926404193975,197.0328740000259,197.0328740000259,197.0328740000259,198.03237849997822,198.03237849997822,198.03237849997822,198.03237849997822,199.03209991694894,200003,101,2023-03-24_12h34.18.232,DMS_et_12-36,2022.2.4,None,
5,PRED,12,1.0029142210777406,1,images/picture_2.png,images/picture_1.png,0,"[11.733433509789464, 11.733433509789462]",11.733433509789464,11.733433509789462,images/picture_2.png,1,"[-11.733433509789466, -11.733433509789462]",-11.733433509789464,-11.733433509789462,images/picture_3.png,2,"[-11.733433509789462, 11.733433509789464]",-11.733433509789462,11.733433509789464,0,1,1,1.0029142210777406,2.0029142210777406,0.9970857789222594,3.0,1,1.7529142210777406,0,4.0,3.0,1,2,0,0,0,0,0,3,3,5,,,,,,,199.03209991694894,199.03209991694894,200.03290066693444,200.79947658302262,201.0328043330228,201.0328043330228,201.0328043330228,202.03281925001647,202.03281925001647,202.03281925001647,202.03281925001647,203.03236104198731,200003,101,2023-03-24_12h34.18.232,DMS_et_12-36,2022.2.4,None,
1,PRED,12,1.0029142210777406,1,images/picture_2.png,images/picture_1.png,0,"[-11.733433509789466, -11.733433509789462]",-11.733433509789464,-11.733433509789462,images/picture_2.png,1,"[-11.733433509789462, 11.733433509789464]",-11.733433509789462,11.733433509789464,images/picture_3.png,2,"[11.733433509789464, 11.733433509789462]",11.733433509789464,11.733433509789462,0,1,1,1.0029142210777406,2.0029142210777406,0.9970857789222594,3.0,1,1.7529142210777406,0,4.0,3.0,1,2,0,0,0,0,0,4,4,1,,,,,,,203.03236104198731,203.03236104198731,204.03274433291517,204.79926016693935,205.03276279196143,205.03276279196143,205.03276279196143,206.03290095797274,206.03290095797274,206.03290095797274,206.03290095797274,207.03217879193835,200003,101,2023-03-24_12h34.18.232,DMS_et_12-36,2022.2.4,None,
7,PRED,12,1.0029142210777406,1,images/picture_2.png,images/picture_1.png,0,"[-11.733433509789462, 11.733433509789464]",-11.733433509789462,11.733433509789464,images/picture_2.png,1,"[-11.733433509789466, -11.733433509789462]",-11.733433509789464,-11.733433509789462,images/picture_3.png,2,"[11.733433509789462, -11.733433509789466]",11.733433509789462,-11.733433509789464,0,1,1,1.0029142210777406,2.0029142210777406,0.9970857789222594,3.0,1,1.7529142210777406,0,4.0,3.0,1,2,0,0,0,0,0,5,5,7,,,,,,,207.03217879193835,207.03217879193835,208.03239362500608,208.7995187919587,209.0329168329481,209.0329168329481,209.0329168329481,210.0327148749493,210.0327148749493,210.0327148749493,210.0327148749493,211.03256595798302,200003,101,2023-03-24_12h34.18.232,DMS_et_12-36,2022.2.4,None,
6,PRED,12,1.0029142210777406,1,images/picture_2.png,images/picture_1.png,0,"[-11.733433509789462, 11.733433509789464]",-11.733433509789462,11.733433509789464,images/picture_2.png,1,"[-11.733433509789466, -11.733433509789462]",-11.733433509789464,-11.733433509789462,images/picture_3.png,2,"[11.733433509789462, -11.733433509789466]",11.733433509789462,-11.733433509789464,0,1,1,1.0029142210777406,2.0029142210777406,0.9970857789222594,3.0,1,1.7529142210777406,0,4.0,3.0,1,2,0,0,0,0,0,6,6,6,,,,,,,211.03256595798302,211.03256595798302,212.03291399998125,212.7994762499584,213.03271395794582,213.03271395794582,213.03271395794582,214.03273891692515,214.03273891692515,214.03273891692515,214.03273891692515,215.03238766698632,200003,101,2023-03-24_12h34.18.232,DMS_et_12-36,2022.2.4,None,
3,PRED,12,1.0029142210777406,1,images/picture_2.png,images/picture_1.png,0,"[-11.733433509789462, 11.733433509789464]",-11.733433509789462,11.733433509789464,images/picture_2.png,1,"[11.733433509789464, 11.733433509789462]",11.733433509789464,11.733433509789462,images/picture_3.png,2,"[11.733433509789462, -11.733433509789466]",11.733433509789462,-11.733433509789464,0,1,1,1.0029142210777406,2.0029142210777406,0.9970857789222594,3.0,1,1.7529142210777406,0,4.0,3.0,1,2,0,0,0,0,0,7,7,3,,,,,,,215.03238766698632,215.03238766698632,216.032769249985,216.79945662501268,217.03277041693218,217.03277041693218,217.03277041693218,218.03271287493408,218.03271287493408,218.03271287493408,218.03271287493408,219.03229445801117,200003,101,2023-03-24_12h34.18.232,DMS_et_12-36,2022.2.4,None,
0,PRED,12,1.0029142210777406,1,images/picture_2.png,images/picture_1.png,0,"[11.733433509789464, 11.733433509789462]",11.733433509789464,11.733433509789462,images/picture_2.png,1,"[11.733433509789462, -11.733433509789466]",11.733433509789462,-11.733433509789464,images/picture_3.png,2,"[-11.733433509789466, -11.733433509789462]",-11.733433509789464,-11.733433509789462,0,1,1,1.0029142210777406,2.0029142210777406,0.9970857789222594,3.0,1,1.7529142210777406,0,4.0,3.0,1,2,0,0,0,0,0,8,8,0,,,,,,,219.03229445801117,219.03229445801117,220.03273074992467,220.799504583003,221.0329687499907,221.0329687499907,221.0329687499907,222.03272287501022,222.03272287501022,222.03272287501022,222.03272287501022,223.05218137498014,200003,101,2023-03-24_12h34.18.232,DMS_et_12-36,2022.2.4,None,
,,,,,,,,,,,,,,,,,,,,,,,,,,,,,,,,,,,0,0,0,0,,,,,,,,,223.05218137498014,235.0937260419596,,,,,,,,,,,,,200003,101,2023-03-24_12h34.18.232,DMS_et_12-36,2022.2.4,None,
14,UNPRED,12,1.0029142210777406,2,images/picture_3.png,images/picture_1.png,0,"[11.733433509789462, -11.733433509789466]",11.733433509789462,-11.733433509789464,images/picture_2.png,1,"[11.733433509789464, 11.733433509789462]",11.733433509789464,11.733433509789462,images/picture_3.png,2,"[-11.733433509789466, -11.733433509789462]",-11.733433509789464,-11.733433509789462,0,1,1,1.0029142210777406,2.0029142210777406,0.9970857789222594,3.0,1,1.7529142210777406,0,4.0,3.0,1,2,1,0,1,0,0,0,0,5,,,,,,,235.0937260419596,235.0937260419596,236.09972437494434,236.85227249993477,237.08557537500747,237.08557537500747,237.08557537500747,238.08541325002443,238.08541325002443,238.08541325002443,238.08541325002443,239.09936133294832,200003,101,2023-03-24_12h34.18.232,DMS_et_12-36,2022.2.4,None,
10,UNPRED,12,1.0029142210777406,0,images/picture_1.png,images/picture_1.png,0,"[-11.733433509789466, -11.733433509789462]",-11.733433509789464,-11.733433509789462,images/picture_2.png,1,"[11.733433509789464, 11.733433509789462]",11.733433509789464,11.733433509789462,images/picture_3.png,2,"[11.733433509789462, -11.733433509789466]",11.733433509789462,-11.733433509789464,0,1,1,1.0029142210777406,2.0029142210777406,0.9970857789222594,3.0,1,1.7529142210777406,0,4.0,3.0,1,2,1,0,1,0,0,1,1,1,,,,,,,239.09936133294832,239.09936133294832,240.0995315000182,240.86619854194578,241.09947629191447,241.09947629191447,241.09947629191447,242.09963058296125,242.09963058296125,242.09963058296125,242.09963058296125,243.09900024998933,200003,101,2023-03-24_12h34.18.232,DMS_et_12-36,2022.2.4,None,
12,UNPRED,12,1.0029142210777406,0,images/picture_1.png,images/picture_1.png,0,"[11.733433509789464, 11.733433509789462]",11.733433509789464,11.733433509789462,images/picture_2.png,1,"[-11.733433509789466, -11.733433509789462]",-11.733433509789464,-11.733433509789462,images/picture_3.png,2,"[-11.733433509789462, 11.733433509789464]",-11.733433509789462,11.733433509789464,0,1,1,1.0029142210777406,2.0029142210777406,0.9970857789222594,3.0,1,1.7529142210777406,0,4.0,3.0,1,2,1,0,1,0,0,2,2,3,,,,,,,243.09900024998933,243.09900024998933,244.09954979200847,244.86625029193237,245.09963829198387,245.09963829198387,245.09963829198387,246.09962599992286,246.09962599992286,246.09962599992286,246.09962599992286,247.11858745792415,200003,101,2023-03-24_12h34.18.232,DMS_et_12-36,2022.2.4,None,
17,UNPRED,12,1.0029142210777406,2,images/picture_3.png,images/picture_1.png,0,"[-11.733433509789466, -11.733433509789462]",-11.733433509789464,-11.733433509789462,images/picture_2.png,1,"[11.733433509789462, -11.733433509789466]",11.733433509789462,-11.733433509789464,images/picture_3.png,2,"[-11.733433509789462, 11.733433509789464]",-11.733433509789462,11.733433509789464,0,1,1,1.0029142210777406,2.0029142210777406,0.9970857789222594,3.0,1,1.7529142210777406,0,4.0,3.0,1,2,1,0,1,0,0,3,3,8,,,,,,,247.11858745792415,247.11858745792415,248.13293841702398,248.88485520798713,249.09933141700458,249.09933141700458,249.09933141700458,250.09954412502702,250.09954412502702,250.09954412502702,250.09954412502702,251.11830954195466,200003,101,2023-03-24_12h34.18.232,DMS_et_12-36,2022.2.4,None,
15,UNPRED,12,1.0029142210777406,2,images/picture_3.png,images/picture_1.png,0,"[11.733433509789464, 11.733433509789462]",11.733433509789464,11.733433509789462,images/picture_2.png,1,"[-11.733433509789462, 11.733433509789464]",-11.733433509789462,11.733433509789464,images/picture_3.png,2,"[11.733433509789462, -11.733433509789466]",11.733433509789462,-11.733433509789464,0,1,1,1.0029142210777406,2.0029142210777406,0.9970857789222594,3.0,1,1.7529142210777406,0,4.0,3.0,1,2,1,0,1,0,0,4,4,6,,,,,,,251.11830954195466,251.11830954195466,252.13298337499145,252.88552424998488,253.09951954195276,253.09951954195276,253.09951954195276,254.09967708296608,254.09967708296608,254.09967708296608,254.09967708296608,255.0991423749365,200003,101,2023-03-24_12h34.18.232,DMS_et_12-36,2022.2.4,None,
13,UNPRED,12,1.0029142210777406,0,images/picture_1.png,images/picture_1.png,0,"[11.733433509789462, -11.733433509789466]",11.733433509789462,-11.733433509789464,images/picture_2.png,1,"[11.733433509789464, 11.733433509789462]",11.733433509789464,11.733433509789462,images/picture_3.png,2,"[-11.733433509789466, -11.733433509789462]",-11.733433509789464,-11.733433509789462,0,1,1,1.0029142210777406,2.0029142210777406,0.9970857789222594,3.0,1,1.7529142210777406,0,4.0,3.0,1,2,1,0,1,0,0,5,5,4,,,,,,,255.0991423749365,255.0991423749365,256.0994995419169,256.8662820829777,257.0996557499748,257.0996557499748,257.0996557499748,258.0997194999363,258.0997194999363,258.0997194999363,258.0997194999363,259.0991494579939,200003,101,2023-03-24_12h34.18.232,DMS_et_12-36,2022.2.4,None,
9,UNPRED,12,1.0029142210777406,0,images/picture_1.png,images/picture_1.png,0,"[11.733433509789464, 11.733433509789462]",11.733433509789464,11.733433509789462,images/picture_2.png,1,"[-11.733433509789466, -11.733433509789462]",-11.733433509789464,-11.733433509789462,images/picture_3.png,2,"[11.733433509789462, -11.733433509789466]",11.733433509789462,-11.733433509789464,0,1,1,1.0029142210777406,2.0029142210777406,0.9970857789222594,3.0,1,1.7529142210777406,0,4.0,3.0,1,2,1,0,1,0,0,6,6,0,,,,,,,259.0991494579939,259.0991494579939,260.09966199996416,260.8662745829206,261.09976499993354,261.09976499993354,261.09976499993354,262.09948812494986,262.09948812494986,262.09948812494986,262.09948812494986,263.09949991700705,200003,101,2023-03-24_12h34.18.232,DMS_et_12-36,2022.2.4,None,
16,UNPRED,12,1.0029142210777406,0,images/picture_1.png,images/picture_1.png,0,"[-11.733433509789462, 11.733433509789464]",-11.733433509789462,11.733433509789464,images/picture_2.png,1,"[11.733433509789462, -11.733433509789466]",11.733433509789462,-11.733433509789464,images/picture_3.png,2,"[-11.733433509789466, -11.733433509789462]",-11.733433509789464,-11.733433509789462,0,1,1,1.0029142210777406,2.0029142210777406,0.9970857789222594,3.0,1,1.7529142210777406,0,4.0,3.0,1,2,1,0,1,0,0,7,7,7,,,,,,,263.09949991700705,263.09949991700705,264.09975066699553,264.8663420419907,265.09977108298335,265.09977108298335,265.09977108298335,266.1000284169568,266.1000284169568,266.1000284169568,266.1000284169568,267.11893712496385,200003,101,2023-03-24_12h34.18.232,DMS_et_12-36,2022.2.4,None,
11,UNPRED,12,1.0029142210777406,2,images/picture_3.png,images/picture_1.png,0,"[-11.733433509789466, -11.733433509789462]",-11.733433509789464,-11.733433509789462,images/picture_2.png,1,"[11.733433509789464, 11.733433509789462]",11.733433509789464,11.733433509789462,images/picture_3.png,2,"[11.733433509789462, -11.733433509789466]",11.733433509789462,-11.733433509789464,0,1,1,1.0029142210777406,2.0029142210777406,0.9970857789222594,3.0,1,1.7529142210777406,0,4.0,3.0,1,2,1,0,1,0,0,8,8,2,,,,,,,267.11893712496385,267.11893712496385,268.13302495796233,268.88565741700586,269.0996134999441,269.0996134999441,269.0996134999441,270.09947554196697,270.09947554196697,270.09947554196697,270.09947554196697,271.1365578749683,200003,101,2023-03-24_12h34.18.232,DMS_et_12-36,2022.2.4,None,
,,,,,,,,,,,,,,,,,,,,,,,,,,,,,,,,,,,1,0,1,0,,,,,,,,,271.1365578749683,283.15350616700016,,,,,,,,,,,,,200003,101,2023-03-24_12h34.18.232,DMS_et_12-36,2022.2.4,None,
25,PRED,12,1.0029142210777406,0,images/picture_1.png,images/picture_1.png,0,"[11.733433509789464, 11.733433509789462]",11.733433509789464,11.733433509789462,images/picture_2.png,1,"[-11.733433509789466, -11.733433509789462]",-11.733433509789464,-11.733433509789462,images/picture_3.png,2,"[-11.733433509789462, 11.733433509789464]",-11.733433509789462,11.733433509789464,0,1,1,1.0029142210777406,2.0029142210777406,0.9970857789222594,3.0,1,1.7529142210777406,0,4.0,3.0,1,2,2,0,2,0,0,0,0,7,,,,,,,283.15350616700016,283.15350616700016,284.16626774996985,284.9188374999212,285.15247062500566,285.15247062500566,285.15247062500566,286.1525924169691,286.1525924169691,286.1525924169691,286.1525924169691,287.1660624999786,200003,101,2023-03-24_12h34.18.232,DMS_et_12-36,2022.2.4,None,
26,PRED,12,1.0029142210777406,0,images/picture_1.png,images/picture_1.png,0,"[-11.733433509789466, -11.733433509789462]",-11.733433509789464,-11.733433509789462,images/picture_2.png,1,"[11.733433509789464, 11.733433509789462]",11.733433509789464,11.733433509789462,images/picture_3.png,2,"[-11.733433509789462, 11.733433509789464]",-11.733433509789462,11.733433509789464,0,1,1,1.0029142210777406,2.0029142210777406,0.9970857789222594,3.0,1,1.7529142210777406,0,4.0,3.0,1,2,2,0,2,0,0,1,1,8,,,,,,,287.1660624999786,287.1660624999786,288.16664312500507,288.93303862493485,289.1664412919199,289.1664412919199,289.1664412919199,290.1661125830142,290.1661125830142,290.1661125830142,290.1661125830142,291.16601666691713,200003,101,2023-03-24_12h34.18.232,DMS_et_12-36,2022.2.4,None,
21,PRED,12,1.0029142210777406,0,images/picture_1.png,images/picture_1.png,0,"[11.733433509789462, -11.733433509789466]",11.733433509789462,-11.733433509789464,images/picture_2.png,1,"[11.733433509789464, 11.733433509789462]",11.733433509789464,11.733433509789462,images/picture_3.png,2,"[-11.733433509789466, -11.733433509789462]",-11.733433509789464,-11.733433509789462,0,1,1,1.0029142210777406,2.0029142210777406,0.9970857789222594,3.0,1,1.7529142210777406,0,4.0,3.0,1,2,2,0,2,0,0,2,2,3,,,,,,,291.16601666691713,291.16601666691713,292.16643537499476,292.9333659999538,293.1665273749968,293.1665273749968,293.1665273749968,294.1665065829875,294.1665065829875,294.1665065829875,294.1665065829875,295.1658787919441,200003,101,2023-03-24_12h34.18.232,DMS_et_12-36,2022.2.4,None,
22,PRED,12,1.0029142210777406,0,images/picture_1.png,images/picture_1.png,0,"[-11.733433509789462, 11.733433509789464]",-11.733433509789462,11.733433509789464,images/picture_2.png,1,"[-11.733433509789466, -11.733433509789462]",-11.733433509789464,-11.733433509789462,images/picture_3.png,2,"[11.733433509789462, -11.733433509789466]",11.733433509789462,-11.733433509789464,0,1,1,1.0029142210777406,2.0029142210777406,0.9970857789222594,3.0,1,1.7529142210777406,0,4.0,3.0,1,2,2,0,2,0,0,3,3,4,,,,,,,295.1658787919441,295.1658787919441,296.1665597499814,296.9332142500207,297.1665075420169,297.1665075420169,297.1665075420169,298.16646554192994,298.16646554192994,298.16646554192994,298.16646554192994,299.1661952920258,200003,101,2023-03-24_12h34.18.232,DMS_et_12-36,2022.2.4,None,
24,PRED,12,1.0029142210777406,0,images/picture_1.png,images/picture_1.png,0,"[-11.733433509789466, -11.733433509789462]",-11.733433509789464,-11.733433509789462,images/picture_2.png,1,"[11.733433509789464, 11.733433509789462]",11.733433509789464,11.733433509789462,images/picture_3.png,2,"[11.733433509789462, -11.733433509789466]",11.733433509789462,-11.733433509789464,0,1,1,1.0029142210777406,2.0029142210777406,0.9970857789222594,3.0,1,1.7529142210777406,0,4.0,3.0,1,2,2,0,2,0,0,4,4,6,,,,,,,299.1661952920258,299.1661952920258,300.166246082983,300.9332281249808,301.1665689169895,301.1665689169895,301.1665689169895,302.1665264579933,302.1665264579933,302.1665264579933,302.1665264579933,303.16603395796847,200003,101,2023-03-24_12h34.18.232,DMS_et_12-36,2022.2.4,None,
18,PRED,12,1.0029142210777406,0,images/picture_1.png,images/picture_1.png,0,"[11.733433509789462, -11.733433509789466]",11.733433509789462,-11.733433509789464,images/picture_2.png,1,"[-11.733433509789466, -11.733433509789462]",-11.733433509789464,-11.733433509789462,images/picture_3.png,2,"[-11.733433509789462, 11.733433509789464]",-11.733433509789462,11.733433509789464,0,1,1,1.0029142210777406,2.0029142210777406,0.9970857789222594,3.0,1,1.7529142210777406,0,4.0,3.0,1,2,2,0,2,0,0,5,5,0,,,,,,,303.16603395796847,303.16603395796847,304.1664586249972,304.9332824170124,305.1664507079404,305.1664507079404,305.1664507079404,306.16656037501525,306.16656037501525,306.16656037501525,306.16656037501525,307.1659365419764,200003,101,2023-03-24_12h34.18.232,DMS_et_12-36,2022.2.4,None,
20,PRED,12,1.0029142210777406,0,images/picture_1.png,images/picture_1.png,0,"[11.733433509789464, 11.733433509789462]",11.733433509789464,11.733433509789462,images/picture_2.png,1,"[11.733433509789462, -11.733433509789466]",11.733433509789462,-11.733433509789464,images/picture_3.png,2,"[-11.733433509789466, -11.733433509789462]",-11.733433509789464,-11.733433509789462,0,1,1,1.0029142210777406,2.0029142210777406,0.9970857789222594,3.0,1,1.7529142210777406,0,4.0,3.0,1,2,2,0,2,0,0,6,6,2,,,,,,,307.1659365419764,307.1659365419764,308.16654537501745,308.933258291916,309.1665124580031,309.1665124580031,309.1665124580031,310.16615362500306,310.16615362500306,310.16615362500306,310.16615362500306,311.1659386670217,200003,101,2023-03-24_12h34.18.232,DMS_et_12-36,2022.2.4,None,
23,PRED,12,1.0029142210777406,0,images/picture_1.png,images/picture_1.png,0,"[11.733433509789464, 11.733433509789462]",11.733433509789464,11.733433509789462,images/picture_2.png,1,"[-11.733433509789466, -11.733433509789462]",-11.733433509789464,-11.733433509789462,images/picture_3.png,2,"[11.733433509789462, -11.733433509789466]",11.733433509789462,-11.733433509789464,0,1,1,1.0029142210777406,2.0029142210777406,0.9970857789222594,3.0,1,1.7529142210777406,0,4.0,3.0,1,2,2,0,2,0,0,7,7,5,,,,,,,311.1659386670217,311.1659386670217,312.1665065420093,312.9332570419647,313.16667195793707,313.16667195793707,313.16667195793707,314.1664847499924,314.1664847499924,314.1664847499924,314.1664847499924,315.1659655419644,200003,101,2023-03-24_12h34.18.232,DMS_et_12-36,2022.2.4,None,
19,PRED,12,1.0029142210777406,0,images/picture_1.png,images/picture_1.png,0,"[-11.733433509789462, 11.733433509789464]",-11.733433509789462,11.733433509789464,images/picture_2.png,1,"[11.733433509789462, -11.733433509789466]",11.733433509789462,-11.733433509789464,images/picture_3.png,2,"[-11.733433509789466, -11.733433509789462]",-11.733433509789464,-11.733433509789462,0,1,1,1.0029142210777406,2.0029142210777406,0.9970857789222594,3.0,1,1.7529142210777406,0,4.0,3.0,1,2,2,0,2,0,0,8,8,1,,,,,,,315.1659655419644,315.1659655419644,316.1665453329915,316.93333558295853,317.16649799991865,317.16649799991865,317.16649799991865,318.1666872500209,318.1666872500209,318.1666872500209,318.1666872500209,319.2117693750188,200003,101,2023-03-24_12h34.18.232,DMS_et_12-36,2022.2.4,None,
,,,,,,,,,,,,,,,,,,,,,,,,,,,,,,,,,,,2,0,2,0,,,,,,,,,319.2117693750188,331.22728837502655,,,,,,,,,,,,,200003,101,2023-03-24_12h34.18.232,DMS_et_12-36,2022.2.4,None,
33,UNPRED,12,1.0029142210777406,2,images/picture_3.png,images/picture_1.png,0,"[-11.733433509789466, -11.733433509789462]",-11.733433509789464,-11.733433509789462,images/picture_2.png,1,"[11.733433509789462, -11.733433509789466]",11.733433509789462,-11.733433509789464,images/picture_3.png,2,"[11.733433509789464, 11.733433509789462]",11.733433509789464,11.733433509789462,0,1,1,1.0029142210777406,2.0029142210777406,0.9970857789222594,3.0,1,1.7529142210777406,0,4.0,3.0,1,2,3,0,3,0,0,0,0,6,,,,,,,331.22728837502655,331.22728837502655,332.2332760419231,332.98611183301546,333.2192675420083,333.2192675420083,333.2192675420083,334.219117791974,334.219117791974,334.219117791974,334.219117791974,335.2535074580228,200003,101,2023-03-24_12h34.18.232,DMS_et_12-36,2022.2.4,None,
28,UNPRED,12,1.0029142210777406,2,images/picture_3.png,images/picture_1.png,0,"[-11.733433509789462, 11.733433509789464]",-11.733433509789462,11.733433509789464,images/picture_2.png,1,"[-11.733433509789466, -11.733433509789462]",-11.733433509789464,-11.733433509789462,images/picture_3.png,2,"[11.733433509789464, 11.733433509789462]",11.733433509789464,11.733433509789462,0,1,1,1.0029142210777406,2.0029142210777406,0.9970857789222594,3.0,1,1.7529142210777406,0,4.0,3.0,1,2,3,0,3,0,0,1,1,1,,,,,,,335.2535074580228,335.2535074580228,336.2668058749987,337.01893062493764,337.2334137499565,337.2334137499565,337.2334137499565,338.23329091700725,338.23329091700725,338.23329091700725,338.23329091700725,339.25366716692224,200003,101,2023-03-24_12h34.18.232,DMS_et_12-36,2022.2.4,None,
30,UNPRED,12,1.0029142210777406,2,images/picture_3.png,images/picture_1.png,0,"[11.733433509789462, -11.733433509789466]",11.733433509789462,-11.733433509789464,images/picture_2.png,1,"[-11.733433509789462, 11.733433509789464]",-11.733433509789462,11.733433509789464,images/picture_3.png,2,"[11.733433509789464, 11.733433509789462]",11.733433509789464,11.733433509789462,0,1,1,1.0029142210777406,2.0029142210777406,0.9970857789222594,3.0,1,1.7529142210777406,0,4.0,3.0,1,2,3,0,3,0,0,2,2,3,,,,,,,339.25366716692224,339.25366716692224,340.26681383291725,341.018719292013,341.23312145797536,341.23312145797536,341.23312145797536,342.23352749994956,342.23352749994956,342.23352749994956,342.23352749994956,343.2521727079293,200003,101,2023-03-24_12h34.18.232,DMS_et_12-36,2022.2.4,None,
34,UNPRED,12,1.0029142210777406,2,images/picture_3.png,images/picture_1.png,0,"[11.733433509789464, 11.733433509789462]",11.733433509789464,11.733433509789462,images/picture_2.png,1,"[-11.733433509789462, 11.733433509789464]",-11.733433509789462,11.733433509789464,images/picture_3.png,2,"[11.733433509789462, -11.733433509789466]",11.733433509789462,-11.733433509789464,0,1,1,1.0029142210777406,2.0029142210777406,0.9970857789222594,3.0,1,1.7529142210777406,0,4.0,3.0,1,2,3,0,3,0,0,3,3,7,,,,,,,343.2521727079293,343.2521727079293,344.2668269169517,345.01928591693286,345.2334884169977,345.2334884169977,345.2334884169977,346.2333337080199,346.2333337080199,346.2333337080199,346.2333337080199,347.253710207995,200003,101,2023-03-24_12h34.18.232,DMS_et_12-36,2022.2.4,None,
32,UNPRED,12,1.0029142210777406,2,images/picture_3.png,images/picture_1.png,0,"[-11.733433509789466, -11.733433509789462]",-11.733433509789464,-11.733433509789462,images/picture_2.png,1,"[11.733433509789464, 11.733433509789462]",11.733433509789464,11.733433509789462,images/picture_3.png,2,"[11.733433509789462, -11.733433509789466]",11.733433509789462,-11.733433509789464,0,1,1,1.0029142210777406,2.0029142210777406,0.9970857789222594,3.0,1,1.7529142210777406,0,4.0,3.0,1,2,3,0,3,0,0,4,4,5,,,,,,,347.253710207995,347.253710207995,348.2668160420144,349.0193682919489,349.23311637493316,349.23311637493316,349.23311637493316,350.23346654197667,350.23346654197667,350.23346654197667,350.23346654197667,351.2331696249312,200003,101,2023-03-24_12h34.18.232,DMS_et_12-36,2022.2.4,None,
27,UNPRED,12,1.0029142210777406,0,images/picture_1.png,images/picture_1.png,0,"[-11.733433509789466, -11.733433509789462]",-11.733433509789464,-11.733433509789462,images/picture_2.png,1,"[11.733433509789464, 11.733433509789462]",11.733433509789464,11.733433509789462,images/picture_3.png,2,"[11.733433509789462, -11.733433509789466]",11.733433509789462,-11.733433509789464,0,1,1,1.0029142210777406,2.0029142210777406,0.9970857789222594,3.0,1,1.7529142210777406,0,4.0,3.0,1,2,3,0,3,0,0,5,5,0,,,,,,,351.2331696249312,351.2331696249312,352.2334508749191,353.00015999993775,353.233480624971,353.233480624971,353.233480624971,354.23363337502815,354.23363337502815,354.23363337502815,354.23363337502815,355.25232887500897,200003,101,2023-03-24_12h34.18.232,DMS_et_12-36,2022.2.4,None,
29,UNPRED,12,1.0029142210777406,2,images/picture_3.png,images/picture_1.png,0,"[11.733433509789464, 11.733433509789462]",11.733433509789464,11.733433509789462,images/picture_2.png,1,"[11.733433509789462, -11.733433509789466]",11.733433509789462,-11.733433509789464,images/picture_3.png,2,"[-11.733433509789466, -11.733433509789462]",-11.733433509789464,-11.733433509789462,0,1,1,1.0029142210777406,2.0029142210777406,0.9970857789222594,3.0,1,1.7529142210777406,0,4.0,3.0,1,2,3,0,3,0,0,6,6,2,,,,,,,355.25232887500897,355.25232887500897,356.26692916697357,357.0193464169279,357.23348824994173,357.23348824994173,357.23348824994173,358.2334705829853,358.2334705829853,358.2334705829853,358.2334705829853,359.2327094170032,200003,101,2023-03-24_12h34.18.232,DMS_et_12-36,2022.2.4,None,
31,UNPRED,12,1.0029142210777406,0,images/picture_1.png,images/picture_1.png,0,"[-11.733433509789462, 11.733433509789464]",-11.733433509789462,11.733433509789464,images/picture_2.png,1,"[-11.733433509789466, -11.733433509789462]",-11.733433509789464,-11.733433509789462,images/picture_3.png,2,"[11.733433509789462, -11.733433509789466]",11.733433509789462,-11.733433509789464,0,1,1,1.0029142210777406,2.0029142210777406,0.9970857789222594,3.0,1,1.7529142210777406,0,4.0,3.0,1,2,3,0,3,0,0,7,7,4,,,,,,,359.2327094170032,359.2327094170032,360.23344816698227,361.00025170797016,361.233276791987,361.233276791987,361.233276791987,362.23319883295335,362.23319883295335,362.23319883295335,362.23319883295335,363.2328644170193,200003,101,2023-03-24_12h34.18.232,DMS_et_12-36,2022.2.4,None,
35,UNPRED,12,1.0029142210777406,0,images/picture_1.png,images/picture_1.png,0,"[-11.733433509789462, 11.733433509789464]",-11.733433509789462,11.733433509789464,images/picture_2.png,1,"[11.733433509789462, -11.733433509789466]",11.733433509789462,-11.733433509789464,images/picture_3.png,2,"[11.733433509789464, 11.733433509789462]",11.733433509789464,11.733433509789462,0,1,1,1.0029142210777406,2.0029142210777406,0.9970857789222594,3.0,1,1.7529142210777406,0,4.0,3.0,1,2,3,0,3,0,0,8,8,8,,,,,,,363.2328644170193,363.2328644170193,364.2336045829579,364.99998829199467,365.2334830419859,365.2334830419859,365.2334830419859,366.23348824994173,366.23348824994173,366.23348824994173,366.23348824994173,367.28213066700846,200003,101,2023-03-24_12h34.18.232,DMS_et_12-36,2022.2.4,None,
,,,,,,,,,,,,,,,,,,,,,,,,,,,,,,,,,,,3,0,3,0,,,,,,,,,367.28213066700846,379.3038500000257,,,,,,,,,,,,,200003,101,2023-03-24_12h34.18.232,DMS_et_12-36,2022.2.4,None,
40,PRED,12,1.0029142210777406,1,images/picture_2.png,images/picture_1.png,0,"[-11.733433509789462, 11.733433509789464]",-11.733433509789462,11.733433509789464,images/picture_2.png,1,"[11.733433509789464, 11.733433509789462]",11.733433509789464,11.733433509789462,images/picture_3.png,2,"[11.733433509789462, -11.733433509789466]",11.733433509789462,-11.733433509789464,0,1,1,1.0029142210777406,2.0029142210777406,0.9970857789222594,3.0,1,1.7529142210777406,0,4.0,3.0,1,2,4,0,4,0,0,0,0,4,,,,,,,379.3038500000257,379.3038500000257,380.3194148329785,381.06674883293454,381.30028370802756,381.30028370802756,381.30028370802756,382.2998934999341,382.2998934999341,382.2998934999341,382.2998934999341,383.299659332959,200003,101,2023-03-24_12h34.18.232,DMS_et_12-36,2022.2.4,None,
42,PRED,12,1.0029142210777406,1,images/picture_2.png,images/picture_1.png,0,"[11.733433509789464, 11.733433509789462]",11.733433509789464,11.733433509789462,images/picture_2.png,1,"[-11.733433509789462, 11.733433509789464]",-11.733433509789462,11.733433509789464,images/picture_3.png,2,"[11.733433509789462, -11.733433509789466]",11.733433509789462,-11.733433509789464,0,1,1,1.0029142210777406,2.0029142210777406,0.9970857789222594,3.0,1,1.7529142210777406,0,4.0,3.0,1,2,4,0,4,0,0,1,1,6,,,,,,,383.299659332959,383.299659332959,384.3003827499924,385.0669687499758,385.30026624992024,385.30026624992024,385.30026624992024,386.30030037497636,386.30030037497636,386.30030037497636,386.30030037497636,387.29972449992783,200003,101,2023-03-24_12h34.18.232,DMS_et_12-36,2022.2.4,None,
37,PRED,12,1.0029142210777406,1,images/picture_2.png,images/picture_1.png,0,"[11.733433509789464, 11.733433509789462]",11.733433509789464,11.733433509789462,images/picture_2.png,1,"[11.733433509789462, -11.733433509789466]",11.733433509789462,-11.733433509789464,images/picture_3.png,2,"[-11.733433509789466, -11.733433509789462]",-11.733433509789464,-11.733433509789462,0,1,1,1.0029142210777406,2.0029142210777406,0.9970857789222594,3.0,1,1.7529142210777406,0,4.0,3.0,1,2,4,0,4,0,0,2,2,1,,,,,,,387.29972449992783,387.29972449992783,388.3002504169708,389.06715299992356,389.3003260829719,389.3003260829719,389.3003260829719,390.3002786670113,390.3002786670113,390.3002786670113,390.3002786670113,391.2998443749966,200003,101,2023-03-24_12h34.18.232,DMS_et_12-36,2022.2.4,None,
43,PRED,12,1.0029142210777406,1,images/picture_2.png,images/picture_1.png,0,"[11.733433509789464, 11.733433509789462]",11.733433509789464,11.733433509789462,images/picture_2.png,1,"[11.733433509789462, -11.733433509789466]",11.733433509789462,-11.733433509789464,images/picture_3.png,2,"[-11.733433509789462, 11.733433509789464]",-11.733433509789462,11.733433509789464,0,1,1,1.0029142210777406,2.0029142210777406,0.9970857789222594,3.0,1,1.7529142210777406,0,4.0,3.0,1,2,4,0,4,0,0,3,3,7,,,,,,,391.2998443749966,391.2998443749966,392.30000770802144,393.0668282919796,393.30029049993027,393.30029049993027,393.30029049993027,394.3004164999584,394.3004164999584,394.3004164999584,394.3004164999584,395.2997470420087,200003,101,2023-03-24_12h34.18.232,DMS_et_12-36,2022.2.4,None,
41,PRED,12,1.0029142210777406,1,images/picture_2.png,images/picture_1.png,0,"[-11.733433509789462, 11.733433509789464]",-11.733433509789462,11.733433509789464,images/picture_2.png,1,"[11.733433509789464, 11.733433509789462]",11.733433509789464,11.733433509789462,images/picture_3.png,2,"[-11.733433509789466, -11.733433509789462]",-11.733433509789464,-11.733433509789462,0,1,1,1.0029142210777406,2.0029142210777406,0.9970857789222594,3.0,1,1.7529142210777406,0,4.0,3.0,1,2,4,0,4,0,0,4,4,5,,,,,,,395.2997470420087,395.2997470420087,396.30025824997574,397.0670006669825,397.3004100000253,397.3004100000253,397.3004100000253,398.30025270802435,398.30025270802435,398.30025270802435,398.30025270802435,399.3002371669281,200003,101,2023-03-24_12h34.18.232,DMS_et_12-36,2022.2.4,None,
38,PRED,12,1.0029142210777406,1,images/picture_2.png,images/picture_1.png,0,"[11.733433509789464, 11.733433509789462]",11.733433509789464,11.733433509789462,images/picture_2.png,1,"[-11.733433509789462, 11.733433509789464]",-11.733433509789462,11.733433509789464,images/picture_3.png,2,"[-11.733433509789466, -11.733433509789462]",-11.733433509789464,-11.733433509789462,0,1,1,1.0029142210777406,2.0029142210777406,0.9970857789222594,3.0,1,1.7529142210777406,0,4.0,3.0,1,2,4,0,4,0,0,5,5,2,,,,,,,399.3002371669281,399.3002371669281,400.3002825420117,401.06713716697413,401.3002283750102,401.3002283750102,401.3002283750102,402.30007204192225,402.30007204192225,402.30007204192225,402.30007204192225,403.30000941699836,200003,101,2023-03-24_12h34.18.232,DMS_et_12-36,2022.2.4,None,
44,PRED,12,1.0029142210777406,1,images/picture_2.png,images/picture_1.png,0,"[-11.733433509789462, 11.733433509789464]",-11.733433509789462,11.733433509789464,images/picture_2.png,1,"[-11.733433509789466, -11.733433509789462]",-11.733433509789464,-11.733433509789462,images/picture_3.png,2,"[11.733433509789462, -11.733433509789466]",11.733433509789462,-11.733433509789464,0,1,1,1.0029142210777406,2.0029142210777406,0.9970857789222594,3.0,1,1.7529142210777406,0,4.0,3.0,1,2,4,0,4,0,0,6,6,8,,,,,,,403.30000941699836,403.30000941699836,404.3002786670113,405.0670211670222,405.30026624992024,405.30026624992024,405.30026624992024,406.30043616693,406.30043616693,406.30043616693,406.30043616693,407.2999027079204,200003,101,2023-03-24_12h34.18.232,DMS_et_12-36,2022.2.4,None,
39,PRED,12,1.0029142210777406,1,images/picture_2.png,images/picture_1.png,0,"[11.733433509789462, -11.733433509789466]",11.733433509789462,-11.733433509789464,images/picture_2.png,1,"[-11.733433509789462, 11.733433509789464]",-11.733433509789462,11.733433509789464,images/picture_3.png,2,"[11.733433509789464, 11.733433509789462]",11.733433509789464,11.733433509789462,0,1,1,1.0029142210777406,2.0029142210777406,0.9970857789222594,3.0,1,1.7529142210777406,0,4.0,3.0,1,2,4,0,4,0,0,7,7,3,,,,,,,407.2999027079204,407.2999027079204,408.30027620797046,409.06719262502156,409.3002893329831,409.3002893329831,409.3002893329831,410.3005122919567,410.3005122919567,410.3005122919567,410.3005122919567,411.2994557080092,200003,101,2023-03-24_12h34.18.232,DMS_et_12-36,2022.2.4,None,
36,PRED,12,1.0029142210777406,1,images/picture_2.png,images/picture_1.png,0,"[-11.733433509789462, 11.733433509789464]",-11.733433509789462,11.733433509789464,images/picture_2.png,1,"[11.733433509789462, -11.733433509789466]",11.733433509789462,-11.733433509789464,images/picture_3.png,2,"[-11.733433509789466, -11.733433509789462]",-11.733433509789464,-11.733433509789462,0,1,1,1.0029142210777406,2.0029142210777406,0.9970857789222594,3.0,1,1.7529142210777406,0,4.0,3.0,1,2,4,0,4,0,0,8,8,0,,,,,,,411.2994557080092,411.2994557080092,412.30051929201,413.0669059170177,413.3001461250242,413.3001461250242,413.3001461250242,414.3002996669384,414.3002996669384,414.3002996669384,414.3002996669384,415.3604170419276,200003,101,2023-03-24_12h34.18.232,DMS_et_12-36,2022.2.4,None,
,,,,,,,,,,,,,,,,,,,,,,,,,,,,,,,,,,,4,0,4,0,,,,,,,,,415.3604170419276,427.38640574994497,,,,,,,,,,,,,200003,101,2023-03-24_12h34.18.232,DMS_et_12-36,2022.2.4,None,
45,UNPRED,12,1.0029142210777406,0,images/picture_1.png,images/picture_1.png,0,"[11.733433509789464, 11.733433509789462]",11.733433509789464,11.733433509789462,images/picture_2.png,1,"[-11.733433509789462, 11.733433509789464]",-11.733433509789462,11.733433509789464,images/picture_3.png,2,"[-11.733433509789466, -11.733433509789462]",-11.733433509789464,-11.733433509789462,0,1,1,1.0029142210777406,2.0029142210777406,0.9970857789222594,3.0,1,1.7529142210777406,0,4.0,3.0,1,2,5,0,5,0,0,0,0,0,,,,,,,427.38640574994497,427.38640574994497,428.40023062494583,429.1527372079436,429.3861809580121,429.3861809580121,429.3861809580121,430.38610845792573,430.38610845792573,430.38610845792573,430.38610845792573,431.41877283295617,200003,101,2023-03-24_12h34.18.232,DMS_et_12-36,2022.2.4,None,
49,UNPRED,12,1.0029142210777406,2,images/picture_3.png,images/picture_1.png,0,"[11.733433509789462, -11.733433509789466]",11.733433509789462,-11.733433509789464,images/picture_2.png,1,"[-11.733433509789466, -11.733433509789462]",-11.733433509789464,-11.733433509789462,images/picture_3.png,2,"[-11.733433509789462, 11.733433509789464]",-11.733433509789462,11.733433509789464,0,1,1,1.0029142210777406,2.0029142210777406,0.9970857789222594,3.0,1,1.7529142210777406,0,4.0,3.0,1,2,5,0,5,0,0,1,1,4,,,,,,,431.41877283295617,431.41877283295617,432.43354304193053,433.185363000026,433.3999824170023,433.3999824170023,433.3999824170023,434.4002407080261,434.4002407080261,434.4002407080261,434.4002407080261,435.4001166669186,200003,101,2023-03-24_12h34.18.232,DMS_et_12-36,2022.2.4,None,
51,UNPRED,12,1.0029142210777406,1,images/picture_2.png,images/picture_1.png,0,"[11.733433509789464, 11.733433509789462]",11.733433509789464,11.733433509789462,images/picture_2.png,1,"[-11.733433509789462, 11.733433509789464]",-11.733433509789462,11.733433509789464,images/picture_3.png,2,"[11.733433509789462, -11.733433509789466]",11.733433509789462,-11.733433509789464,0,1,1,1.0029142210777406,2.0029142210777406,0.9970857789222594,3.0,1,1.7529142210777406,0,4.0,3.0,1,2,5,0,5,0,0,2,2,6,,,,,,,435.4001166669186,435.4001166669186,436.4002290419303,437.16679595794994,437.4002440830227,437.4002440830227,437.4002440830227,438.4001838329714,438.4001838329714,438.4001838329714,438.4001838329714,439.3998994579306,200003,101,2023-03-24_12h34.18.232,DMS_et_12-36,2022.2.4,None,
46,UNPRED,12,1.0029142210777406,1,images/picture_2.png,images/picture_1.png,0,"[11.733433509789462, -11.733433509789466]",11.733433509789462,-11.733433509789464,images/picture_2.png,1,"[-11.733433509789466, -11.733433509789462]",-11.733433509789464,-11.733433509789462,images/picture_3.png,2,"[-11.733433509789462, 11.733433509789464]",-11.733433509789462,11.733433509789464,0,1,1,1.0029142210777406,2.0029142210777406,0.9970857789222594,3.0,1,1.7529142210777406,0,4.0,3.0,1,2,5,0,5,0,0,3,3,1,,,,,,,439.3998994579306,439.3998994579306,440.40033470792696,441.166977457935,441.4002593749901,441.4002593749901,441.4002593749901,442.4002523749368,442.4002523749368,442.4002523749368,442.4002523749368,443.39993974997196,200003,101,2023-03-24_12h34.18.232,DMS_et_12-36,2022.2.4,None,
50,UNPRED,12,1.0029142210777406,0,images/picture_1.png,images/picture_1.png,0,"[11.733433509789464, 11.733433509789462]",11.733433509789464,11.733433509789462,images/picture_2.png,1,"[11.733433509789462, -11.733433509789466]",11.733433509789462,-11.733433509789464,images/picture_3.png,2,"[-11.733433509789466, -11.733433509789462]",-11.733433509789464,-11.733433509789462,0,1,1,1.0029142210777406,2.0029142210777406,0.9970857789222594,3.0,1,1.7529142210777406,0,4.0,3.0,1,2,5,0,5,0,0,4,4,5,,,,,,,443.39993974997196,443.39993974997196,444.40009641693905,445.1669573750114,445.4003962499555,445.4003962499555,445.4003962499555,446.4003499170067,446.4003499170067,446.4003499170067,446.4003499170067,447.3995785419829,200003,101,2023-03-24_12h34.18.232,DMS_et_12-36,2022.2.4,None,
53,UNPRED,12,1.0029142210777406,0,images/picture_1.png,images/picture_1.png,0,"[-11.733433509789466, -11.733433509789462]",-11.733433509789464,-11.733433509789462,images/picture_2.png,1,"[-11.733433509789462, 11.733433509789464]",-11.733433509789462,11.733433509789464,images/picture_3.png,2,"[11.733433509789462, -11.733433509789466]",11.733433509789462,-11.733433509789464,0,1,1,1.0029142210777406,2.0029142210777406,0.9970857789222594,3.0,1,1.7529142210777406,0,4.0,3.0,1,2,5,0,5,0,0,5,5,8,,,,,,,447.3995785419829,447.3995785419829,448.4002929580165,449.16701170802116,449.40020699996967,449.40020699996967,449.40020699996967,450.4002221249975,450.4002221249975,450.4002221249975,450.4002221249975,451.40013387496583,200003,101,2023-03-24_12h34.18.232,DMS_et_12-36,2022.2.4,None,
47,UNPRED,12,1.0029142210777406,1,images/picture_2.png,images/picture_1.png,0,"[-11.733433509789462, 11.733433509789464]",-11.733433509789462,11.733433509789464,images/picture_2.png,1,"[11.733433509789462, -11.733433509789466]",11.733433509789462,-11.733433509789464,images/picture_3.png,2,"[-11.733433509789466, -11.733433509789462]",-11.733433509789464,-11.733433509789462,0,1,1,1.0029142210777406,2.0029142210777406,0.9970857789222594,3.0,1,1.7529142210777406,0,4.0,3.0,1,2,5,0,5,0,0,6,6,2,,,,,,,451.40013387496583,451.40013387496583,452.40020254196133,453.1669481670251,453.39997070794925,453.39997070794925,453.39997070794925,454.4000217500143,454.4000217500143,454.4000217500143,454.4000217500143,455.3996818329906,200003,101,2023-03-24_12h34.18.232,DMS_et_12-36,2022.2.4,None,
52,UNPRED,12,1.0029142210777406,0,images/picture_1.png,images/picture_1.png,0,"[-11.733433509789466, -11.733433509789462]",-11.733433509789464,-11.733433509789462,images/picture_2.png,1,"[-11.733433509789462, 11.733433509789464]",-11.733433509789462,11.733433509789464,images/picture_3.png,2,"[11.733433509789462, -11.733433509789466]",11.733433509789462,-11.733433509789464,0,1,1,1.0029142210777406,2.0029142210777406,0.9970857789222594,3.0,1,1.7529142210777406,0,4.0,3.0,1,2,5,0,5,0,0,7,7,7,,,,,,,455.3996818329906,455.3996818329906,456.4002892499557,457.16695266694296,457.40024908294436,457.40024908294436,457.40024908294436,458.4002627499867,458.4002627499867,458.4002627499867,458.4002627499867,459.3997754579177,200003,101,2023-03-24_12h34.18.232,DMS_et_12-36,2022.2.4,None,
48,UNPRED,12,1.0029142210777406,0,images/picture_1.png,images/picture_1.png,0,"[-11.733433509789462, 11.733433509789464]",-11.733433509789462,11.733433509789464,images/picture_2.png,1,"[11.733433509789462, -11.733433509789466]",11.733433509789462,-11.733433509789464,images/picture_3.png,2,"[-11.733433509789466, -11.733433509789462]",-11.733433509789464,-11.733433509789462,0,1,1,1.0029142210777406,2.0029142210777406,0.9970857789222594,3.0,1,1.7529142210777406,0,4.0,3.0,1,2,5,0,5,0,0,8,8,3,,,,,,,459.3997754579177,459.3997754579177,460.40023066697177,461.1669813749613,461.4002515829634,461.4002515829634,461.4002515829634,462.40024445799645,462.40024445799645,462.40024445799645,462.40024445799645,463.51842229196336,200003,101,2023-03-24_12h34.18.232,DMS_et_12-36,2022.2.4,None,
,,,,,,,,,,,,,,,,,,,,,,,,,,,,,,,,,,,5,0,5,0,,,,,,,,,463.51842229196336,475.55563737498596,,,,,,,,,,,,,200003,101,2023-03-24_12h34.18.232,DMS_et_12-36,2022.2.4,None,
55,PRED,12,1.0029142210777406,1,images/picture_2.png,images/picture_1.png,0,"[-11.733433509789462, 11.733433509789464]",-11.733433509789462,11.733433509789464,images/picture_2.png,1,"[11.733433509789464, 11.733433509789462]",11.733433509789464,11.733433509789462,images/picture_3.png,2,"[-11.733433509789466, -11.733433509789462]",-11.733433509789464,-11.733433509789462,0,1,1,1.0029142210777406,2.0029142210777406,0.9970857789222594,3.0,1,1.7529142210777406,0,4.0,3.0,1,2,6,0,6,0,0,0,0,1,,,,,,,475.55563737498596,475.55563737498596,476.5670291669667,477.3196839169832,477.5524935829453,477.5524935829453,477.5524935829453,478.5533380829729,478.5533380829729,478.5533380829729,478.5533380829729,479.56647683295887,200003,101,2023-03-24_12h34.18.232,DMS_et_12-36,2022.2.4,None,
60,PRED,12,1.0029142210777406,1,images/picture_2.png,images/picture_1.png,0,"[11.733433509789462, -11.733433509789466]",11.733433509789462,-11.733433509789464,images/picture_2.png,1,"[-11.733433509789466, -11.733433509789462]",-11.733433509789464,-11.733433509789462,images/picture_3.png,2,"[-11.733433509789462, 11.733433509789464]",-11.733433509789462,11.733433509789464,0,1,1,1.0029142210777406,2.0029142210777406,0.9970857789222594,3.0,1,1.7529142210777406,0,4.0,3.0,1,2,6,0,6,0,0,1,1,6,,,,,,,479.56647683295887,479.56647683295887,480.5671097500017,481.3336835829541,481.56696429196745,481.56696429196745,481.56696429196745,482.5670127919875,482.5670127919875,482.5670127919875,482.5670127919875,483.5665339579573,200003,101,2023-03-24_12h34.18.232,DMS_et_12-36,2022.2.4,None,
62,PRED,12,1.0029142210777406,1,images/picture_2.png,images/picture_1.png,0,"[11.733433509789464, 11.733433509789462]",11.733433509789464,11.733433509789462,images/picture_2.png,1,"[-11.733433509789466, -11.733433509789462]",-11.733433509789464,-11.733433509789462,images/picture_3.png,2,"[-11.733433509789462, 11.733433509789464]",-11.733433509789462,11.733433509789464,0,1,1,1.0029142210777406,2.0029142210777406,0.9970857789222594,3.0,1,1.7529142210777406,0,4.0,3.0,1,2,6,0,6,0,0,2,2,8,,,,,,,483.5665339579573,483.5665339579573,484.566461166949,485.33337849995587,485.56706712499727,485.56706712499727,485.56706712499727,486.5670978749404,486.5670978749404,486.5670978749404,486.5670978749404,487.56607433292083,200003,101,2023-03-24_12h34.18.232,DMS_et_12-36,2022.2.4,None,
59,PRED,12,1.0029142210777406,1,images/picture_2.png,images/picture_1.png,0,"[-11.733433509789462, 11.733433509789464]",-11.733433509789462,11.733433509789464,images/picture_2.png,1,"[11.733433509789464, 11.733433509789462]",11.733433509789464,11.733433509789462,images/picture_3.png,2,"[-11.733433509789466, -11.733433509789462]",-11.733433509789464,-11.733433509789462,0,1,1,1.0029142210777406,2.0029142210777406,0.9970857789222594,3.0,1,1.7529142210777406,0,4.0,3.0,1,2,6,0,6,0,0,3,3,5,,,,,,,487.56607433292083,487.56607433292083,488.56699837499764,489.33354716701433,489.5671121249907,489.5671121249907,489.5671121249907,490.5669854580192,490.5669854580192,490.5669854580192,490.5669854580192,491.5665522919735,200003,101,2023-03-24_12h34.18.232,DMS_et_12-36,2022.2.4,None,
56,PRED,12,1.0029142210777406,1,images/picture_2.png,images/picture_1.png,0,"[-11.733433509789466, -11.733433509789462]",-11.733433509789464,-11.733433509789462,images/picture_2.png,1,"[11.733433509789464, 11.733433509789462]",11.733433509789464,11.733433509789462,images/picture_3.png,2,"[11.733433509789462, -11.733433509789466]",11.733433509789462,-11.733433509789464,0,1,1,1.0029142210777406,2.0029142210777406,0.9970857789222594,3.0,1,1.7529142210777406,0,4.0,3.0,1,2,6,0,6,0,0,4,4,2,,,,,,,491.5665522919735,491.5665522919735,492.56710091698915,493.33381400001235,493.5669769999804,493.5669769999804,493.5669769999804,494.56668375001755,494.56668375001755,494.56668375001755,494.56668375001755,495.5676040420076,200003,101,2023-03-24_12h34.18.232,DMS_et_12-36,2022.2.4,None,
54,PRED,12,1.0029142210777406,1,images/picture_2.png,images/picture_1.png,0,"[-11.733433509789462, 11.733433509789464]",-11.733433509789462,11.733433509789464,images/picture_2.png,1,"[11.733433509789462, -11.733433509789466]",11.733433509789462,-11.733433509789464,images/picture_3.png,2,"[11.733433509789464, 11.733433509789462]",11.733433509789464,11.733433509789462,0,1,1,1.0029142210777406,2.0029142210777406,0.9970857789222594,3.0,1,1.7529142210777406,0,4.0,3.0,1,2,6,0,6,0,0,5,5,0,,,,,,,495.5676040420076,495.5676040420076,496.5670162499882,497.33378283295315,497.566965707927,497.566965707927,497.566965707927,498.5670458750101,498.5670458750101,498.5670458750101,498.5670458750101,499.56598870793823,200003,101,2023-03-24_12h34.18.232,DMS_et_12-36,2022.2.4,None,
57,PRED,12,1.0029142210777406,1,images/picture_2.png,images/picture_1.png,0,"[-11.733433509789466, -11.733433509789462]",-11.733433509789464,-11.733433509789462,images/picture_2.png,1,"[11.733433509789462, -11.733433509789466]",11.733433509789462,-11.733433509789464,images/picture_3.png,2,"[-11.733433509789462, 11.733433509789464]",-11.733433509789462,11.733433509789464,0,1,1,1.0029142210777406,2.0029142210777406,0.9970857789222594,3.0,1,1.7529142210777406,0,4.0,3.0,1,2,6,0,6,0,0,6,6,3,,,,,,,499.56598870793823,499.56598870793823,500.5669991669711,501.33376324991696,501.56697662500665,501.56697662500665,501.56697662500665,502.56702616694383,502.56702616694383,502.56702616694383,502.56702616694383,503.5665132079739,200003,101,2023-03-24_12h34.18.232,DMS_et_12-36,2022.2.4,None,
61,PRED,12,1.0029142210777406,1,images/picture_2.png,images/picture_1.png,0,"[11.733433509789464, 11.733433509789462]",11.733433509789464,11.733433509789462,images/picture_2.png,1,"[-11.733433509789466, -11.733433509789462]",-11.733433509789464,-11.733433509789462,images/picture_3.png,2,"[-11.733433509789462, 11.733433509789464]",-11.733433509789462,11.733433509789464,0,1,1,1.0029142210777406,2.0029142210777406,0.9970857789222594,3.0,1,1.7529142210777406,0,4.0,3.0,1,2,6,0,6,0,0,7,7,7,,,,,,,503.5665132079739,503.5665132079739,504.5671601250069,505.33332904195413,505.5667182080215,505.5667182080215,505.5667182080215,506.5670043330174,506.5670043330174,506.5670043330174,506.5670043330174,507.5665172919398,200003,101,2023-03-24_12h34.18.232,DMS_et_12-36,2022.2.4,None,
58,PRED,12,1.0029142210777406,1,images/picture_2.png,images/picture_1.png,0,"[11.733433509789464, 11.733433509789462]",11.733433509789464,11.733433509789462,images/picture_2.png,1,"[11.733433509789462, -11.733433509789466]",11.733433509789462,-11.733433509789464,images/picture_3.png,2,"[-11.733433509789462, 11.733433509789464]",-11.733433509789462,11.733433509789464,0,1,1,1.0029142210777406,2.0029142210777406,0.9970857789222594,3.0,1,1.7529142210777406,0,4.0,3.0,1,2,6,0,6,0,0,8,8,4,,,,,,,507.5665172919398,507.5665172919398,508.5669807919767,509.3336977500003,509.5670407919679,509.5670407919679,509.5670407919679,510.56719987501856,510.56719987501856,510.56719987501856,510.56719987501856,511.6445319999475,200003,101,2023-03-24_12h34.18.232,DMS_et_12-36,2022.2.4,None,
,,,,,,,,,,,,,,,,,,,,,,,,,,,,,,,,,,,6,0,6,0,,,,,,,,,511.6445319999475,523.6838925830089,,,,,,,,,,,,,200003,101,2023-03-24_12h34.18.232,DMS_et_12-36,2022.2.4,None,
66,UNPRED,12,1.0029142210777406,2,images/picture_3.png,images/picture_1.png,0,"[-11.733433509789462, 11.733433509789464]",-11.733433509789462,11.733433509789464,images/picture_2.png,1,"[11.733433509789464, 11.733433509789462]",11.733433509789464,11.733433509789462,images/picture_3.png,2,"[11.733433509789462, -11.733433509789466]",11.733433509789462,-11.733433509789464,0,1,1,1.0029142210777406,2.0029142210777406,0.9970857789222594,3.0,1,1.7529142210777406,0,4.0,3.0,1,2,7,0,7,0,0,0,0,3,,,,,,,523.6838925830089,523.6838925830089,524.6864922919776,525.4525999999605,525.6667497080052,525.6667497080052,525.6667497080052,526.6669952499215,526.6669952499215,526.6669952499215,526.6669952499215,527.6662318749586,200003,101,2023-03-24_12h34.18.232,DMS_et_12-36,2022.2.4,None,
64,UNPRED,12,1.0029142210777406,0,images/picture_1.png,images/picture_1.png,0,"[11.733433509789462, -11.733433509789466]",11.733433509789462,-11.733433509789464,images/picture_2.png,1,"[11.733433509789464, 11.733433509789462]",11.733433509789464,11.733433509789462,images/picture_3.png,2,"[-11.733433509789462, 11.733433509789464]",-11.733433509789462,11.733433509789464,0,1,1,1.0029142210777406,2.0029142210777406,0.9970857789222594,3.0,1,1.7529142210777406,0,4.0,3.0,1,2,7,0,7,0,0,1,1,1,,,,,,,527.6662318749586,527.6662318749586,528.6670487920055,529.4337650419911,529.667011457961,529.667011457961,529.667011457961,530.6672442499548,530.6672442499548,530.6672442499548,530.6672442499548,531.6665203749435,200003,101,2023-03-24_12h34.18.232,DMS_et_12-36,2022.2.4,None,
65,UNPRED,12,1.0029142210777406,1,images/picture_2.png,images/picture_1.png,0,"[11.733433509789462, -11.733433509789466]",11.733433509789462,-11.733433509789464,images/picture_2.png,1,"[11.733433509789464, 11.733433509789462]",11.733433509789464,11.733433509789462,images/picture_3.png,2,"[-11.733433509789466, -11.733433509789462]",-11.733433509789464,-11.733433509789462,0,1,1,1.0029142210777406,2.0029142210777406,0.9970857789222594,3.0,1,1.7529142210777406,0,4.0,3.0,1,2,7,0,7,0,0,2,2,2,,,,,,,531.6665203749435,531.6665203749435,532.6672255829908,533.4337591249496,533.6670203329995,533.6670203329995,533.6670203329995,534.6670903329505,534.6670903329505,534.6670903329505,534.6670903329505,535.6666627919767,200003,101,2023-03-24_12h34.18.232,DMS_et_12-36,2022.2.4,None,
71,UNPRED,12,1.0029142210777406,0,images/picture_1.png,images/picture_1.png,0,"[-11.733433509789462, 11.733433509789464]",-11.733433509789462,11.733433509789464,images/picture_2.png,1,"[-11.733433509789466, -11.733433509789462]",-11.733433509789464,-11.733433509789462,images/picture_3.png,2,"[11.733433509789462, -11.733433509789466]",11.733433509789462,-11.733433509789464,0,1,1,1.0029142210777406,2.0029142210777406,0.9970857789222594,3.0,1,1.7529142210777406,0,4.0,3.0,1,2,7,0,7,0,0,3,3,8,,,,,,,535.6666627919767,535.6666627919767,536.6669324169634,537.4337423329707,537.6672752079321,537.6672752079321,537.6672752079321,538.6672178750159,538.6672178750159,538.6672178750159,538.6672178750159,539.6668121250113,200003,101,2023-03-24_12h34.18.232,DMS_et_12-36,2022.2.4,None,
63,UNPRED,12,1.0029142210777406,1,images/picture_2.png,images/picture_1.png,0,"[-11.733433509789466, -11.733433509789462]",-11.733433509789464,-11.733433509789462,images/picture_2.png,1,"[11.733433509789462, -11.733433509789466]",11.733433509789462,-11.733433509789464,images/picture_3.png,2,"[11.733433509789464, 11.733433509789462]",11.733433509789464,11.733433509789462,0,1,1,1.0029142210777406,2.0029142210777406,0.9970857789222594,3.0,1,1.7529142210777406,0,4.0,3.0,1,2,7,0,7,0,0,4,4,0,,,,,,,539.6668121250113,539.6668121250113,540.6670820419677,541.433812082978,541.6671540830284,541.6671540830284,541.6671540830284,542.667217124952,542.667217124952,542.667217124952,542.667217124952,543.6859287079424,200003,101,2023-03-24_12h34.18.232,DMS_et_12-36,2022.2.4,None,
67,UNPRED,12,1.0029142210777406,2,images/picture_3.png,images/picture_1.png,0,"[-11.733433509789466, -11.733433509789462]",-11.733433509789464,-11.733433509789462,images/picture_2.png,1,"[11.733433509789464, 11.733433509789462]",11.733433509789464,11.733433509789462,images/picture_3.png,2,"[-11.733433509789462, 11.733433509789464]",-11.733433509789462,11.733433509789464,0,1,1,1.0029142210777406,2.0029142210777406,0.9970857789222594,3.0,1,1.7529142210777406,0,4.0,3.0,1,2,7,0,7,0,0,5,5,4,,,,,,,543.6859287079424,543.6859287079424,544.700466957991,545.4533165419707,545.6668805829249,545.6668805829249,545.6668805829249,546.6668677920243,546.6668677920243,546.6668677920243,546.6668677920243,547.6859115419211,200003,101,2023-03-24_12h34.18.232,DMS_et_12-36,2022.2.4,None,
70,UNPRED,12,1.0029142210777406,2,images/picture_3.png,images/picture_1.png,0,"[11.733433509789462, -11.733433509789466]",11.733433509789462,-11.733433509789464,images/picture_2.png,1,"[-11.733433509789466, -11.733433509789462]",-11.733433509789464,-11.733433509789462,images/picture_3.png,2,"[-11.733433509789462, 11.733433509789464]",-11.733433509789462,11.733433509789464,0,1,1,1.0029142210777406,2.0029142210777406,0.9970857789222594,3.0,1,1.7529142210777406,0,4.0,3.0,1,2,7,0,7,0,0,6,6,7,,,,,,,547.6859115419211,547.6859115419211,548.7005427919794,549.4530402920209,549.6671103750123,549.6671103750123,549.6671103750123,550.6672402499244,550.6672402499244,550.6672402499244,550.6672402499244,551.6669370000018,200003,101,2023-03-24_12h34.18.232,DMS_et_12-36,2022.2.4,None,
69,UNPRED,12,1.0029142210777406,0,images/picture_1.png,images/picture_1.png,0,"[11.733433509789462, -11.733433509789466]",11.733433509789462,-11.733433509789464,images/picture_2.png,1,"[11.733433509789464, 11.733433509789462]",11.733433509789464,11.733433509789462,images/picture_3.png,2,"[-11.733433509789466, -11.733433509789462]",-11.733433509789464,-11.733433509789462,0,1,1,1.0029142210777406,2.0029142210777406,0.9970857789222594,3.0,1,1.7529142210777406,0,4.0,3.0,1,2,7,0,7,0,0,7,7,6,,,,,,,551.6669370000018,551.6669370000018,552.6673331669299,553.4338029170176,553.6672131669475,553.6672131669475,553.6672131669475,554.6671619169647,554.6671619169647,554.6671619169647,554.6671619169647,555.6859713749727,200003,101,2023-03-24_12h34.18.232,DMS_et_12-36,2022.2.4,None,
68,UNPRED,12,1.0029142210777406,2,images/picture_3.png,images/picture_1.png,0,"[-11.733433509789462, 11.733433509789464]",-11.733433509789462,11.733433509789464,images/picture_2.png,1,"[11.733433509789462, -11.733433509789466]",11.733433509789462,-11.733433509789464,images/picture_3.png,2,"[11.733433509789464, 11.733433509789462]",11.733433509789464,11.733433509789462,0,1,1,1.0029142210777406,2.0029142210777406,0.9970857789222594,3.0,1,1.7529142210777406,0,4.0,3.0,1,2,7,0,7,0,0,8,8,5,,,,,,,555.6859713749727,555.6859713749727,556.7003938329872,557.4534071249655,557.6672755830223,557.6672755830223,557.6672755830223,558.6672029999318,558.6672029999318,558.6672029999318,558.6672029999318,559.7544440829661,200003,101,2023-03-24_12h34.18.232,DMS_et_12-36,2022.2.4,None,
,,,,,,,,,,,,,,,,,,,,,,,,,,,,,,,,,,,7,0,7,0,,,,,,,,,559.7544440829661,571.7915079169907,,,,,,,,,,,,,200003,101,2023-03-24_12h34.18.232,DMS_et_12-36,2022.2.4,None,
79,PRED,12,1.0029142210777406,0,images/picture_1.png,images/picture_1.png,0,"[11.733433509789464, 11.733433509789462]",11.733433509789464,11.733433509789462,images/picture_2.png,1,"[11.733433509789462, -11.733433509789466]",11.733433509789462,-11.733433509789464,images/picture_3.png,2,"[-11.733433509789462, 11.733433509789464]",-11.733433509789462,11.733433509789464,0,1,1,1.0029142210777406,2.0029142210777406,0.9970857789222594,3.0,1,1.7529142210777406,0,4.0,3.0,1,2,8,0,8,0,0,0,0,7,,,,,,,571.7915079169907,571.7915079169907,572.8005913329544,573.5527535419678,573.7867475829553,573.7867475829553,573.7867475829553,574.7867515829857,574.7867515829857,574.7867515829857,574.7867515829857,575.7999471669318,200003,101,2023-03-24_12h34.18.232,DMS_et_12-36,2022.2.4,None,
80,PRED,12,1.0029142210777406,0,images/picture_1.png,images/picture_1.png,0,"[-11.733433509789466, -11.733433509789462]",-11.733433509789464,-11.733433509789462,images/picture_2.png,1,"[11.733433509789462, -11.733433509789466]",11.733433509789462,-11.733433509789464,images/picture_3.png,2,"[11.733433509789464, 11.733433509789462]",11.733433509789464,11.733433509789462,0,1,1,1.0029142210777406,2.0029142210777406,0.9970857789222594,3.0,1,1.7529142210777406,0,4.0,3.0,1,2,8,0,8,0,0,1,1,8,,,,,,,575.7999471669318,575.7999471669318,576.8001436250051,577.5670876249205,577.8006826669443,577.8006826669443,577.8006826669443,578.8005022079451,578.8005022079451,578.8005022079451,578.8005022079451,579.7999919169815,200003,101,2023-03-24_12h34.18.232,DMS_et_12-36,2022.2.4,None,
72,PRED,12,1.0029142210777406,0,images/picture_1.png,images/picture_1.png,0,"[-11.733433509789466, -11.733433509789462]",-11.733433509789464,-11.733433509789462,images/picture_2.png,1,"[-11.733433509789462, 11.733433509789464]",-11.733433509789462,11.733433509789464,images/picture_3.png,2,"[11.733433509789464, 11.733433509789462]",11.733433509789464,11.733433509789462,0,1,1,1.0029142210777406,2.0029142210777406,0.9970857789222594,3.0,1,1.7529142210777406,0,4.0,3.0,1,2,8,0,8,0,0,2,2,0,,,,,,,579.7999919169815,579.7999919169815,580.8005303329555,581.567252082983,581.800563332974,581.800563332974,581.800563332974,582.8005497499835,582.8005497499835,582.8005497499835,582.8005497499835,583.799999916926,200003,101,2023-03-24_12h34.18.232,DMS_et_12-36,2022.2.4,None,
73,PRED,12,1.0029142210777406,0,images/picture_1.png,images/picture_1.png,0,"[11.733433509789462, -11.733433509789466]",11.733433509789462,-11.733433509789464,images/picture_2.png,1,"[-11.733433509789462, 11.733433509789464]",-11.733433509789462,11.733433509789464,images/picture_3.png,2,"[11.733433509789464, 11.733433509789462]",11.733433509789464,11.733433509789462,0,1,1,1.0029142210777406,2.0029142210777406,0.9970857789222594,3.0,1,1.7529142210777406,0,4.0,3.0,1,2,8,0,8,0,0,3,3,1,,,,,,,583.799999916926,583.799999916926,584.8005199999316,585.5676131669898,585.8005129999947,585.8005129999947,585.8005129999947,586.800206416985,586.800206416985,586.800206416985,586.800206416985,587.7996531670215,200003,101,2023-03-24_12h34.18.232,DMS_et_12-36,2022.2.4,None,
74,PRED,12,1.0029142210777406,0,images/picture_1.png,images/picture_1.png,0,"[11.733433509789464, 11.733433509789462]",11.733433509789464,11.733433509789462,images/picture_2.png,1,"[-11.733433509789466, -11.733433509789462]",-11.733433509789464,-11.733433509789462,images/picture_3.png,2,"[-11.733433509789462, 11.733433509789464]",-11.733433509789462,11.733433509789464,0,1,1,1.0029142210777406,2.0029142210777406,0.9970857789222594,3.0,1,1.7529142210777406,0,4.0,3.0,1,2,8,0,8,0,0,4,4,2,,,,,,,587.7996531670215,587.7996531670215,588.8006250829203,589.567232166999,589.8005636249436,589.8005636249436,589.8005636249436,590.8005539579317,590.8005539579317,590.8005539579317,590.8005539579317,591.7999450829811,200003,101,2023-03-24_12h34.18.232,DMS_et_12-36,2022.2.4,None,
75,PRED,12,1.0029142210777406,0,images/picture_1.png,images/picture_1.png,0,"[11.733433509789462, -11.733433509789466]",11.733433509789462,-11.733433509789464,images/picture_2.png,1,"[-11.733433509789462, 11.733433509789464]",-11.733433509789462,11.733433509789464,images/picture_3.png,2,"[11.733433509789464, 11.733433509789462]",11.733433509789464,11.733433509789462,0,1,1,1.0029142210777406,2.0029142210777406,0.9970857789222594,3.0,1,1.7529142210777406,0,4.0,3.0,1,2,8,0,8,0,0,5,5,3,,,,,,,591.7999450829811,591.7999450829811,592.8006404170301,593.5672985829879,593.8005591250258,593.8005591250258,593.8005591250258,594.8007232919335,594.8007232919335,594.8007232919335,594.8007232919335,595.8002680829959,200003,101,2023-03-24_12h34.18.232,DMS_et_12-36,2022.2.4,None,
78,PRED,12,1.0029142210777406,0,images/picture_1.png,images/picture_1.png,0,"[-11.733433509789466, -11.733433509789462]",-11.733433509789464,-11.733433509789462,images/picture_2.png,1,"[11.733433509789464, 11.733433509789462]",11.733433509789464,11.733433509789462,images/picture_3.png,2,"[-11.733433509789462, 11.733433509789464]",-11.733433509789462,11.733433509789464,0,1,1,1.0029142210777406,2.0029142210777406,0.9970857789222594,3.0,1,1.7529142210777406,0,4.0,3.0,1,2,8,0,8,0,0,6,6,6,,,,,,,595.8002680829959,595.8002680829959,596.8007829999551,597.5670292079449,597.8002917079721,597.8002917079721,597.8002917079721,598.8006204579724,598.8006204579724,598.8006204579724,598.8006204579724,599.8004107079469,200003,101,2023-03-24_12h34.18.232,DMS_et_12-36,2022.2.4,None,
77,PRED,12,1.0029142210777406,0,images/picture_1.png,images/picture_1.png,0,"[11.733433509789462, -11.733433509789466]",11.733433509789462,-11.733433509789464,images/picture_2.png,1,"[-11.733433509789466, -11.733433509789462]",-11.733433509789464,-11.733433509789462,images/picture_3.png,2,"[-11.733433509789462, 11.733433509789464]",-11.733433509789462,11.733433509789464,0,1,1,1.0029142210777406,2.0029142210777406,0.9970857789222594,3.0,1,1.7529142210777406,0,4.0,3.0,1,2,8,0,8,0,0,7,7,5,,,,,,,599.8004107079469,599.8004107079469,600.80071266694,601.5672917499905,601.8007377919275,601.8007377919275,601.8007377919275,602.800708457944,602.800708457944,602.800708457944,602.800708457944,603.8000438329764,200003,101,2023-03-24_12h34.18.232,DMS_et_12-36,2022.2.4,None,
76,PRED,12,1.0029142210777406,0,images/picture_1.png,images/picture_1.png,0,"[11.733433509789462, -11.733433509789466]",11.733433509789462,-11.733433509789464,images/picture_2.png,1,"[11.733433509789464, 11.733433509789462]",11.733433509789464,11.733433509789462,images/picture_3.png,2,"[-11.733433509789466, -11.733433509789462]",-11.733433509789464,-11.733433509789462,0,1,1,1.0029142210777406,2.0029142210777406,0.9970857789222594,3.0,1,1.7529142210777406,0,4.0,3.0,1,2,8,0,8,0,0,8,8,4,,,,,,,603.8000438329764,603.8000438329764,604.8006355420221,605.5673121670261,605.8005395829678,605.8005395829678,605.8005395829678,606.8007116669323,606.8007116669323,606.8007116669323,606.8007116669323,607.879993291921,200003,101,2023-03-24_12h34.18.232,DMS_et_12-36,2022.2.4,None,
,,,,,,,,,,,,,,,,,,,,,,,,,,,,,,,,,,,8,0,8,0,,,,,,,,,607.879993291921,619.9056847079191,,,,,,,,,,,,,200003,101,2023-03-24_12h34.18.232,DMS_et_12-36,2022.2.4,None,
84,UNPRED,12,1.0029142210777406,0,images/picture_1.png,images/picture_1.png,0,"[11.733433509789464, 11.733433509789462]",11.733433509789464,11.733433509789462,images/picture_2.png,1,"[-11.733433509789462, 11.733433509789464]",-11.733433509789462,11.733433509789464,images/picture_3.png,2,"[11.733433509789462, -11.733433509789466]",11.733433509789462,-11.733433509789464,0,1,1,1.0029142210777406,2.0029142210777406,0.9970857789222594,3.0,1,1.7529142210777406,0,4.0,3.0,1,2,9,0,9,0,0,0,0,3,,,,,,,619.9056847079191,619.9056847079191,620.9206136249704,621.6675507499604,621.9007640830241,621.9007640830241,621.9007640830241,622.9007321249228,622.9007321249228,622.9007321249228,622.9007321249228,623.9200886249309,200003,101,2023-03-24_12h34.18.232,DMS_et_12-36,2022.2.4,None,
88,UNPRED,12,1.0029142210777406,2,images/picture_3.png,images/picture_1.png,0,"[11.733433509789462, -11.733433509789466]",11.733433509789462,-11.733433509789464,images/picture_2.png,1,"[-11.733433509789462, 11.733433509789464]",-11.733433509789462,11.733433509789464,images/picture_3.png,2,"[11.733433509789464, 11.733433509789462]",11.733433509789464,11.733433509789462,0,1,1,1.0029142210777406,2.0029142210777406,0.9970857789222594,3.0,1,1.7529142210777406,0,4.0,3.0,1,2,9,0,9,0,0,1,1,7,,,,,,,623.9200886249309,623.9200886249309,624.9341977919685,625.6869231669698,625.9007773749763,625.9007773749763,625.9007773749763,626.9007298329379,626.9007298329379,626.9007298329379,626.9007298329379,627.9003516669618,200003,101,2023-03-24_12h34.18.232,DMS_et_12-36,2022.2.4,None,
82,UNPRED,12,1.0029142210777406,0,images/picture_1.png,images/picture_1.png,0,"[11.733433509789462, -11.733433509789466]",11.733433509789462,-11.733433509789464,images/picture_2.png,1,"[11.733433509789464, 11.733433509789462]",11.733433509789464,11.733433509789462,images/picture_3.png,2,"[-11.733433509789462, 11.733433509789464]",-11.733433509789462,11.733433509789464,0,1,1,1.0029142210777406,2.0029142210777406,0.9970857789222594,3.0,1,1.7529142210777406,0,4.0,3.0,1,2,9,0,9,0,0,2,2,1,,,,,,,627.9003516669618,627.9003516669618,628.9007468749769,629.667461541947,629.9005662079435,629.9005662079435,629.9005662079435,630.9007556670113,630.9007556670113,630.9007556670113,630.9007556670113,631.919284582953,200003,101,2023-03-24_12h34.18.232,DMS_et_12-36,2022.2.4,None,
89,UNPRED,12,1.0029142210777406,2,images/picture_3.png,images/picture_1.png,0,"[11.733433509789464, 11.733433509789462]",11.733433509789464,11.733433509789462,images/picture_2.png,1,"[-11.733433509789466, -11.733433509789462]",-11.733433509789464,-11.733433509789462,images/picture_3.png,2,"[-11.733433509789462, 11.733433509789464]",-11.733433509789462,11.733433509789464,0,1,1,1.0029142210777406,2.0029142210777406,0.9970857789222594,3.0,1,1.7529142210777406,0,4.0,3.0,1,2,9,0,9,0,0,3,3,8,,,,,,,631.919284582953,631.919284582953,632.934054124984,633.6865306670079,633.9007094169501,633.9007094169501,633.9007094169501,634.9007378329989,634.9007378329989,634.9007378329989,634.9007378329989,635.901396124973,200003,101,2023-03-24_12h34.18.232,DMS_et_12-36,2022.2.4,None,
81,UNPRED,12,1.0029142210777406,0,images/picture_1.png,images/picture_1.png,0,"[-11.733433509789462, 11.733433509789464]",-11.733433509789462,11.733433509789464,images/picture_2.png,1,"[11.733433509789464, 11.733433509789462]",11.733433509789464,11.733433509789462,images/picture_3.png,2,"[-11.733433509789466, -11.733433509789462]",-11.733433509789464,-11.733433509789462,0,1,1,1.0029142210777406,2.0029142210777406,0.9970857789222594,3.0,1,1.7529142210777406,0,4.0,3.0,1,2,9,0,9,0,0,4,4,0,,,,,,,635.901396124973,635.901396124973,636.9007627079263,637.6672802079702,637.900429375004,637.900429375004,637.900429375004,638.9004990829853,638.9004990829853,638.9004990829853,638.9004990829853,639.8999416669831,200003,101,2023-03-24_12h34.18.232,DMS_et_12-36,2022.2.4,None,
85,UNPRED,12,1.0029142210777406,1,images/picture_2.png,images/picture_1.png,0,"[-11.733433509789462, 11.733433509789464]",-11.733433509789462,11.733433509789464,images/picture_2.png,1,"[11.733433509789462, -11.733433509789466]",11.733433509789462,-11.733433509789464,images/picture_3.png,2,"[-11.733433509789466, -11.733433509789462]",-11.733433509789464,-11.733433509789462,0,1,1,1.0029142210777406,2.0029142210777406,0.9970857789222594,3.0,1,1.7529142210777406,0,4.0,3.0,1,2,9,0,9,0,0,5,5,4,,,,,,,639.8999416669831,639.8999416669831,640.9007069580257,641.667576125008,641.9007437919499,641.9007437919499,641.9007437919499,642.9007258330239,642.9007258330239,642.9007258330239,642.9007258330239,643.9001263329992,200003,101,2023-03-24_12h34.18.232,DMS_et_12-36,2022.2.4,None,
83,UNPRED,12,1.0029142210777406,0,images/picture_1.png,images/picture_1.png,0,"[11.733433509789462, -11.733433509789466]",11.733433509789462,-11.733433509789464,images/picture_2.png,1,"[11.733433509789464, 11.733433509789462]",11.733433509789464,11.733433509789462,images/picture_3.png,2,"[-11.733433509789462, 11.733433509789464]",-11.733433509789462,11.733433509789464,0,1,1,1.0029142210777406,2.0029142210777406,0.9970857789222594,3.0,1,1.7529142210777406,0,4.0,3.0,1,2,9,0,9,0,0,6,6,2,,,,,,,643.9001263329992,643.9001263329992,644.9007132919505,645.6673633749597,645.9007450829959,645.9007450829959,645.9007450829959,646.9006971250055,646.9006971250055,646.9006971250055,646.9006971250055,647.9198321669828,200003,101,2023-03-24_12h34.18.232,DMS_et_12-36,2022.2.4,None,
87,UNPRED,12,1.0029142210777406,2,images/picture_3.png,images/picture_1.png,0,"[11.733433509789464, 11.733433509789462]",11.733433509789464,11.733433509789462,images/picture_2.png,1,"[11.733433509789462, -11.733433509789466]",11.733433509789462,-11.733433509789464,images/picture_3.png,2,"[-11.733433509789466, -11.733433509789462]",-11.733433509789464,-11.733433509789462,0,1,1,1.0029142210777406,2.0029142210777406,0.9970857789222594,3.0,1,1.7529142210777406,0,4.0,3.0,1,2,9,0,9,0,0,7,7,6,,,,,,,647.9198321669828,647.9198321669828,648.9338202499785,649.6866402919404,649.9007312079193,649.9007312079193,649.9007312079193,650.9007538330043,650.9007538330043,650.9007538330043,650.9007538330043,651.9011098329211,200003,101,2023-03-24_12h34.18.232,DMS_et_12-36,2022.2.4,None,
86,UNPRED,12,1.0029142210777406,0,images/picture_1.png,images/picture_1.png,0,"[-11.733433509789466, -11.733433509789462]",-11.733433509789464,-11.733433509789462,images/picture_2.png,1,"[-11.733433509789462, 11.733433509789464]",-11.733433509789462,11.733433509789464,images/picture_3.png,2,"[11.733433509789462, -11.733433509789466]",11.733433509789462,-11.733433509789464,0,1,1,1.0029142210777406,2.0029142210777406,0.9970857789222594,3.0,1,1.7529142210777406,0,4.0,3.0,1,2,9,0,9,0,0,8,8,5,,,,,,,651.9011098329211,651.9011098329211,652.9008998749778,653.6672929169144,653.9007666249527,653.9007666249527,653.9007666249527,654.9007320000092,654.9007320000092,654.9007320000092,654.9007320000092,656.0097338749329,200003,101,2023-03-24_12h34.18.232,DMS_et_12-36,2022.2.4,None,
,,,,,,,,,,,,,,,,,,,,,,,,,,,,,,,,,,,9,0,9,0,,,,,,,,,656.0097338749329,668.0352453329833,,,,,,,,,,,,,200003,101,2023-03-24_12h34.18.232,DMS_et_12-36,2022.2.4,None,
94,PRED,12,1.0029142210777406,1,images/picture_2.png,images/picture_1.png,0,"[-11.733433509789466, -11.733433509789462]",-11.733433509789464,-11.733433509789462,images/picture_2.png,1,"[11.733433509789462, -11.733433509789466]",11.733433509789462,-11.733433509789464,images/picture_3.png,2,"[11.733433509789464, 11.733433509789462]",11.733433509789464,11.733433509789462,0,1,1,1.0029142210777406,2.0029142210777406,0.9970857789222594,3.0,1,1.7529142210777406,0,4.0,3.0,1,2,10,0,10,0,0,0,0,4,,,,,,,668.0352453329833,668.0352453329833,669.033768207999,669.8005638750037,670.0340160420164,670.0340160420164,670.0340160420164,671.0343027919298,671.0343027919298,671.0343027919298,671.0343027919298,672.033731958014,200003,101,2023-03-24_12h34.18.232,DMS_et_12-36,2022.2.4,None,
90,PRED,12,1.0029142210777406,1,images/picture_2.png,images/picture_1.png,0,"[-11.733433509789466, -11.733433509789462]",-11.733433509789464,-11.733433509789462,images/picture_2.png,1,"[11.733433509789464, 11.733433509789462]",11.733433509789464,11.733433509789462,images/picture_3.png,2,"[11.733433509789462, -11.733433509789466]",11.733433509789462,-11.733433509789464,0,1,1,1.0029142210777406,2.0029142210777406,0.9970857789222594,3.0,1,1.7529142210777406,0,4.0,3.0,1,2,10,0,10,0,0,1,1,0,,,,,,,672.033731958014,672.033731958014,673.0340508749941,673.800729791983,674.0343798330287,674.0343798330287,674.0343798330287,675.0342217079597,675.0342217079597,675.0342217079597,675.0342217079597,676.0336357919732,200003,101,2023-03-24_12h34.18.232,DMS_et_12-36,2022.2.4,None,
98,PRED,12,1.0029142210777406,1,images/picture_2.png,images/picture_1.png,0,"[11.733433509789462, -11.733433509789466]",11.733433509789462,-11.733433509789464,images/picture_2.png,1,"[11.733433509789464, 11.733433509789462]",11.733433509789464,11.733433509789462,images/picture_3.png,2,"[-11.733433509789466, -11.733433509789462]",-11.733433509789464,-11.733433509789462,0,1,1,1.0029142210777406,2.0029142210777406,0.9970857789222594,3.0,1,1.7529142210777406,0,4.0,3.0,1,2,10,0,10,0,0,2,2,8,,,,,,,676.0336357919732,676.0336357919732,677.0343560830224,677.8007107080193,678.0340823329752,678.0340823329752,678.0340823329752,679.0339476669906,679.0339476669906,679.0339476669906,679.0339476669906,680.0336247920059,200003,101,2023-03-24_12h34.18.232,DMS_et_12-36,2022.2.4,None,
96,PRED,12,1.0029142210777406,1,images/picture_2.png,images/picture_1.png,0,"[-11.733433509789462, 11.733433509789464]",-11.733433509789462,11.733433509789464,images/picture_2.png,1,"[11.733433509789462, -11.733433509789466]",11.733433509789462,-11.733433509789464,images/picture_3.png,2,"[11.733433509789464, 11.733433509789462]",11.733433509789464,11.733433509789462,0,1,1,1.0029142210777406,2.0029142210777406,0.9970857789222594,3.0,1,1.7529142210777406,0,4.0,3.0,1,2,10,0,10,0,0,3,3,6,,,,,,,680.0336247920059,680.0336247920059,681.0342043749988,681.8007697919384,682.0341726669576,682.0341726669576,682.0341726669576,683.0344680419657,683.0344680419657,683.0344680419657,683.0344680419657,684.0338977919891,200003,101,2023-03-24_12h34.18.232,DMS_et_12-36,2022.2.4,None,
95,PRED,12,1.0029142210777406,1,images/picture_2.png,images/picture_1.png,0,"[-11.733433509789462, 11.733433509789464]",-11.733433509789462,11.733433509789464,images/picture_2.png,1,"[11.733433509789462, -11.733433509789466]",11.733433509789462,-11.733433509789464,images/picture_3.png,2,"[-11.733433509789466, -11.733433509789462]",-11.733433509789464,-11.733433509789462,0,1,1,1.0029142210777406,2.0029142210777406,0.9970857789222594,3.0,1,1.7529142210777406,0,4.0,3.0,1,2,10,0,10,0,0,4,4,5,,,,,,,684.0338977919891,684.0338977919891,685.0341897079488,685.8007884169929,686.0343408749904,686.0343408749904,686.0343408749904,687.0342211249517,687.0342211249517,687.0342211249517,687.0342211249517,688.0340084580239,200003,101,2023-03-24_12h34.18.232,DMS_et_12-36,2022.2.4,None,
91,PRED,12,1.0029142210777406,1,images/picture_2.png,images/picture_1.png,0,"[-11.733433509789466, -11.733433509789462]",-11.733433509789464,-11.733433509789462,images/picture_2.png,1,"[11.733433509789464, 11.733433509789462]",11.733433509789464,11.733433509789462,images/picture_3.png,2,"[-11.733433509789462, 11.733433509789464]",-11.733433509789462,11.733433509789464,0,1,1,1.0029142210777406,2.0029142210777406,0.9970857789222594,3.0,1,1.7529142210777406,0,4.0,3.0,1,2,10,0,10,0,0,5,5,1,,,,,,,688.0340084580239,688.0340084580239,689.0343484169571,689.8005730420118,690.0339284579968,690.0339284579968,690.0339284579968,691.0342530829366,691.0342530829366,691.0342530829366,691.0342530829366,692.0336379579967,200003,101,2023-03-24_12h34.18.232,DMS_et_12-36,2022.2.4,None,
92,PRED,12,1.0029142210777406,1,images/picture_2.png,images/picture_1.png,0,"[-11.733433509789462, 11.733433509789464]",-11.733433509789462,11.733433509789464,images/picture_2.png,1,"[11.733433509789462, -11.733433509789466]",11.733433509789462,-11.733433509789464,images/picture_3.png,2,"[-11.733433509789466, -11.733433509789462]",-11.733433509789464,-11.733433509789462,0,1,1,1.0029142210777406,2.0029142210777406,0.9970857789222594,3.0,1,1.7529142210777406,0,4.0,3.0,1,2,10,0,10,0,0,6,6,2,,,,,,,692.0336379579967,692.0336379579967,693.0342632919783,693.8007935419446,694.0342430829769,694.0342430829769,694.0342430829769,695.0343336670194,695.0343336670194,695.0343336670194,695.0343336670194,696.0336418329971,200003,101,2023-03-24_12h34.18.232,DMS_et_12-36,2022.2.4,None,
97,PRED,12,1.0029142210777406,1,images/picture_2.png,images/picture_1.png,0,"[11.733433509789462, -11.733433509789466]",11.733433509789462,-11.733433509789464,images/picture_2.png,1,"[-11.733433509789466, -11.733433509789462]",-11.733433509789464,-11.733433509789462,images/picture_3.png,2,"[-11.733433509789462, 11.733433509789464]",-11.733433509789462,11.733433509789464,0,1,1,1.0029142210777406,2.0029142210777406,0.9970857789222594,3.0,1,1.7529142210777406,0,4.0,3.0,1,2,10,0,10,0,0,7,7,7,,,,,,,696.0336418329971,696.0336418329971,697.0340178749757,697.8008103329921,698.0341644579312,698.0341644579312,698.0341644579312,699.0342331669526,699.0342331669526,699.0342331669526,699.0342331669526,700.0338099169312,200003,101,2023-03-24_12h34.18.232,DMS_et_12-36,2022.2.4,None,
93,PRED,12,1.0029142210777406,1,images/picture_2.png,images/picture_1.png,0,"[-11.733433509789462, 11.733433509789464]",-11.733433509789462,11.733433509789464,images/picture_2.png,1,"[11.733433509789464, 11.733433509789462]",11.733433509789464,11.733433509789462,images/picture_3.png,2,"[11.733433509789462, -11.733433509789466]",11.733433509789462,-11.733433509789464,0,1,1,1.0029142210777406,2.0029142210777406,0.9970857789222594,3.0,1,1.7529142210777406,0,4.0,3.0,1,2,10,0,10,0,0,8,8,3,,,,,,,700.0338099169312,700.0338099169312,701.0343307500007,701.8007775829174,702.0342199580045,702.0342199580045,702.0342199580045,703.0340599579504,703.0340599579504,703.0340599579504,703.0340599579504,704.1400921669556,200003,101,2023-03-24_12h34.18.232,DMS_et_12-36,2022.2.4,None,
,,,,,,,,,,,,,,,,,,,,,,,,,,,,,,,,,,,10,0,10,0,,,,,,,,,704.1400921669556,716.1706607500091,,,,,,,,,,,,,200003,101,2023-03-24_12h34.18.232,DMS_et_12-36,2022.2.4,None,
99,UNPRED,12,1.0029142210777406,1,images/picture_2.png,images/picture_1.png,0,"[-11.733433509789462, 11.733433509789464]",-11.733433509789462,11.733433509789464,images/picture_2.png,1,"[11.733433509789462, -11.733433509789466]",11.733433509789462,-11.733433509789464,images/picture_3.png,2,"[11.733433509789464, 11.733433509789462]",11.733433509789464,11.733433509789462,0,1,1,1.0029142210777406,2.0029142210777406,0.9970857789222594,3.0,1,1.7529142210777406,0,4.0,3.0,1,2,11,0,11,0,0,0,0,0,,,,,,,716.1706607500091,716.1706607500091,717.1675191669492,717.9343215830158,718.1675422079861,718.1675422079861,718.1675422079861,719.16758070793,719.16758070793,719.16758070793,719.16758070793,720.1672266250243,200003,101,2023-03-24_12h34.18.232,DMS_et_12-36,2022.2.4,None,
101,UNPRED,12,1.0029142210777406,1,images/picture_2.png,images/picture_1.png,0,"[11.733433509789462, -11.733433509789466]",11.733433509789462,-11.733433509789464,images/picture_2.png,1,"[-11.733433509789466, -11.733433509789462]",-11.733433509789464,-11.733433509789462,images/picture_3.png,2,"[11.733433509789464, 11.733433509789462]",11.733433509789464,11.733433509789462,0,1,1,1.0029142210777406,2.0029142210777406,0.9970857789222594,3.0,1,1.7529142210777406,0,4.0,3.0,1,2,11,0,11,0,0,1,1,2,,,,,,,720.1672266250243,720.1672266250243,721.1673602919327,721.9342696249951,722.1675643749768,722.1675643749768,722.1675643749768,723.1675359579967,723.1675359579967,723.1675359579967,723.1675359579967,724.167352624936,200003,101,2023-03-24_12h34.18.232,DMS_et_12-36,2022.2.4,None,
100,UNPRED,12,1.0029142210777406,0,images/picture_1.png,images/picture_1.png,0,"[11.733433509789462, -11.733433509789466]",11.733433509789462,-11.733433509789464,images/picture_2.png,1,"[-11.733433509789466, -11.733433509789462]",-11.733433509789464,-11.733433509789462,images/picture_3.png,2,"[-11.733433509789462, 11.733433509789464]",-11.733433509789462,11.733433509789464,0,1,1,1.0029142210777406,2.0029142210777406,0.9970857789222594,3.0,1,1.7529142210777406,0,4.0,3.0,1,2,11,0,11,0,0,2,2,1,,,,,,,724.167352624936,724.167352624936,725.1675716669997,725.9343073329655,726.1676023330074,726.1676023330074,726.1676023330074,727.1675429169554,727.1675429169554,727.1675429169554,727.1675429169554,728.1671195829986,200003,101,2023-03-24_12h34.18.232,DMS_et_12-36,2022.2.4,None,
104,UNPRED,12,1.0029142210777406,1,images/picture_2.png,images/picture_1.png,0,"[-11.733433509789462, 11.733433509789464]",-11.733433509789462,11.733433509789464,images/picture_2.png,1,"[11.733433509789464, 11.733433509789462]",11.733433509789464,11.733433509789462,images/picture_3.png,2,"[11.733433509789462, -11.733433509789466]",11.733433509789462,-11.733433509789464,0,1,1,1.0029142210777406,2.0029142210777406,0.9970857789222594,3.0,1,1.7529142210777406,0,4.0,3.0,1,2,11,0,11,0,0,3,3,5,,,,,,,728.1671195829986,728.1671195829986,729.1675603749463,729.934243583004,730.1673052079277,730.1673052079277,730.1673052079277,731.1674111249158,731.1674111249158,731.1674111249158,731.1674111249158,732.1670257919468,200003,101,2023-03-24_12h34.18.232,DMS_et_12-36,2022.2.4,None,
107,UNPRED,12,1.0029142210777406,0,images/picture_1.png,images/picture_1.png,0,"[11.733433509789462, -11.733433509789466]",11.733433509789462,-11.733433509789464,images/picture_2.png,1,"[-11.733433509789466, -11.733433509789462]",-11.733433509789464,-11.733433509789462,images/picture_3.png,2,"[-11.733433509789462, 11.733433509789464]",-11.733433509789462,11.733433509789464,0,1,1,1.0029142210777406,2.0029142210777406,0.9970857789222594,3.0,1,1.7529142210777406,0,4.0,3.0,1,2,11,0,11,0,0,4,4,8,,,,,,,732.1670257919468,732.1670257919468,733.16775529203,733.9343362919753,734.1674992080079,734.1674992080079,734.1674992080079,735.1675633749692,735.1675633749692,735.1675633749692,735.1675633749692,736.1670120829949,200003,101,2023-03-24_12h34.18.232,DMS_et_12-36,2022.2.4,None,
105,UNPRED,12,1.0029142210777406,0,images/picture_1.png,images/picture_1.png,0,"[11.733433509789462, -11.733433509789466]",11.733433509789462,-11.733433509789464,images/picture_2.png,1,"[11.733433509789464, 11.733433509789462]",11.733433509789464,11.733433509789462,images/picture_3.png,2,"[-11.733433509789466, -11.733433509789462]",-11.733433509789464,-11.733433509789462,0,1,1,1.0029142210777406,2.0029142210777406,0.9970857789222594,3.0,1,1.7529142210777406,0,4.0,3.0,1,2,11,0,11,0,0,5,5,6,,,,,,,736.1670120829949,736.1670120829949,737.1677581670228,737.9342441669432,738.1677280419972,738.1677280419972,738.1677280419972,739.1677192499628,739.1677192499628,739.1677192499628,739.1677192499628,740.1670834579272,200003,101,2023-03-24_12h34.18.232,DMS_et_12-36,2022.2.4,None,
103,UNPRED,12,1.0029142210777406,0,images/picture_1.png,images/picture_1.png,0,"[11.733433509789464, 11.733433509789462]",11.733433509789464,11.733433509789462,images/picture_2.png,1,"[-11.733433509789462, 11.733433509789464]",-11.733433509789462,11.733433509789464,images/picture_3.png,2,"[-11.733433509789466, -11.733433509789462]",-11.733433509789464,-11.733433509789462,0,1,1,1.0029142210777406,2.0029142210777406,0.9970857789222594,3.0,1,1.7529142210777406,0,4.0,3.0,1,2,11,0,11,0,0,6,6,4,,,,,,,740.1670834579272,740.1670834579272,741.1673736249795,741.9342877499294,742.167568041943,742.167568041943,742.167568041943,743.167765500024,743.167765500024,743.167765500024,743.167765500024,744.1675817919895,200003,101,2023-03-24_12h34.18.232,DMS_et_12-36,2022.2.4,None,
102,UNPRED,12,1.0029142210777406,1,images/picture_2.png,images/picture_1.png,0,"[11.733433509789462, -11.733433509789466]",11.733433509789462,-11.733433509789464,images/picture_2.png,1,"[-11.733433509789466, -11.733433509789462]",-11.733433509789464,-11.733433509789462,images/picture_3.png,2,"[-11.733433509789462, 11.733433509789464]",-11.733433509789462,11.733433509789464,0,1,1,1.0029142210777406,2.0029142210777406,0.9970857789222594,3.0,1,1.7529142210777406,0,4.0,3.0,1,2,11,0,11,0,0,7,7,3,,,,,,,744.1675817919895,744.1675817919895,745.167740667006,745.9342409169767,746.1677656669635,746.1677656669635,746.1677656669635,747.1675626669312,747.1675626669312,747.1675626669312,747.1675626669312,748.1862252500141,200003,101,2023-03-24_12h34.18.232,DMS_et_12-36,2022.2.4,None,
106,UNPRED,12,1.0029142210777406,2,images/picture_3.png,images/picture_1.png,0,"[11.733433509789464, 11.733433509789462]",11.733433509789464,11.733433509789462,images/picture_2.png,1,"[-11.733433509789466, -11.733433509789462]",-11.733433509789464,-11.733433509789462,images/picture_3.png,2,"[11.733433509789462, -11.733433509789466]",11.733433509789462,-11.733433509789464,0,1,1,1.0029142210777406,2.0029142210777406,0.9970857789222594,3.0,1,1.7529142210777406,0,4.0,3.0,1,2,11,0,11,0,0,8,8,7,,,,,,,748.1862252500141,748.1862252500141,749.2009928330081,749.9537733329926,750.1675386249553,750.1675386249553,750.1675386249553,751.1672716250177,751.1672716250177,751.1672716250177,751.1672716250177,752.339289000025,200003,101,2023-03-24_12h34.18.232,DMS_et_12-36,2022.2.4,None,
,,,,,,,,,,,,,,,,,,,,,,,,,,,,,,,,,,,11,0,11,0,,,,,,,,,752.339289000025,764.4838744170265,,,,,,,,,,,,,200003,101,2023-03-24_12h34.18.232,DMS_et_12-36,2022.2.4,None,
,,,,,,,,,,,,,,,,,,,,,,,,,,,,,,,,,,,,,,,,,,,,,,,764.4838744170265,777.0038972499315,,,,,,,,,,,,,,,,,,,
