trial_count,blockType,blockNum,delay_time,stimImage_i,stimImage,responseImage1,responseImage1_i,responseImage1_pos,responseImage1_X,responseImage1_Y,responseImage2,responseImage2_i,responseImage2_pos,responseImage2_X,responseImage2_Y,responseImage3,responseImage3_i,responseImage3_pos,responseImage3_X,responseImage3_Y,cue_onset,cue_dur,delay_onset,delay_dur,resp_onset,resp_dur,rest_onset,rest_dur,circle_dur,circle_onset,total_dur,cross_onset,cross_dur,delay_resp_period,blocks.thisRepN,blocks.thisTrialN,blocks.thisN,blocks.thisIndex,trials.thisRepN,trials.thisTrialN,trials.thisN,trials.thisIndex,key_resp.started,text.started,key_resp.keys,key_resp.rt,text_2.started,text_2.stopped,etRecord.started,sample.started,Delay.started,sample.stopped,Response_1.started,Response_2.started,Response_3.started,Delay.stopped,Response_1.stopped,Response_2.stopped,Response_3.stopped,polygon.started,polygon.stopped,etRecord.stopped,participant,session,date,expName,psychopyVersion,frameRate,
,,,,,,,,,,,,,,,,,,,,,,,,,,,,,,,,,,,,,,,,,,,80.30930245795753,80.30930245795753,t,59.750627500005066,,,,,,,,,,,,,,,,,200003,002,2023-03-22_12h57.58.405,DMS_et_12-36,2022.2.4,None,
4,PRED,12,0.8518974897593568,0,images/picture_1.png,images/picture_1.png,0,"[11.733433509789464, 11.733433509789462]",11.733433509789464,11.733433509789462,images/picture_2.png,1,"[-11.733433509789466, -11.733433509789462]",-11.733433509789464,-11.733433509789462,images/picture_3.png,2,"[11.733433509789462, -11.733433509789466]",11.733433509789462,-11.733433509789464,0,1,1,0.8518974897593568,1.8518974897593568,1.1481025102406432,3.0,1,1.6018974897593568,0,4.0,3.0,1,2,0,0,0,0,0,0,0,4,,,,,140.06885895796586,152.6243293749867,0.005304750055074692,152.6243293749867,152.6243293749867,153.6354452909436,153.9550242909463,153.9550242909463,153.9550242909463,154.2357177080121,155.10228983301204,155.10228983301204,155.10228983301204,155.10228983301204,156.10211724997498,4.5212882910855114,200003,002,2023-03-22_12h57.58.405,DMS_et_12-36,2022.2.4,None,
6,PRED,12,0.8518974897593568,0,images/picture_1.png,images/picture_1.png,0,"[-11.733433509789466, -11.733433509789462]",-11.733433509789464,-11.733433509789462,images/picture_2.png,1,"[11.733433509789464, 11.733433509789462]",11.733433509789464,11.733433509789462,images/picture_3.png,2,"[11.733433509789462, -11.733433509789466]",11.733433509789462,-11.733433509789464,0,1,1,0.8518974897593568,1.8518974897593568,1.1481025102406432,3.0,1,1.6018974897593568,0,4.0,3.0,1,2,0,0,0,0,0,1,1,6,,,,,,,0.004912000033073127,157.64617941598408,157.64617941598408,158.65525033301674,158.98859624995384,158.98859624995384,158.98859624995384,159.25540587492287,160.13576291594654,160.13576291594654,160.13576291594654,160.13576291594654,161.13534549996257,4.505731625016779,200003,002,2023-03-22_12h57.58.405,DMS_et_12-36,2022.2.4,None,
0,PRED,12,0.8518974897593568,0,images/picture_1.png,images/picture_1.png,0,"[11.733433509789464, 11.733433509789462]",11.733433509789464,11.733433509789462,images/picture_2.png,1,"[-11.733433509789462, 11.733433509789464]",-11.733433509789462,11.733433509789464,images/picture_3.png,2,"[11.733433509789462, -11.733433509789466]",11.733433509789462,-11.733433509789464,0,1,1,0.8518974897593568,1.8518974897593568,1.1481025102406432,3.0,1,1.6018974897593568,0,4.0,3.0,1,2,0,0,0,0,0,2,2,0,,,,,,,0.005328166065737605,162.66505562502425,162.66505562502425,163.66899625002407,164.0024126250064,164.0024126250064,164.0024126250064,164.26917129103094,165.15526662499178,165.15526662499178,165.15526662499178,165.15526662499178,166.16891975002363,4.513226416078396,200003,002,2023-03-22_12h57.58.405,DMS_et_12-36,2022.2.4,None,
1,PRED,12,0.8518974897593568,0,images/picture_1.png,images/picture_1.png,0,"[-11.733433509789462, 11.733433509789464]",-11.733433509789462,11.733433509789464,images/picture_2.png,1,"[-11.733433509789466, -11.733433509789462]",-11.733433509789464,-11.733433509789462,images/picture_3.png,2,"[11.733433509789464, 11.733433509789462]",11.733433509789464,11.733433509789462,0,1,1,0.8518974897593568,1.8518974897593568,1.1481025102406432,3.0,1,1.6018974897593568,0,4.0,3.0,1,2,0,0,0,0,0,3,3,1,,,,,,,0.0038347080117091537,167.68952725001145,167.68952725001145,168.70252674992662,169.0221127079567,169.0221127079567,169.0221127079567,169.30257304094266,170.16931712499354,170.16931712499354,170.16931712499354,170.16931712499354,171.16919575002976,4.520476166973822,200003,002,2023-03-22_12h57.58.405,DMS_et_12-36,2022.2.4,None,
7,PRED,12,0.8518974897593568,0,images/picture_1.png,images/picture_1.png,0,"[-11.733433509789462, 11.733433509789464]",-11.733433509789462,11.733433509789464,images/picture_2.png,1,"[11.733433509789464, 11.733433509789462]",11.733433509789464,11.733433509789462,images/picture_3.png,2,"[11.733433509789462, -11.733433509789466]",11.733433509789462,-11.733433509789464,0,1,1,0.8518974897593568,1.8518974897593568,1.1481025102406432,3.0,1,1.6018974897593568,0,4.0,3.0,1,2,0,0,0,0,0,4,4,7,,,,,,,0.005255041993223131,172.7129581249319,172.7129581249319,173.72251154098194,174.05584445793647,174.05584445793647,174.05584445793647,174.32191679102834,175.20258966600522,175.20258966600522,175.20258966600522,175.20258966600522,176.20207533298526,4.506911292090081,200003,002,2023-03-22_12h57.58.405,DMS_et_12-36,2022.2.4,None,
3,PRED,12,0.8518974897593568,0,images/picture_1.png,images/picture_1.png,0,"[-11.733433509789462, 11.733433509789464]",-11.733433509789462,11.733433509789464,images/picture_2.png,1,"[-11.733433509789466, -11.733433509789462]",-11.733433509789464,-11.733433509789462,images/picture_3.png,2,"[11.733433509789462, -11.733433509789466]",11.733433509789462,-11.733433509789464,0,1,1,0.8518974897593568,1.8518974897593568,1.1481025102406432,3.0,1,1.6018974897593568,0,4.0,3.0,1,2,0,0,0,0,0,5,5,3,,,,,,,0.005273125017993152,177.73299862502608,177.73299862502608,178.7360021249624,179.0687030829722,179.0687030829722,179.0687030829722,179.3359641659772,180.22233575000428,180.22233575000428,180.22233575000428,180.22233575000428,181.2356567910174,4.512224124977365,200003,002,2023-03-22_12h57.58.405,DMS_et_12-36,2022.2.4,None,
8,PRED,12,0.8518974897593568,0,images/picture_1.png,images/picture_1.png,0,"[11.733433509789464, 11.733433509789462]",11.733433509789464,11.733433509789462,images/picture_2.png,1,"[11.733433509789462, -11.733433509789466]",11.733433509789462,-11.733433509789464,images/picture_3.png,2,"[-11.733433509789462, 11.733433509789464]",-11.733433509789462,11.733433509789464,0,1,1,0.8518974897593568,1.8518974897593568,1.1481025102406432,3.0,1,1.6018974897593568,0,4.0,3.0,1,2,0,0,0,0,0,6,6,8,,,,,,,0.003551792004145682,182.75392599997576,182.75392599997576,183.76922241598368,184.0890788329998,184.0890788329998,184.0890788329998,184.36921308294404,185.23562574991956,185.23562574991956,185.23562574991956,185.23562574991956,186.23551054100972,4.5209071669960395,200003,002,2023-03-22_12h57.58.405,DMS_et_12-36,2022.2.4,None,
5,PRED,12,0.8518974897593568,0,images/picture_1.png,images/picture_1.png,0,"[11.733433509789464, 11.733433509789462]",11.733433509789464,11.733433509789462,images/picture_2.png,1,"[-11.733433509789462, 11.733433509789464]",-11.733433509789462,11.733433509789464,images/picture_3.png,2,"[-11.733433509789466, -11.733433509789462]",-11.733433509789464,-11.733433509789462,0,1,1,0.8518974897593568,1.8518974897593568,1.1481025102406432,3.0,1,1.6018974897593568,0,4.0,3.0,1,2,0,0,0,0,0,7,7,5,,,,,,,0.005169832962565124,187.78184195794165,187.78184195794165,188.7885747909313,189.122453916003,189.122453916003,189.122453916003,189.38916012493428,190.2692969579948,190.2692969579948,190.2692969579948,190.2692969579948,191.26906245795544,4.506224624929018,200003,002,2023-03-22_12h57.58.405,DMS_et_12-36,2022.2.4,None,
2,PRED,12,0.8518974897593568,0,images/picture_1.png,images/picture_1.png,0,"[11.733433509789464, 11.733433509789462]",11.733433509789464,11.733433509789462,images/picture_2.png,1,"[-11.733433509789466, -11.733433509789462]",-11.733433509789464,-11.733433509789462,images/picture_3.png,2,"[-11.733433509789462, 11.733433509789464]",-11.733433509789462,11.733433509789464,0,1,1,0.8518974897593568,1.8518974897593568,1.1481025102406432,3.0,1,1.6018974897593568,0,4.0,3.0,1,2,0,0,0,0,0,8,8,2,,,,,,,0.005152042023837566,192.79962033301126,192.79962033301126,193.802189250011,194.13590649992693,194.13590649992693,194.13590649992693,194.4025268330006,195.28821816598065,195.28821816598065,195.28821816598065,195.28821816598065,196.30251033301465,4.511673750006594,200003,002,2023-03-22_12h57.58.405,DMS_et_12-36,2022.2.4,None,
,,,,,,,,,,,,,,,,,,,,,,,,,,,,,,,,,,,0,0,0,0,,,,,,,,,197.33901150000747,209.8663550829515,,,,,,,,,,,,,,,200003,002,2023-03-22_12h57.58.405,DMS_et_12-36,2022.2.4,None,
10,UNPRED,12,0.8518974897593568,1,images/picture_2.png,images/picture_1.png,0,"[-11.733433509789462, 11.733433509789464]",-11.733433509789462,11.733433509789464,images/picture_2.png,1,"[11.733433509789464, 11.733433509789462]",11.733433509789464,11.733433509789462,images/picture_3.png,2,"[11.733433509789462, -11.733433509789466]",11.733433509789462,-11.733433509789464,0,1,1,0.8518974897593568,1.8518974897593568,1.1481025102406432,3.0,1,1.6018974897593568,0,4.0,3.0,1,2,1,0,1,0,0,0,0,1,,,,,,,0.004702416947111487,209.8663550829515,209.8663550829515,210.86926162499003,211.20254883298185,211.20254883298185,211.20254883298185,211.46928520791698,212.35536874993704,212.35536874993704,212.35536874993704,212.35536874993704,213.36958195792977,4.507770832977258,200003,002,2023-03-22_12h57.58.405,DMS_et_12-36,2022.2.4,None,
17,UNPRED,12,0.8518974897593568,2,images/picture_3.png,images/picture_1.png,0,"[-11.733433509789462, 11.733433509789464]",-11.733433509789462,11.733433509789464,images/picture_2.png,1,"[-11.733433509789466, -11.733433509789462]",-11.733433509789464,-11.733433509789462,images/picture_3.png,2,"[11.733433509789462, -11.733433509789466]",11.733433509789462,-11.733433509789464,0,1,1,0.8518974897593568,1.8518974897593568,1.1481025102406432,3.0,1,1.6018974897593568,0,4.0,3.0,1,2,1,0,1,0,0,1,1,8,,,,,,,0.02984733402263373,214.90529937495012,214.90529937495012,215.902454999974,216.22137187502813,216.22137187502813,216.22137187502813,216.52183758292813,217.3690775409341,217.3690775409341,217.3690775409341,217.3690775409341,218.36918608297128,4.525170834036544,200003,002,2023-03-22_12h57.58.405,DMS_et_12-36,2022.2.4,None,
16,UNPRED,12,0.8518974897593568,1,images/picture_2.png,images/picture_1.png,0,"[11.733433509789464, 11.733433509789462]",11.733433509789464,11.733433509789462,images/picture_2.png,1,"[-11.733433509789466, -11.733433509789462]",-11.733433509789464,-11.733433509789462,images/picture_3.png,2,"[11.733433509789462, -11.733433509789466]",11.733433509789462,-11.733433509789464,0,1,1,0.8518974897593568,1.8518974897593568,1.1481025102406432,3.0,1,1.6018974897593568,0,4.0,3.0,1,2,1,0,1,0,0,2,2,7,,,,,,,0.00580575002823025,219.91548416600563,219.91548416600563,220.92263066594023,221.25541041593533,221.25541041593533,221.25541041593533,221.52236787497532,222.40266991592944,222.40266991592944,222.40266991592944,222.40266991592944,223.40257849998306,4.506922999978997,200003,002,2023-03-22_12h57.58.405,DMS_et_12-36,2022.2.4,None,
13,UNPRED,12,0.8518974897593568,0,images/picture_1.png,images/picture_1.png,0,"[-11.733433509789466, -11.733433509789462]",-11.733433509789464,-11.733433509789462,images/picture_2.png,1,"[11.733433509789464, 11.733433509789462]",11.733433509789464,11.733433509789462,images/picture_3.png,2,"[-11.733433509789462, 11.733433509789464]",-11.733433509789462,11.733433509789464,0,1,1,0.8518974897593568,1.8518974897593568,1.1481025102406432,3.0,1,1.6018974897593568,0,4.0,3.0,1,2,1,0,1,0,0,3,3,4,,,,,,,0.006091666989959776,224.93775045801885,224.93775045801885,225.9356150829699,226.26920262502972,226.26920262502972,226.26920262502972,226.55564179096837,227.42181570793036,227.42181570793036,227.42181570793036,227.42181570793036,228.4359988749493,4.5063297499436885,200003,002,2023-03-22_12h57.58.405,DMS_et_12-36,2022.2.4,None,
12,UNPRED,12,0.8518974897593568,1,images/picture_2.png,images/picture_1.png,0,"[11.733433509789462, -11.733433509789466]",11.733433509789462,-11.733433509789464,images/picture_2.png,1,"[11.733433509789464, 11.733433509789462]",11.733433509789464,11.733433509789462,images/picture_3.png,2,"[-11.733433509789462, 11.733433509789464]",-11.733433509789462,11.733433509789464,0,1,1,0.8518974897593568,1.8518974897593568,1.1481025102406432,3.0,1,1.6018974897593568,0,4.0,3.0,1,2,1,0,1,0,0,4,4,3,,,,,,,0.007839584024623036,229.9514839160256,229.9514839160256,230.95532283291686,231.28900154097937,231.28900154097937,231.28900154097937,231.5553484580014,232.43600124993827,232.43600124993827,232.43600124993827,232.43600124993827,233.43592766602524,4.505750959040597,200003,002,2023-03-22_12h57.58.405,DMS_et_12-36,2022.2.4,None,
9,UNPRED,12,0.8518974897593568,1,images/picture_2.png,images/picture_1.png,0,"[11.733433509789464, 11.733433509789462]",11.733433509789464,11.733433509789462,images/picture_2.png,1,"[11.733433509789462, -11.733433509789466]",11.733433509789462,-11.733433509789464,images/picture_3.png,2,"[-11.733433509789462, 11.733433509789464]",-11.733433509789462,11.733433509789464,0,1,1,0.8518974897593568,1.8518974897593568,1.1481025102406432,3.0,1,1.6018974897593568,0,4.0,3.0,1,2,1,0,1,0,0,5,5,0,,,,,,,0.007246167049743235,234.97068608296104,234.97068608296104,235.96953758294694,236.30267991602886,236.30267991602886,236.30267991602886,236.56949770799838,237.45493291597813,237.45493291597813,237.45493291597813,237.45493291597813,238.46909158292692,4.510265083052218,200003,002,2023-03-22_12h57.58.405,DMS_et_12-36,2022.2.4,None,
11,UNPRED,12,0.8518974897593568,0,images/picture_1.png,images/picture_1.png,0,"[11.733433509789464, 11.733433509789462]",11.733433509789464,11.733433509789462,images/picture_2.png,1,"[11.733433509789462, -11.733433509789466]",11.733433509789462,-11.733433509789464,images/picture_3.png,2,"[-11.733433509789462, 11.733433509789464]",-11.733433509789462,11.733433509789464,0,1,1,0.8518974897593568,1.8518974897593568,1.1481025102406432,3.0,1,1.6018974897593568,0,4.0,3.0,1,2,1,0,1,0,0,6,6,2,,,,,,,0.005200417013838887,239.99743658292573,239.99743658292573,241.0026629579952,241.32212991593406,241.32212991593406,241.32212991593406,241.60270070796832,242.4692257909337,242.4692257909337,242.4692257909337,242.4692257909337,243.4692370829871,4.522339083952829,200003,002,2023-03-22_12h57.58.405,DMS_et_12-36,2022.2.4,None,
15,UNPRED,12,0.8518974897593568,0,images/picture_1.png,images/picture_1.png,0,"[-11.733433509789466, -11.733433509789462]",-11.733433509789464,-11.733433509789462,images/picture_2.png,1,"[11.733433509789464, 11.733433509789462]",11.733433509789464,11.733433509789462,images/picture_3.png,2,"[11.733433509789462, -11.733433509789466]",11.733433509789462,-11.733433509789464,0,1,1,0.8518974897593568,1.8518974897593568,1.1481025102406432,3.0,1,1.6018974897593568,0,4.0,3.0,1,2,1,0,1,0,0,7,7,6,,,,,,,0.005055790999904275,245.02010079100728,245.02010079100728,246.02195854100864,246.35530275001656,246.35530275001656,246.35530275001656,246.63559700001497,247.50243637501262,247.50243637501262,247.50243637501262,247.50243637501262,248.50247449998278,4.506257125060074,200003,002,2023-03-22_12h57.58.405,DMS_et_12-36,2022.2.4,None,
14,UNPRED,12,0.8518974897593568,0,images/picture_1.png,images/picture_1.png,0,"[11.733433509789464, 11.733433509789462]",11.733433509789464,11.733433509789462,images/picture_2.png,1,"[-11.733433509789462, 11.733433509789464]",-11.733433509789462,11.733433509789464,images/picture_3.png,2,"[-11.733433509789466, -11.733433509789462]",-11.733433509789464,-11.733433509789462,0,1,1,0.8518974897593568,1.8518974897593568,1.1481025102406432,3.0,1,1.6018974897593568,0,4.0,3.0,1,2,1,0,1,0,0,8,8,5,,,,,,,0.004680000012740493,250.0363309159875,250.0363309159875,251.03593574999832,251.36941299994942,251.36941299994942,251.36941299994942,251.63593270792626,252.52209245797712,252.52209245797712,252.52209245797712,252.52209245797712,253.5360417079646,4.5130700840381905,200003,002,2023-03-22_12h57.58.405,DMS_et_12-36,2022.2.4,None,
,,,,,,,,,,,,,,,,,,,,,,,,,,,,,,,,,,,1,0,1,0,,,,,,,,,254.59080999996513,267.1478965829592,,,,,,,,,,,,,,,200003,002,2023-03-22_12h57.58.405,DMS_et_12-36,2022.2.4,None,
23,PRED,12,0.8518974897593568,2,images/picture_3.png,images/picture_1.png,0,"[11.733433509789462, -11.733433509789466]",11.733433509789462,-11.733433509789464,images/picture_2.png,1,"[-11.733433509789466, -11.733433509789462]",-11.733433509789464,-11.733433509789462,images/picture_3.png,2,"[-11.733433509789462, 11.733433509789464]",-11.733433509789462,11.733433509789464,0,1,1,0.8518974897593568,1.8518974897593568,1.1481025102406432,3.0,1,1.6018974897593568,0,4.0,3.0,1,2,2,0,2,0,0,0,0,5,,,,,,,0.015806791954673827,267.1478965829592,267.1478965829592,268.15481862495653,268.4691679159878,268.4691679159878,268.4691679159878,268.7547333749244,269.6221803749213,269.6221803749213,269.6221803749213,269.6221803749213,270.6361606660066,4.515919207944535,200003,002,2023-03-22_12h57.58.405,DMS_et_12-36,2022.2.4,None,
19,PRED,12,0.8518974897593568,2,images/picture_3.png,images/picture_1.png,0,"[11.733433509789462, -11.733433509789466]",11.733433509789462,-11.733433509789464,images/picture_2.png,1,"[11.733433509789464, 11.733433509789462]",11.733433509789464,11.733433509789462,images/picture_3.png,2,"[-11.733433509789462, 11.733433509789464]",-11.733433509789462,11.733433509789464,0,1,1,0.8518974897593568,1.8518974897593568,1.1481025102406432,3.0,1,1.6018974897593568,0,4.0,3.0,1,2,2,0,2,0,0,1,1,1,,,,,,,0.010547374957241118,272.17033820797224,272.17033820797224,273.1696892499458,273.5024438749533,273.5024438749533,273.5024438749533,273.76925812498666,274.65453937498387,274.65453937498387,274.65453937498387,274.65453937498387,275.66945337492507,4.5129322920693085,200003,002,2023-03-22_12h57.58.405,DMS_et_12-36,2022.2.4,None,
24,PRED,12,0.8518974897593568,2,images/picture_3.png,images/picture_1.png,0,"[11.733433509789462, -11.733433509789466]",11.733433509789462,-11.733433509789464,images/picture_2.png,1,"[-11.733433509789466, -11.733433509789462]",-11.733433509789464,-11.733433509789462,images/picture_3.png,2,"[11.733433509789464, 11.733433509789462]",11.733433509789464,11.733433509789462,0,1,1,0.8518974897593568,1.8518974897593568,1.1481025102406432,3.0,1,1.6018974897593568,0,4.0,3.0,1,2,2,0,2,0,0,2,2,6,,,,,,,0.018972457968629897,277.20143249991816,277.20143249991816,278.2024660409661,278.52187874994706,278.52187874994706,278.52187874994706,278.8025433330331,279.6689970829757,279.6689970829757,279.6689970829757,279.6689970829757,280.6694332079496,4.523058207938448,200003,002,2023-03-22_12h57.58.405,DMS_et_12-36,2022.2.4,None,
20,PRED,12,0.8518974897593568,2,images/picture_3.png,images/picture_1.png,0,"[11.733433509789464, 11.733433509789462]",11.733433509789464,11.733433509789462,images/picture_2.png,1,"[11.733433509789462, -11.733433509789466]",11.733433509789462,-11.733433509789464,images/picture_3.png,2,"[-11.733433509789466, -11.733433509789462]",-11.733433509789464,-11.733433509789462,0,1,1,0.8518974897593568,1.8518974897593568,1.1481025102406432,3.0,1,1.6018974897593568,0,4.0,3.0,1,2,2,0,2,0,0,3,3,2,,,,,,,0.022174333920702338,282.2317874999717,282.2317874999717,283.236299125012,283.55533941602334,283.55533941602334,283.55533941602334,283.83621550002135,284.70286979095545,284.70286979095545,284.70286979095545,284.70286979095545,285.7026012080023,4.5253282089252025,200003,002,2023-03-22_12h57.58.405,DMS_et_12-36,2022.2.4,None,
26,PRED,12,0.8518974897593568,2,images/picture_3.png,images/picture_1.png,0,"[11.733433509789464, 11.733433509789462]",11.733433509789464,11.733433509789462,images/picture_2.png,1,"[11.733433509789462, -11.733433509789466]",11.733433509789462,-11.733433509789464,images/picture_3.png,2,"[-11.733433509789466, -11.733433509789462]",-11.733433509789464,-11.733433509789462,0,1,1,0.8518974897593568,1.8518974897593568,1.1481025102406432,3.0,1,1.6018974897593568,0,4.0,3.0,1,2,2,0,2,0,0,4,4,8,,,,,,,0.021864374983124435,287.267810249934,287.267810249934,288.269473250024,288.5878462080145,288.5878462080145,288.5878462080145,288.8692144579254,289.73601391597185,289.73601391597185,289.73601391597185,289.73601391597185,290.73627674998716,4.526376000023447,200003,002,2023-03-22_12h57.58.405,DMS_et_12-36,2022.2.4,None,
21,PRED,12,0.8518974897593568,2,images/picture_3.png,images/picture_1.png,0,"[11.733433509789462, -11.733433509789466]",11.733433509789462,-11.733433509789464,images/picture_2.png,1,"[-11.733433509789462, 11.733433509789464]",-11.733433509789462,11.733433509789464,images/picture_3.png,2,"[-11.733433509789466, -11.733433509789462]",-11.733433509789464,-11.733433509789462,0,1,1,0.8518974897593568,1.8518974897593568,1.1481025102406432,3.0,1,1.6018974897593568,0,4.0,3.0,1,2,2,0,2,0,0,5,5,3,,,,,,,0.019315124955028296,292.3014175830176,292.3014175830176,293.302771333023,293.62219037499744,293.62219037499744,293.62219037499744,293.90283383300994,294.76929558301345,294.76929558301345,294.76929558301345,294.76929558301345,295.76970941596664,4.52342616696842,200003,002,2023-03-22_12h57.58.405,DMS_et_12-36,2022.2.4,None,
25,PRED,12,0.8518974897593568,2,images/picture_3.png,images/picture_1.png,0,"[11.733433509789464, 11.733433509789462]",11.733433509789464,11.733433509789462,images/picture_2.png,1,"[-11.733433509789462, 11.733433509789464]",-11.733433509789462,11.733433509789464,images/picture_3.png,2,"[11.733433509789462, -11.733433509789466]",11.733433509789462,-11.733433509789464,0,1,1,0.8518974897593568,1.8518974897593568,1.1481025102406432,3.0,1,1.6018974897593568,0,4.0,3.0,1,2,2,0,2,0,0,6,6,7,,,,,,,0.020736999926157296,297.32955491601024,297.32955491601024,298.33617587492336,298.65559791598935,298.65559791598935,298.65559791598935,298.93599133298267,299.80276716593653,299.80276716593653,299.80276716593653,299.80276716593653,300.80292774992995,4.526061124983244,200003,002,2023-03-22_12h57.58.405,DMS_et_12-36,2022.2.4,None,
22,PRED,12,0.8518974897593568,2,images/picture_3.png,images/picture_1.png,0,"[-11.733433509789462, 11.733433509789464]",-11.733433509789462,11.733433509789464,images/picture_2.png,1,"[-11.733433509789466, -11.733433509789462]",-11.733433509789464,-11.733433509789462,images/picture_3.png,2,"[11.733433509789462, -11.733433509789466]",11.733433509789462,-11.733433509789464,0,1,1,0.8518974897593568,1.8518974897593568,1.1481025102406432,3.0,1,1.6018974897593568,0,4.0,3.0,1,2,2,0,2,0,0,7,7,4,,,,,,,0.020805959007702768,302.3688011659542,302.3688011659542,303.36950816598255,303.68871441599913,303.68871441599913,303.68871441599913,303.969469957985,304.83617470797617,304.83617470797617,304.83617470797617,304.83617470797617,305.83616249996703,4.525677334051579,200003,002,2023-03-22_12h57.58.405,DMS_et_12-36,2022.2.4,None,
18,PRED,12,0.8518974897593568,2,images/picture_3.png,images/picture_1.png,0,"[11.733433509789464, 11.733433509789462]",11.733433509789464,11.733433509789462,images/picture_2.png,1,"[-11.733433509789462, 11.733433509789464]",-11.733433509789462,11.733433509789464,images/picture_3.png,2,"[-11.733433509789466, -11.733433509789462]",-11.733433509789464,-11.733433509789462,0,1,1,0.8518974897593568,1.8518974897593568,1.1481025102406432,3.0,1,1.6018974897593568,0,4.0,3.0,1,2,2,0,2,0,0,8,8,0,,,,,,,0.018298499984666705,307.40262270800304,307.40262270800304,308.40294970793184,308.72234637499787,308.72234637499787,308.72234637499787,309.00296270800754,309.86916591599584,309.86916591599584,309.86916591599584,309.86916591599584,310.8694745829562,4.521703792037442,200003,002,2023-03-22_12h57.58.405,DMS_et_12-36,2022.2.4,None,
,,,,,,,,,,,,,,,,,,,,,,,,,,,,,,,,,,,2,0,2,0,,,,,,,,,311.9656440409599,324.50923662493005,,,,,,,,,,,,,,,200003,002,2023-03-22_12h57.58.405,DMS_et_12-36,2022.2.4,None,
34,UNPRED,12,0.8518974897593568,2,images/picture_3.png,images/picture_1.png,0,"[11.733433509789464, 11.733433509789462]",11.733433509789464,11.733433509789462,images/picture_2.png,1,"[-11.733433509789462, 11.733433509789464]",-11.733433509789462,11.733433509789464,images/picture_3.png,2,"[11.733433509789462, -11.733433509789466]",11.733433509789462,-11.733433509789464,0,1,1,0.8518974897593568,1.8518974897593568,1.1481025102406432,3.0,1,1.6018974897593568,0,4.0,3.0,1,2,3,0,3,0,0,0,0,7,,,,,,,0.013189124991185963,324.50923662493005,324.50923662493005,325.5224672909826,325.8363020409597,325.8363020409597,325.8363020409597,326.1223450829275,326.9889595829882,326.9889595829882,326.9889595829882,326.9889595829882,328.0026203750167,4.520471791969612,200003,002,2023-03-22_12h57.58.405,DMS_et_12-36,2022.2.4,None,
27,UNPRED,12,0.8518974897593568,2,images/picture_3.png,images/picture_1.png,0,"[11.733433509789462, -11.733433509789466]",11.733433509789462,-11.733433509789464,images/picture_2.png,1,"[-11.733433509789462, 11.733433509789464]",-11.733433509789462,11.733433509789464,images/picture_3.png,2,"[11.733433509789464, 11.733433509789462]",11.733433509789464,11.733433509789462,0,1,1,0.8518974897593568,1.8518974897593568,1.1481025102406432,3.0,1,1.6018974897593568,0,4.0,3.0,1,2,3,0,3,0,0,1,1,0,,,,,,,0.020194165990687907,329.5479164579883,329.5479164579883,330.5551174579887,330.86982116592117,330.86982116592117,330.86982116592117,331.1550707499264,332.022055957932,332.022055957932,332.022055957932,332.022055957932,333.03657529095653,4.526476750033908,200003,002,2023-03-22_12h57.58.405,DMS_et_12-36,2022.2.4,None,
35,UNPRED,12,0.8518974897593568,1,images/picture_2.png,images/picture_1.png,0,"[11.733433509789462, -11.733433509789466]",11.733433509789462,-11.733433509789464,images/picture_2.png,1,"[-11.733433509789462, 11.733433509789464]",-11.733433509789462,11.733433509789464,images/picture_3.png,2,"[11.733433509789464, 11.733433509789462]",11.733433509789464,11.733433509789462,0,1,1,0.8518974897593568,1.8518974897593568,1.1481025102406432,3.0,1,1.6018974897593568,0,4.0,3.0,1,2,3,0,3,0,0,2,2,8,,,,,,,0.004346500034444034,334.56936929095536,334.56936929095536,335.5694992080098,335.90297204093076,335.90297204093076,335.90297204093076,336.1697119579185,337.05538095801603,337.05538095801603,337.05538095801603,337.05538095801603,338.06935250002425,4.508470791974105,200003,002,2023-03-22_12h57.58.405,DMS_et_12-36,2022.2.4,None,
28,UNPRED,12,0.8518974897593568,0,images/picture_1.png,images/picture_1.png,0,"[-11.733433509789466, -11.733433509789462]",-11.733433509789464,-11.733433509789462,images/picture_2.png,1,"[11.733433509789464, 11.733433509789462]",11.733433509789464,11.733433509789462,images/picture_3.png,2,"[11.733433509789462, -11.733433509789466]",11.733433509789462,-11.733433509789464,0,1,1,0.8518974897593568,1.8518974897593568,1.1481025102406432,3.0,1,1.6018974897593568,0,4.0,3.0,1,2,3,0,3,0,0,3,3,1,,,,,,,0.007587999920360744,339.59328220796306,339.59328220796306,340.6025741660269,340.9214934159536,340.9214934159536,340.9214934159536,341.20277904102113,342.06968724995386,342.06968724995386,342.06968724995386,342.06968724995386,343.06967345799785,4.526356332935393,200003,002,2023-03-22_12h57.58.405,DMS_et_12-36,2022.2.4,None,
31,UNPRED,12,0.8518974897593568,0,images/picture_1.png,images/picture_1.png,0,"[11.733433509789462, -11.733433509789466]",11.733433509789462,-11.733433509789464,images/picture_2.png,1,"[11.733433509789464, 11.733433509789462]",11.733433509789464,11.733433509789462,images/picture_3.png,2,"[-11.733433509789462, 11.733433509789464]",-11.733433509789462,11.733433509789464,0,1,1,0.8518974897593568,1.8518974897593568,1.1481025102406432,3.0,1,1.6018974897593568,0,4.0,3.0,1,2,3,0,3,0,0,4,4,4,,,,,,,0.003200334031134844,344.6218657080317,344.6218657080317,345.63603495794814,345.95616120798513,345.95616120798513,345.95616120798513,346.23622841597535,347.1025505409343,347.1025505409343,347.1025505409343,347.1025505409343,348.10309999994934,4.523788792081177,200003,002,2023-03-22_12h57.58.405,DMS_et_12-36,2022.2.4,None,
33,UNPRED,12,0.8518974897593568,0,images/picture_1.png,images/picture_1.png,0,"[-11.733433509789466, -11.733433509789462]",-11.733433509789464,-11.733433509789462,images/picture_2.png,1,"[11.733433509789462, -11.733433509789466]",11.733433509789462,-11.733433509789464,images/picture_3.png,2,"[-11.733433509789462, 11.733433509789464]",-11.733433509789462,11.733433509789464,0,1,1,0.8518974897593568,1.8518974897593568,1.1481025102406432,3.0,1,1.6018974897593568,0,4.0,3.0,1,2,3,0,3,0,0,5,5,6,,,,,,,0.005029000109061599,349.64932758302893,349.64932758302893,350.65496637497563,350.9882834999589,350.9882834999589,350.9882834999589,351.2550680829445,352.1364737499971,352.1364737499971,352.1364737499971,352.1364737499971,353.1359296250157,4.505324750090949,200003,002,2023-03-22_12h57.58.405,DMS_et_12-36,2022.2.4,None,
30,UNPRED,12,0.8518974897593568,2,images/picture_3.png,images/picture_1.png,0,"[11.733433509789462, -11.733433509789466]",11.733433509789462,-11.733433509789464,images/picture_2.png,1,"[-11.733433509789462, 11.733433509789464]",-11.733433509789462,11.733433509789464,images/picture_3.png,2,"[11.733433509789464, 11.733433509789462]",11.733433509789464,11.733433509789462,0,1,1,0.8518974897593568,1.8518974897593568,1.1481025102406432,3.0,1,1.6018974897593568,0,4.0,3.0,1,2,3,0,3,0,0,6,6,3,,,,,,,0.023871291079558432,354.6856499159476,354.6856499159476,355.6891364159528,356.00291120796464,356.00291120796464,356.00291120796464,356.3029845409328,357.15590549993794,357.15590549993794,357.15590549993794,357.15590549993794,358.16964395798277,4.526215500081889,200003,002,2023-03-22_12h57.58.405,DMS_et_12-36,2022.2.4,None,
29,UNPRED,12,0.8518974897593568,0,images/picture_1.png,images/picture_1.png,0,"[-11.733433509789466, -11.733433509789462]",-11.733433509789464,-11.733433509789462,images/picture_2.png,1,"[-11.733433509789462, 11.733433509789464]",-11.733433509789462,11.733433509789464,images/picture_3.png,2,"[11.733433509789464, 11.733433509789462]",11.733433509789464,11.733433509789462,0,1,1,0.8518974897593568,1.8518974897593568,1.1481025102406432,3.0,1,1.6018974897593568,0,4.0,3.0,1,2,3,0,3,0,0,7,7,2,,,,,,,0.006021582987159491,359.70365020795725,359.70365020795725,360.7025267910212,361.0359712499194,361.0359712499194,361.0359712499194,361.3027832079679,362.18879816599656,362.18879816599656,362.18879816599656,362.18879816599656,363.2029769580113,4.508022624999285,200003,002,2023-03-22_12h57.58.405,DMS_et_12-36,2022.2.4,None,
32,UNPRED,12,0.8518974897593568,0,images/picture_1.png,images/picture_1.png,0,"[-11.733433509789462, 11.733433509789464]",-11.733433509789462,11.733433509789464,images/picture_2.png,1,"[11.733433509789464, 11.733433509789462]",11.733433509789464,11.733433509789462,images/picture_3.png,2,"[11.733433509789462, -11.733433509789466]",11.733433509789462,-11.733433509789464,0,1,1,0.8518974897593568,1.8518974897593568,1.1481025102406432,3.0,1,1.6018974897593568,0,4.0,3.0,1,2,3,0,3,0,0,8,8,5,,,,,,,0.00491004204377532,364.7143514159834,364.7143514159834,365.72245345800184,366.0560355000198,366.0560355000198,366.0560355000198,366.3226357080275,367.20297008298803,367.20297008298803,367.20297008298803,367.20297008298803,368.2026892079739,4.506934792036191,200003,002,2023-03-22_12h57.58.405,DMS_et_12-36,2022.2.4,None,
,,,,,,,,,,,,,,,,,,,,,,,,,,,,,,,,,,,3,0,3,0,,,,,,,,,369.2897029159358,381.8204397909576,,,,,,,,,,,,,,,200003,002,2023-03-22_12h57.58.405,DMS_et_12-36,2022.2.4,None,
38,PRED,12,0.8518974897593568,1,images/picture_2.png,images/picture_1.png,0,"[11.733433509789464, 11.733433509789462]",11.733433509789464,11.733433509789462,images/picture_2.png,1,"[-11.733433509789462, 11.733433509789464]",-11.733433509789462,11.733433509789464,images/picture_3.png,2,"[-11.733433509789466, -11.733433509789462]",-11.733433509789464,-11.733433509789462,0,1,1,0.8518974897593568,1.8518974897593568,1.1481025102406432,3.0,1,1.6018974897593568,0,4.0,3.0,1,2,4,0,4,0,0,0,0,2,,,,,,,0.0027883750153705478,381.8204397909576,381.8204397909576,382.8226112499833,383.1696643329924,383.1696643329924,383.1696643329924,383.4362440829864,384.32248829095624,384.32248829095624,384.32248829095624,384.30300558300223,385.3027588749537,4.500921832979657,200003,002,2023-03-22_12h57.58.405,DMS_et_12-36,2022.2.4,None,
41,PRED,12,0.8518974897593568,1,images/picture_2.png,images/picture_1.png,0,"[-11.733433509789466, -11.733433509789462]",-11.733433509789464,-11.733433509789462,images/picture_2.png,1,"[-11.733433509789462, 11.733433509789464]",-11.733433509789462,11.733433509789464,images/picture_3.png,2,"[11.733433509789464, 11.733433509789462]",11.733433509789464,11.733433509789462,0,1,1,0.8518974897593568,1.8518974897593568,1.1481025102406432,3.0,1,1.6018974897593568,0,4.0,3.0,1,2,4,0,4,0,0,1,1,5,,,,,,,0.005320540978573263,386.8381427079439,386.8381427079439,387.8364534159191,388.16942045802716,388.16942045802716,388.16942045802716,388.43657437502407,389.3228753330186,389.3228753330186,389.3228753330186,389.3228753330186,390.33643391600344,4.507419624947943,200003,002,2023-03-22_12h57.58.405,DMS_et_12-36,2022.2.4,None,
36,PRED,12,0.8518974897593568,1,images/picture_2.png,images/picture_1.png,0,"[-11.733433509789462, 11.733433509789464]",-11.733433509789462,11.733433509789464,images/picture_2.png,1,"[11.733433509789464, 11.733433509789462]",11.733433509789464,11.733433509789462,images/picture_3.png,2,"[-11.733433509789466, -11.733433509789462]",-11.733433509789464,-11.733433509789462,0,1,1,0.8518974897593568,1.8518974897593568,1.1481025102406432,3.0,1,1.6018974897593568,0,4.0,3.0,1,2,4,0,4,0,0,2,2,0,,,,,,,0.004224833101034164,391.8423724999884,391.8423724999884,392.8560177079635,393.189052957925,393.189052957925,393.189052957925,393.4559415830299,394.3370267499704,394.3370267499704,394.3370267499704,394.3370267499704,395.33643895795103,4.508001250098459,200003,002,2023-03-22_12h57.58.405,DMS_et_12-36,2022.2.4,None,
44,PRED,12,0.8518974897593568,1,images/picture_2.png,images/picture_1.png,0,"[-11.733433509789462, 11.733433509789464]",-11.733433509789462,11.733433509789464,images/picture_2.png,1,"[-11.733433509789466, -11.733433509789462]",-11.733433509789464,-11.733433509789462,images/picture_3.png,2,"[11.733433509789462, -11.733433509789466]",11.733433509789462,-11.733433509789464,0,1,1,0.8518974897593568,1.8518974897593568,1.1481025102406432,3.0,1,1.6018974897593568,0,4.0,3.0,1,2,4,0,4,0,0,3,3,8,,,,,,,0.0075004169484600425,396.8719291660236,396.8719291660236,397.8697368330322,398.20279499993194,398.20279499993194,398.20279499993194,398.4893637909554,399.356181290932,399.356181290932,399.356181290932,399.356181290932,400.3698342909338,4.5098914169939235,200003,002,2023-03-22_12h57.58.405,DMS_et_12-36,2022.2.4,None,
42,PRED,12,0.8518974897593568,1,images/picture_2.png,images/picture_1.png,0,"[-11.733433509789466, -11.733433509789462]",-11.733433509789464,-11.733433509789462,images/picture_2.png,1,"[11.733433509789462, -11.733433509789466]",11.733433509789462,-11.733433509789464,images/picture_3.png,2,"[11.733433509789464, 11.733433509789462]",11.733433509789464,11.733433509789462,0,1,1,0.8518974897593568,1.8518974897593568,1.1481025102406432,3.0,1,1.6018974897593568,0,4.0,3.0,1,2,4,0,4,0,0,4,4,6,,,,,,,0.0025556249311193824,401.88275483297184,401.88275483297184,402.88919124996755,403.22324533294886,403.22324533294886,403.22324533294886,403.48937941598706,404.36984866601415,404.36984866601415,404.36984866601415,404.36984866601415,405.3697737499606,4.504204915952869,200003,002,2023-03-22_12h57.58.405,DMS_et_12-36,2022.2.4,None,
40,PRED,12,0.8518974897593568,1,images/picture_2.png,images/picture_1.png,0,"[11.733433509789464, 11.733433509789462]",11.733433509789464,11.733433509789462,images/picture_2.png,1,"[11.733433509789462, -11.733433509789466]",11.733433509789462,-11.733433509789464,images/picture_3.png,2,"[-11.733433509789462, 11.733433509789464]",-11.733433509789462,11.733433509789464,0,1,1,0.8518974897593568,1.8518974897593568,1.1481025102406432,3.0,1,1.6018974897593568,0,4.0,3.0,1,2,4,0,4,0,0,5,5,4,,,,,,,0.006696042022667825,406.89697200001683,406.89697200001683,407.9031157080317,408.2362826250028,408.2362826250028,408.2362826250028,408.50307883298956,409.38900550000835,409.38900550000835,409.38900550000835,409.38900550000835,410.4031964580063,4.511454625055194,200003,002,2023-03-22_12h57.58.405,DMS_et_12-36,2022.2.4,None,
43,PRED,12,0.8518974897593568,1,images/picture_2.png,images/picture_1.png,0,"[-11.733433509789462, 11.733433509789464]",-11.733433509789462,11.733433509789464,images/picture_2.png,1,"[-11.733433509789466, -11.733433509789462]",-11.733433509789464,-11.733433509789462,images/picture_3.png,2,"[11.733433509789462, -11.733433509789466]",11.733433509789462,-11.733433509789464,0,1,1,0.8518974897593568,1.8518974897593568,1.1481025102406432,3.0,1,1.6018974897593568,0,4.0,3.0,1,2,4,0,4,0,0,6,6,7,,,,,,,0.006220749928615987,411.9183958750218,411.9183958750218,412.9229809580138,413.2904185829684,413.2904185829684,413.2904185829684,413.5223576249555,414.43650370801333,414.43650370801333,414.43650370801333,414.4029795000097,415.40317320800386,4.506387166911736,200003,002,2023-03-22_12h57.58.405,DMS_et_12-36,2022.2.4,None,
37,PRED,12,0.8518974897593568,1,images/picture_2.png,images/picture_1.png,0,"[11.733433509789462, -11.733433509789466]",11.733433509789462,-11.733433509789464,images/picture_2.png,1,"[-11.733433509789466, -11.733433509789462]",-11.733433509789464,-11.733433509789462,images/picture_3.png,2,"[-11.733433509789462, 11.733433509789464]",-11.733433509789462,11.733433509789464,0,1,1,0.8518974897593568,1.8518974897593568,1.1481025102406432,3.0,1,1.6018974897593568,0,4.0,3.0,1,2,4,0,4,0,0,7,7,1,,,,,,,0.005064666969701648,416.9369113330031,416.9369113330031,417.93627137492876,418.26976745796856,418.26976745796856,418.26976745796856,418.5364427079912,419.4226957500214,419.4226957500214,419.4226957500214,419.4226957500214,420.4364953750046,4.506426166975871,200003,002,2023-03-22_12h57.58.405,DMS_et_12-36,2022.2.4,None,
39,PRED,12,0.8518974897593568,1,images/picture_2.png,images/picture_1.png,0,"[11.733433509789462, -11.733433509789466]",11.733433509789462,-11.733433509789464,images/picture_2.png,1,"[-11.733433509789462, 11.733433509789464]",-11.733433509789462,11.733433509789464,images/picture_3.png,2,"[11.733433509789464, 11.733433509789462]",11.733433509789464,11.733433509789462,0,1,1,0.8518974897593568,1.8518974897593568,1.1481025102406432,3.0,1,1.6018974897593568,0,4.0,3.0,1,2,4,0,4,0,0,8,8,3,,,,,,,0.006743915961124003,421.94833566597663,421.94833566597663,422.9549986659549,423.28980124997906,423.28980124997906,423.28980124997906,423.55631941591855,424.43647474993486,424.43647474993486,424.43647474993486,424.43647474993486,425.436432040995,4.505969457910396,200003,002,2023-03-22_12h57.58.405,DMS_et_12-36,2022.2.4,None,
,,,,,,,,,,,,,,,,,,,,,,,,,,,,,,,,,,,4,0,4,0,,,,,,,,,426.53366537496913,439.0787125410279,,,,,,,,,,,,,,,200003,002,2023-03-22_12h57.58.405,DMS_et_12-36,2022.2.4,None,
47,UNPRED,12,0.8518974897593568,1,images/picture_2.png,images/picture_1.png,0,"[-11.733433509789466, -11.733433509789462]",-11.733433509789464,-11.733433509789462,images/picture_2.png,1,"[11.733433509789462, -11.733433509789466]",11.733433509789462,-11.733433509789464,images/picture_3.png,2,"[-11.733433509789462, 11.733433509789464]",-11.733433509789462,11.733433509789464,0,1,1,0.8518974897593568,1.8518974897593568,1.1481025102406432,3.0,1,1.6018974897593568,0,4.0,3.0,1,2,5,0,5,0,0,0,0,2,,,,,,,0.0032778329914435744,439.0787125410279,439.0787125410279,440.08885020797607,440.4229321660241,440.4229321660241,440.4229321660241,440.68960658297874,441.56962287495844,441.56962287495844,441.56962287495844,441.56962287495844,442.56966208294034,4.511750250007026,200003,002,2023-03-22_12h57.58.405,DMS_et_12-36,2022.2.4,None,
48,UNPRED,12,0.8518974897593568,1,images/picture_2.png,images/picture_1.png,0,"[-11.733433509789462, 11.733433509789464]",-11.733433509789462,11.733433509789464,images/picture_2.png,1,"[11.733433509789462, -11.733433509789466]",11.733433509789462,-11.733433509789464,images/picture_3.png,2,"[-11.733433509789466, -11.733433509789462]",-11.733433509789464,-11.733433509789462,0,1,1,0.8518974897593568,1.8518974897593568,1.1481025102406432,3.0,1,1.6018974897593568,0,4.0,3.0,1,2,5,0,5,0,0,1,1,3,,,,,,,0.005201999912969768,444.10063879098743,444.10063879098743,445.10329183295835,445.4365160409361,445.4365160409361,445.4365160409361,445.7031213749433,446.58958412497304,446.58958412497304,446.58958412497304,446.58958412497304,447.60283983300906,4.508702499908395,200003,002,2023-03-22_12h57.58.405,DMS_et_12-36,2022.2.4,None,
46,UNPRED,12,0.8518974897593568,1,images/picture_2.png,images/picture_1.png,0,"[-11.733433509789466, -11.733433509789462]",-11.733433509789464,-11.733433509789462,images/picture_2.png,1,"[-11.733433509789462, 11.733433509789464]",-11.733433509789462,11.733433509789464,images/picture_3.png,2,"[11.733433509789462, -11.733433509789466]",11.733433509789462,-11.733433509789464,0,1,1,0.8518974897593568,1.8518974897593568,1.1481025102406432,3.0,1,1.6018974897593568,0,4.0,3.0,1,2,5,0,5,0,0,2,2,1,,,,,,,0.005919874995015562,449.1197462909622,449.1197462909622,450.12325570802204,450.4563290409278,450.4563290409278,450.4563290409278,450.73627729096916,451.6032520829467,451.6032520829467,451.6032520829467,451.6032520829467,452.6033374579856,4.504755208967254,200003,002,2023-03-22_12h57.58.405,DMS_et_12-36,2022.2.4,None,
53,UNPRED,12,0.8518974897593568,0,images/picture_1.png,images/picture_1.png,0,"[-11.733433509789462, 11.733433509789464]",-11.733433509789462,11.733433509789464,images/picture_2.png,1,"[11.733433509789462, -11.733433509789466]",11.733433509789462,-11.733433509789464,images/picture_3.png,2,"[11.733433509789464, 11.733433509789462]",11.733433509789464,11.733433509789462,0,1,1,0.8518974897593568,1.8518974897593568,1.1481025102406432,3.0,1,1.6018974897593568,0,4.0,3.0,1,2,5,0,5,0,0,3,3,8,,,,,,,0.0025323330191895366,454.1329319579527,454.1329319579527,455.13621220795903,455.4697334159864,455.4697334159864,455.4697334159864,455.7364995829994,456.62262070795987,456.62262070795987,456.62262070795987,456.62262070795987,457.63655279099476,4.509216208010912,200003,002,2023-03-22_12h57.58.405,DMS_et_12-36,2022.2.4,None,
51,UNPRED,12,0.8518974897593568,0,images/picture_1.png,images/picture_1.png,0,"[11.733433509789464, 11.733433509789462]",11.733433509789464,11.733433509789462,images/picture_2.png,1,"[-11.733433509789462, 11.733433509789464]",-11.733433509789462,11.733433509789464,images/picture_3.png,2,"[11.733433509789462, -11.733433509789466]",11.733433509789462,-11.733433509789464,0,1,1,0.8518974897593568,1.8518974897593568,1.1481025102406432,3.0,1,1.6018974897593568,0,4.0,3.0,1,2,5,0,5,0,0,4,4,6,,,,,,,0.005034375004470348,459.1479775829939,459.1479775829939,460.1564299579477,460.4890694579808,460.4890694579808,460.4890694579808,460.7561094999546,461.6362522909185,461.6362522909185,461.6362522909185,461.6362522909185,462.63610845792573,4.505494292010553,200003,002,2023-03-22_12h57.58.405,DMS_et_12-36,2022.2.4,None,
49,UNPRED,12,0.8518974897593568,2,images/picture_3.png,images/picture_1.png,0,"[11.733433509789462, -11.733433509789466]",11.733433509789462,-11.733433509789464,images/picture_2.png,1,"[-11.733433509789466, -11.733433509789462]",-11.733433509789464,-11.733433509789462,images/picture_3.png,2,"[11.733433509789464, 11.733433509789462]",11.733433509789464,11.733433509789462,0,1,1,0.8518974897593568,1.8518974897593568,1.1481025102406432,3.0,1,1.6018974897593568,0,4.0,3.0,1,2,5,0,5,0,0,5,5,4,,,,,,,0.012305374955758452,464.1710431659594,464.1710431659594,465.1697882079752,465.5029952499317,465.5029952499317,465.5029952499317,465.76956674992107,466.6562120409217,466.6562120409217,466.6562120409217,466.6562120409217,467.66953549999744,4.514689916977659,200003,002,2023-03-22_12h57.58.405,DMS_et_12-36,2022.2.4,None,
50,UNPRED,12,0.8518974897593568,0,images/picture_1.png,images/picture_1.png,0,"[11.733433509789462, -11.733433509789466]",11.733433509789462,-11.733433509789464,images/picture_2.png,1,"[-11.733433509789466, -11.733433509789462]",-11.733433509789464,-11.733433509789462,images/picture_3.png,2,"[-11.733433509789462, 11.733433509789464]",-11.733433509789462,11.733433509789464,0,1,1,0.8518974897593568,1.8518974897593568,1.1481025102406432,3.0,1,1.6018974897593568,0,4.0,3.0,1,2,5,0,5,0,0,6,6,5,,,,,,,0.006133874994702637,469.1908268749248,469.1908268749248,470.20264316594694,470.53628804092295,470.53628804092295,470.53628804092295,470.80301391601097,471.68871808296535,471.68871808296535,471.68871808296535,471.6692300409777,472.66974216594826,4.519841792061925,200003,002,2023-03-22_12h57.58.405,DMS_et_12-36,2022.2.4,None,
45,UNPRED,12,0.8518974897593568,1,images/picture_2.png,images/picture_1.png,0,"[-11.733433509789466, -11.733433509789462]",-11.733433509789464,-11.733433509789462,images/picture_2.png,1,"[11.733433509789462, -11.733433509789466]",11.733433509789462,-11.733433509789464,images/picture_3.png,2,"[11.733433509789464, 11.733433509789462]",11.733433509789464,11.733433509789462,0,1,1,0.8518974897593568,1.8518974897593568,1.1481025102406432,3.0,1,1.6018974897593568,0,4.0,3.0,1,2,5,0,5,0,0,7,7,0,,,,,,,0.006131958100013435,474.2128018749645,474.2128018749645,475.2227062910097,475.5555806659395,475.5555806659395,475.5555806659395,475.8224286249606,476.70303958293516,476.70303958293516,476.70303958293516,476.70303958293516,477.7027046249714,4.5080402080202475,200003,002,2023-03-22_12h57.58.405,DMS_et_12-36,2022.2.4,None,
52,UNPRED,12,0.8518974897593568,0,images/picture_1.png,images/picture_1.png,0,"[11.733433509789462, -11.733433509789466]",11.733433509789462,-11.733433509789464,images/picture_2.png,1,"[-11.733433509789462, 11.733433509789464]",-11.733433509789462,11.733433509789464,images/picture_3.png,2,"[11.733433509789464, 11.733433509789462]",11.733433509789464,11.733433509789462,0,1,1,0.8518974897593568,1.8518974897593568,1.1481025102406432,3.0,1,1.6018974897593568,0,4.0,3.0,1,2,5,0,5,0,0,8,8,7,,,,,,,0.005881707998923957,479.23540875001345,479.23540875001345,480.2363441659836,480.5694121660199,480.5694121660199,480.5694121660199,480.836284082965,481.7220344999805,481.7220344999805,481.7220344999805,481.7220344999805,482.73649591591675,4.511984292068519,200003,002,2023-03-22_12h57.58.405,DMS_et_12-36,2022.2.4,None,
,,,,,,,,,,,,,,,,,,,,,,,,,,,,,,,,,,,5,0,5,0,,,,,,,,,483.79997937497683,496.34838054096326,,,,,,,,,,,,,,,200003,002,2023-03-22_12h57.58.405,DMS_et_12-36,2022.2.4,None,
60,PRED,12,0.8518974897593568,2,images/picture_3.png,images/picture_1.png,0,"[11.733433509789464, 11.733433509789462]",11.733433509789464,11.733433509789462,images/picture_2.png,1,"[-11.733433509789462, 11.733433509789464]",-11.733433509789462,11.733433509789464,images/picture_3.png,2,"[11.733433509789462, -11.733433509789466]",11.733433509789462,-11.733433509789464,0,1,1,0.8518974897593568,1.8518974897593568,1.1481025102406432,3.0,1,1.6018974897593568,0,4.0,3.0,1,2,6,0,6,0,0,0,0,6,,,,,,,0.014055624953471124,496.34838054096326,496.34838054096326,497.3549490409205,497.68936291593127,497.68936291593127,497.68936291593127,497.95588549994864,498.8362393749412,498.8362393749412,498.8362393749412,498.8362393749412,499.8364972079871,4.51365583401639,200003,002,2023-03-22_12h57.58.405,DMS_et_12-36,2022.2.4,None,
55,PRED,12,0.8518974897593568,2,images/picture_3.png,images/picture_1.png,0,"[11.733433509789462, -11.733433509789466]",11.733433509789462,-11.733433509789464,images/picture_2.png,1,"[-11.733433509789466, -11.733433509789462]",-11.733433509789464,-11.733433509789462,images/picture_3.png,2,"[-11.733433509789462, 11.733433509789464]",-11.733433509789462,11.733433509789464,0,1,1,0.8518974897593568,1.8518974897593568,1.1481025102406432,3.0,1,1.6018974897593568,0,4.0,3.0,1,2,6,0,6,0,0,1,1,1,,,,,,,0.02108658303041011,501.38906629092526,501.38906629092526,502.4029820410069,502.70294300001115,502.70294300001115,502.70294300001115,503.00297987496015,503.8543458749773,503.8543458749773,503.8543458749773,503.8543458749773,504.8699104159605,4.543131625046954,200003,002,2023-03-22_12h57.58.405,DMS_et_12-36,2022.2.4,None,
54,PRED,12,0.8518974897593568,2,images/picture_3.png,images/picture_1.png,0,"[11.733433509789464, 11.733433509789462]",11.733433509789464,11.733433509789462,images/picture_2.png,1,"[11.733433509789462, -11.733433509789466]",11.733433509789462,-11.733433509789464,images/picture_3.png,2,"[-11.733433509789462, 11.733433509789464]",-11.733433509789462,11.733433509789464,0,1,1,0.8518974897593568,1.8518974897593568,1.1481025102406432,3.0,1,1.6018974897593568,0,4.0,3.0,1,2,6,0,6,0,0,2,2,0,,,,,,,0.021052083000540733,506.4357096250169,506.4357096250169,507.43625995796174,507.75647916598246,507.75647916598246,507.75647916598246,508.0365918750176,508.9027554159984,508.9027554159984,508.9027554159984,508.9027554159984,509.9029854160035,4.526927124941722,200003,002,2023-03-22_12h57.58.405,DMS_et_12-36,2022.2.4,None,
61,PRED,12,0.8518974897593568,2,images/picture_3.png,images/picture_1.png,0,"[11.733433509789462, -11.733433509789466]",11.733433509789462,-11.733433509789464,images/picture_2.png,1,"[-11.733433509789462, 11.733433509789464]",-11.733433509789462,11.733433509789464,images/picture_3.png,2,"[-11.733433509789466, -11.733433509789462]",-11.733433509789464,-11.733433509789462,0,1,1,0.8518974897593568,1.8518974897593568,1.1481025102406432,3.0,1,1.6018974897593568,0,4.0,3.0,1,2,6,0,6,0,0,3,3,7,,,,,,,0.018626917037181556,511.46988899994176,511.46988899994176,512.4697545409435,512.7890999999363,512.7890999999363,512.7890999999363,513.0693089580163,513.9362757080235,513.9362757080235,513.9362757080235,513.9362757080235,514.9361927499995,4.52079920808319,200003,002,2023-03-22_12h57.58.405,DMS_et_12-36,2022.2.4,None,
56,PRED,12,0.8518974897593568,2,images/picture_3.png,images/picture_1.png,0,"[-11.733433509789462, 11.733433509789464]",-11.733433509789462,11.733433509789464,images/picture_2.png,1,"[11.733433509789462, -11.733433509789466]",11.733433509789462,-11.733433509789464,images/picture_3.png,2,"[11.733433509789464, 11.733433509789462]",11.733433509789464,11.733433509789462,0,1,1,0.8518974897593568,1.8518974897593568,1.1481025102406432,3.0,1,1.6018974897593568,0,4.0,3.0,1,2,6,0,6,0,0,4,4,2,,,,,,,0.023339750012382865,516.5019333329983,516.5019333329983,517.5025953749428,517.8230634999927,517.8230634999927,517.8230634999927,518.1025174160022,518.9695305409841,518.9695305409841,518.9695305409841,518.9695305409841,519.969469374977,4.524806583998725,200003,002,2023-03-22_12h57.58.405,DMS_et_12-36,2022.2.4,None,
59,PRED,12,0.8518974897593568,2,images/picture_3.png,images/picture_1.png,0,"[-11.733433509789466, -11.733433509789462]",-11.733433509789464,-11.733433509789462,images/picture_2.png,1,"[-11.733433509789462, 11.733433509789464]",-11.733433509789462,11.733433509789464,images/picture_3.png,2,"[11.733433509789464, 11.733433509789462]",11.733433509789464,11.733433509789462,0,1,1,0.8518974897593568,1.8518974897593568,1.1481025102406432,3.0,1,1.6018974897593568,0,4.0,3.0,1,2,6,0,6,0,0,5,5,5,,,,,,,0.020838291966356337,521.5346782499691,521.5346782499691,522.5363090829924,522.8561530829174,522.8561530829174,522.8561530829174,523.1362400830258,524.0029639579589,524.0029639579589,524.0029639579589,524.0029639579589,525.0026162499562,4.52489516697824,200003,002,2023-03-22_12h57.58.405,DMS_et_12-36,2022.2.4,None,
57,PRED,12,0.8518974897593568,2,images/picture_3.png,images/picture_1.png,0,"[11.733433509789462, -11.733433509789466]",11.733433509789462,-11.733433509789464,images/picture_2.png,1,"[11.733433509789464, 11.733433509789462]",11.733433509789464,11.733433509789462,images/picture_3.png,2,"[-11.733433509789462, 11.733433509789464]",-11.733433509789462,11.733433509789464,0,1,1,0.8518974897593568,1.8518974897593568,1.1481025102406432,3.0,1,1.6018974897593568,0,4.0,3.0,1,2,6,0,6,0,0,6,6,3,,,,,,,0.018694333033636212,526.5706454579486,526.5706454579486,527.5695304579567,527.889221707941,527.889221707941,527.889221707941,528.1695818749722,529.0362446249928,529.0362446249928,529.0362446249928,529.0362446249928,530.0362305829767,4.520450333016925,200003,002,2023-03-22_12h57.58.405,DMS_et_12-36,2022.2.4,None,
62,PRED,12,0.8518974897593568,2,images/picture_3.png,images/picture_1.png,0,"[11.733433509789464, 11.733433509789462]",11.733433509789464,11.733433509789462,images/picture_2.png,1,"[-11.733433509789466, -11.733433509789462]",-11.733433509789464,-11.733433509789462,images/picture_3.png,2,"[11.733433509789462, -11.733433509789466]",11.733433509789462,-11.733433509789464,0,1,1,0.8518974897593568,1.8518974897593568,1.1481025102406432,3.0,1,1.6018974897593568,0,4.0,3.0,1,2,6,0,6,0,0,7,7,8,,,,,,,0.02192491595633328,531.6011300829705,531.6011300829705,532.6032659159973,532.9224844579585,532.9224844579585,532.9224844579585,533.2026212499477,534.069738916005,534.069738916005,534.069738916005,534.069738916005,535.0694536659867,4.523559207911603,200003,002,2023-03-22_12h57.58.405,DMS_et_12-36,2022.2.4,None,
58,PRED,12,0.8518974897593568,2,images/picture_3.png,images/picture_1.png,0,"[11.733433509789462, -11.733433509789466]",11.733433509789462,-11.733433509789464,images/picture_2.png,1,"[-11.733433509789466, -11.733433509789462]",-11.733433509789464,-11.733433509789462,images/picture_3.png,2,"[11.733433509789464, 11.733433509789462]",11.733433509789464,11.733433509789462,0,1,1,0.8518974897593568,1.8518974897593568,1.1481025102406432,3.0,1,1.6018974897593568,0,4.0,3.0,1,2,6,0,6,0,0,8,8,4,,,,,,,0.01831612503156066,536.6369255000027,536.6369255000027,537.6358238329412,537.956379415933,537.956379415933,537.956379415933,538.2362963749329,539.1025617909618,539.1025617909618,539.1025617909618,539.1025617909618,540.1028979159892,4.521260750014335,200003,002,2023-03-22_12h57.58.405,DMS_et_12-36,2022.2.4,None,
,,,,,,,,,,,,,,,,,,,,,,,,,,,,,,,,,,,6,0,6,0,,,,,,,,,541.2399672500324,553.7730424579931,,,,,,,,,,,,,,,200003,002,2023-03-22_12h57.58.405,DMS_et_12-36,2022.2.4,None,
64,UNPRED,12,0.8518974897593568,0,images/picture_1.png,images/picture_1.png,0,"[-11.733433509789466, -11.733433509789462]",-11.733433509789464,-11.733433509789462,images/picture_2.png,1,"[11.733433509789462, -11.733433509789466]",11.733433509789462,-11.733433509789464,images/picture_3.png,2,"[11.733433509789464, 11.733433509789462]",11.733433509789464,11.733433509789462,0,1,1,0.8518974897593568,1.8518974897593568,1.1481025102406432,3.0,1,1.6018974897593568,0,4.0,3.0,1,2,7,0,7,0,0,0,0,1,,,,,,,0.004404040984809399,553.7730424579931,553.7730424579931,554.7697141249664,555.1221669160295,555.1221669160295,555.1221669160295,555.3881891659694,556.2694980829256,556.2694980829256,556.2694980829256,556.2694980829256,557.2697233749786,4.511777541018091,200003,002,2023-03-22_12h57.58.405,DMS_et_12-36,2022.2.4,None,
66,UNPRED,12,0.8518974897593568,1,images/picture_2.png,images/picture_1.png,0,"[-11.733433509789466, -11.733433509789462]",-11.733433509789464,-11.733433509789462,images/picture_2.png,1,"[-11.733433509789462, 11.733433509789464]",-11.733433509789462,11.733433509789464,images/picture_3.png,2,"[11.733433509789462, -11.733433509789466]",11.733433509789462,-11.733433509789464,0,1,1,0.8518974897593568,1.8518974897593568,1.1481025102406432,3.0,1,1.6018974897593568,0,4.0,3.0,1,2,7,0,7,0,0,1,1,3,,,,,,,0.008739792043343186,558.8104396659182,558.8104396659182,559.822701582918,560.135819624993,560.135819624993,560.135819624993,560.4225275409408,561.2896834160201,561.2896834160201,561.2896834160201,561.2896834160201,562.3033161249477,4.5260212500579655,200003,002,2023-03-22_12h57.58.405,DMS_et_12-36,2022.2.4,None,
71,UNPRED,12,0.8518974897593568,2,images/picture_3.png,images/picture_1.png,0,"[-11.733433509789466, -11.733433509789462]",-11.733433509789464,-11.733433509789462,images/picture_2.png,1,"[11.733433509789464, 11.733433509789462]",11.733433509789464,11.733433509789462,images/picture_3.png,2,"[-11.733433509789462, 11.733433509789464]",-11.733433509789462,11.733433509789464,0,1,1,0.8518974897593568,1.8518974897593568,1.1481025102406432,3.0,1,1.6018974897593568,0,4.0,3.0,1,2,7,0,7,0,0,2,2,8,,,,,,,0.021182583994232118,563.8551716249203,563.8551716249203,564.8697159159929,565.1696324159857,565.1696324159857,565.1696324159857,565.4694284159923,566.3215957910288,566.3215957910288,566.3215957910288,566.3215957910288,567.3362579159439,4.542720959056169,200003,002,2023-03-22_12h57.58.405,DMS_et_12-36,2022.2.4,None,
69,UNPRED,12,0.8518974897593568,0,images/picture_1.png,images/picture_1.png,0,"[11.733433509789462, -11.733433509789466]",11.733433509789462,-11.733433509789464,images/picture_2.png,1,"[-11.733433509789462, 11.733433509789464]",-11.733433509789462,11.733433509789464,images/picture_3.png,2,"[-11.733433509789466, -11.733433509789462]",-11.733433509789464,-11.733433509789462,0,1,1,0.8518974897593568,1.8518974897593568,1.1481025102406432,3.0,1,1.6018974897593568,0,4.0,3.0,1,2,7,0,7,0,0,3,3,6,,,,,,,0.007584000006318092,568.8845334579237,568.8845334579237,569.8882936659502,570.2226073329803,570.2226073329803,570.2226073329803,570.4895302499644,571.3696739999577,571.3696739999577,571.3696739999577,571.3696739999577,572.3697087080218,4.504318916006014,200003,002,2023-03-22_12h57.58.405,DMS_et_12-36,2022.2.4,None,
63,UNPRED,12,0.8518974897593568,0,images/picture_1.png,images/picture_1.png,0,"[11.733433509789464, 11.733433509789462]",11.733433509789464,11.733433509789462,images/picture_2.png,1,"[-11.733433509789466, -11.733433509789462]",-11.733433509789464,-11.733433509789462,images/picture_3.png,2,"[-11.733433509789462, 11.733433509789464]",-11.733433509789462,11.733433509789464,0,1,1,0.8518974897593568,1.8518974897593568,1.1481025102406432,3.0,1,1.6018974897593568,0,4.0,3.0,1,2,7,0,7,0,0,4,4,0,,,,,,,0.004994374932721257,573.8980634999461,573.8980634999461,574.9031506249448,575.2358262080234,575.2358262080234,575.2358262080234,575.5029196660034,576.3885510410182,576.3885510410182,576.3885510410182,576.3885510410182,577.4025670409901,4.511724749929272,200003,002,2023-03-22_12h57.58.405,DMS_et_12-36,2022.2.4,None,
68,UNPRED,12,0.8518974897593568,2,images/picture_3.png,images/picture_1.png,0,"[11.733433509789462, -11.733433509789466]",11.733433509789462,-11.733433509789464,images/picture_2.png,1,"[-11.733433509789466, -11.733433509789462]",-11.733433509789464,-11.733433509789462,images/picture_3.png,2,"[-11.733433509789462, 11.733433509789464]",-11.733433509789462,11.733433509789464,0,1,1,0.8518974897593568,1.8518974897593568,1.1481025102406432,3.0,1,1.6018974897593568,0,4.0,3.0,1,2,7,0,7,0,0,5,5,5,,,,,,,0.019947291002608836,578.9386767080287,578.9386767080287,579.9366357499966,580.2551201659953,580.2551201659953,580.2551201659953,580.5565369159449,581.4029472080292,581.4029472080292,581.4029472080292,581.4029472080292,582.4029598329216,4.520777540979907,200003,002,2023-03-22_12h57.58.405,DMS_et_12-36,2022.2.4,None,
65,UNPRED,12,0.8518974897593568,2,images/picture_3.png,images/picture_1.png,0,"[11.733433509789464, 11.733433509789462]",11.733433509789464,11.733433509789462,images/picture_2.png,1,"[-11.733433509789466, -11.733433509789462]",-11.733433509789464,-11.733433509789462,images/picture_3.png,2,"[11.733433509789462, -11.733433509789466]",11.733433509789462,-11.733433509789464,0,1,1,0.8518974897593568,1.8518974897593568,1.1481025102406432,3.0,1,1.6018974897593568,0,4.0,3.0,1,2,7,0,7,0,0,6,6,2,,,,,,,0.020623333053663373,583.9646732909605,583.9646732909605,584.9696502910228,585.2896370829549,585.2896370829549,585.2896370829549,585.5693414999405,586.4360714579234,586.4360714579234,586.4360714579234,586.4360714579234,587.4363069999963,4.525544582982548,200003,002,2023-03-22_12h57.58.405,DMS_et_12-36,2022.2.4,None,
67,UNPRED,12,0.8518974897593568,1,images/picture_2.png,images/picture_1.png,0,"[-11.733433509789466, -11.733433509789462]",-11.733433509789464,-11.733433509789462,images/picture_2.png,1,"[11.733433509789462, -11.733433509789466]",11.733433509789462,-11.733433509789464,images/picture_3.png,2,"[-11.733433509789462, 11.733433509789464]",-11.733433509789462,11.733433509789464,0,1,1,0.8518974897593568,1.8518974897593568,1.1481025102406432,3.0,1,1.6018974897593568,0,4.0,3.0,1,2,7,0,7,0,0,7,7,4,,,,,,,0.010036166990175843,588.9918370000087,588.9918370000087,590.0026472079335,590.3224891249556,590.3224891249556,590.3224891249556,590.6029498330317,591.4696372909239,591.4696372909239,591.4696372909239,591.4696372909239,592.4696525000036,4.525769750005566,200003,002,2023-03-22_12h57.58.405,DMS_et_12-36,2022.2.4,None,
70,UNPRED,12,0.8518974897593568,2,images/picture_3.png,images/picture_1.png,0,"[-11.733433509789462, 11.733433509789464]",-11.733433509789462,11.733433509789464,images/picture_2.png,1,"[11.733433509789462, -11.733433509789466]",11.733433509789462,-11.733433509789464,images/picture_3.png,2,"[-11.733433509789466, -11.733433509789462]",-11.733433509789464,-11.733433509789462,0,1,1,0.8518974897593568,1.8518974897593568,1.1481025102406432,3.0,1,1.6018974897593568,0,4.0,3.0,1,2,7,0,7,0,0,8,8,7,,,,,,,0.020381332957185805,594.0357317909366,594.0357317909366,595.036360832979,595.356508790981,595.356508790981,595.356508790981,595.6362369159469,596.5029530830216,596.5029530830216,596.5029530830216,596.5029530830216,597.5028028329834,4.521411207970232,200003,002,2023-03-22_12h57.58.405,DMS_et_12-36,2022.2.4,None,
,,,,,,,,,,,,,,,,,,,,,,,,,,,,,,,,,,,7,0,7,0,,,,,,,,,598.6464644579682,611.2050629159203,,,,,,,,,,,,,,,200003,002,2023-03-22_12h57.58.405,DMS_et_12-36,2022.2.4,None,
77,PRED,12,0.8518974897593568,2,images/picture_3.png,images/picture_1.png,0,"[11.733433509789462, -11.733433509789466]",11.733433509789462,-11.733433509789464,images/picture_2.png,1,"[-11.733433509789466, -11.733433509789462]",-11.733433509789464,-11.733433509789462,images/picture_3.png,2,"[-11.733433509789462, 11.733433509789464]",-11.733433509789462,11.733433509789464,0,1,1,0.8518974897593568,1.8518974897593568,1.1481025102406432,3.0,1,1.6018974897593568,0,4.0,3.0,1,2,8,0,8,0,0,0,0,5,,,,,,,0.014327708980999887,611.2050629159203,611.2050629159203,612.203343332978,612.5361971249804,612.5361971249804,612.5361971249804,612.8230234580114,613.6892719999887,613.6892719999887,613.6892719999887,613.6892719999887,614.7030254580313,4.515627083950676,200003,002,2023-03-22_12h57.58.405,DMS_et_12-36,2022.2.4,None,
75,PRED,12,0.8518974897593568,2,images/picture_3.png,images/picture_1.png,0,"[11.733433509789464, 11.733433509789462]",11.733433509789464,11.733433509789462,images/picture_2.png,1,"[11.733433509789462, -11.733433509789466]",11.733433509789462,-11.733433509789464,images/picture_3.png,2,"[-11.733433509789462, 11.733433509789464]",-11.733433509789462,11.733433509789464,0,1,1,0.8518974897593568,1.8518974897593568,1.1481025102406432,3.0,1,1.6018974897593568,0,4.0,3.0,1,2,8,0,8,0,0,1,1,3,,,,,,,0.018817291012965143,616.2485627499409,616.2485627499409,617.254970000009,617.5551344159758,617.5551344159758,617.5551344159758,617.8546503749676,618.7027895409847,618.7027895409847,618.7027895409847,618.7027895409847,619.7029777079588,4.534224790986627,200003,002,2023-03-22_12h57.58.405,DMS_et_12-36,2022.2.4,None,
80,PRED,12,0.8518974897593568,2,images/picture_3.png,images/picture_1.png,0,"[11.733433509789464, 11.733433509789462]",11.733433509789464,11.733433509789462,images/picture_2.png,1,"[-11.733433509789462, 11.733433509789464]",-11.733433509789462,11.733433509789464,images/picture_3.png,2,"[-11.733433509789466, -11.733433509789462]",-11.733433509789464,-11.733433509789462,0,1,1,0.8518974897593568,1.8518974897593568,1.1481025102406432,3.0,1,1.6018974897593568,0,4.0,3.0,1,2,8,0,8,0,0,2,2,8,,,,,,,0.020694083999842405,621.2818983750185,621.2818983750185,622.2883660410298,622.6027072080178,622.6027072080178,622.6027072080178,622.8890850829193,623.755900499993,623.755900499993,623.755900499993,623.755900499993,624.7696628329577,4.52515779202804,200003,002,2023-03-22_12h57.58.405,DMS_et_12-36,2022.2.4,None,
78,PRED,12,0.8518974897593568,2,images/picture_3.png,images/picture_1.png,0,"[-11.733433509789466, -11.733433509789462]",-11.733433509789464,-11.733433509789462,images/picture_2.png,1,"[-11.733433509789462, 11.733433509789464]",-11.733433509789462,11.733433509789464,images/picture_3.png,2,"[11.733433509789462, -11.733433509789466]",11.733433509789462,-11.733433509789464,0,1,1,0.8518974897593568,1.8518974897593568,1.1481025102406432,3.0,1,1.6018974897593568,0,4.0,3.0,1,2,8,0,8,0,0,3,3,6,,,,,,,0.02127166697755456,626.3180956660071,626.3180956660071,627.3218234999804,627.6358337909915,627.6358337909915,627.6358337909915,627.9215259579942,628.7891139999265,628.7891139999265,628.7891139999265,628.7891139999265,629.8029672499979,4.525760499993339,200003,002,2023-03-22_12h57.58.405,DMS_et_12-36,2022.2.4,None,
74,PRED,12,0.8518974897593568,2,images/picture_3.png,images/picture_1.png,0,"[11.733433509789462, -11.733433509789466]",11.733433509789462,-11.733433509789464,images/picture_2.png,1,"[-11.733433509789462, 11.733433509789464]",-11.733433509789462,11.733433509789464,images/picture_3.png,2,"[11.733433509789464, 11.733433509789462]",11.733433509789464,11.733433509789462,0,1,1,0.8518974897593568,1.8518974897593568,1.1481025102406432,3.0,1,1.6018974897593568,0,4.0,3.0,1,2,8,0,8,0,0,4,4,2,,,,,,,0.01910354197025299,631.353758040932,631.353758040932,632.3560397499241,632.669505583006,632.669505583006,632.669505583006,632.9697704579448,633.8226609579287,633.8226609579287,633.8226609579287,633.8226609579287,634.8363410829334,4.519175207940862,200003,002,2023-03-22_12h57.58.405,DMS_et_12-36,2022.2.4,None,
72,PRED,12,0.8518974897593568,2,images/picture_3.png,images/picture_1.png,0,"[11.733433509789462, -11.733433509789466]",11.733433509789462,-11.733433509789464,images/picture_2.png,1,"[-11.733433509789466, -11.733433509789462]",-11.733433509789464,-11.733433509789462,images/picture_3.png,2,"[-11.733433509789462, 11.733433509789464]",-11.733433509789462,11.733433509789464,0,1,1,0.8518974897593568,1.8518974897593568,1.1481025102406432,3.0,1,1.6018974897593568,0,4.0,3.0,1,2,8,0,8,0,0,5,5,0,,,,,,,0.02472170803230256,636.383832499967,636.383832499967,637.3882097909227,637.702606207924,637.702606207924,637.702606207924,637.9886324580293,638.8564229159383,638.8564229159383,638.8564229159383,638.8564229159383,639.8694754579337,4.523288708063774,200003,002,2023-03-22_12h57.58.405,DMS_et_12-36,2022.2.4,None,
79,PRED,12,0.8518974897593568,2,images/picture_3.png,images/picture_1.png,0,"[-11.733433509789462, 11.733433509789464]",-11.733433509789462,11.733433509789464,images/picture_2.png,1,"[11.733433509789464, 11.733433509789462]",11.733433509789464,11.733433509789462,images/picture_3.png,2,"[11.733433509789462, -11.733433509789466]",11.733433509789462,-11.733433509789464,0,1,1,0.8518974897593568,1.8518974897593568,1.1481025102406432,3.0,1,1.6018974897593568,0,4.0,3.0,1,2,8,0,8,0,0,6,6,7,,,,,,,0.022348625003360212,641.4151044159662,641.4151044159662,642.4216670410242,642.7358742079232,642.7358742079232,642.7358742079232,643.0220790000167,643.8892996249488,643.8892996249488,643.8892996249488,643.8892996249488,644.902969290968,4.5265277499565855,200003,002,2023-03-22_12h57.58.405,DMS_et_12-36,2022.2.4,None,
73,PRED,12,0.8518974897593568,2,images/picture_3.png,images/picture_1.png,0,"[11.733433509789462, -11.733433509789466]",11.733433509789462,-11.733433509789464,images/picture_2.png,1,"[-11.733433509789462, 11.733433509789464]",-11.733433509789462,11.733433509789464,images/picture_3.png,2,"[11.733433509789464, 11.733433509789462]",11.733433509789464,11.733433509789462,0,1,1,0.8518974897593568,1.8518974897593568,1.1481025102406432,3.0,1,1.6018974897593568,0,4.0,3.0,1,2,8,0,8,0,0,7,7,1,,,,,,,0.01840462500695139,646.448854999966,646.448854999966,647.4562207909767,647.7694983750116,647.7694983750116,647.7694983750116,648.0550087079173,648.9224892909406,648.9224892909406,648.9224892909406,648.9224892909406,649.9362319159554,4.520863082958385,200003,002,2023-03-22_12h57.58.405,DMS_et_12-36,2022.2.4,None,
76,PRED,12,0.8518974897593568,2,images/picture_3.png,images/picture_1.png,0,"[-11.733433509789466, -11.733433509789462]",-11.733433509789464,-11.733433509789462,images/picture_2.png,1,"[11.733433509789464, 11.733433509789462]",11.733433509789464,11.733433509789462,images/picture_3.png,2,"[11.733433509789462, -11.733433509789466]",11.733433509789462,-11.733433509789464,0,1,1,0.8518974897593568,1.8518974897593568,1.1481025102406432,3.0,1,1.6018974897593568,0,4.0,3.0,1,2,8,0,8,0,0,8,8,4,,,,,,,0.019458332913927734,651.4780208329903,651.4780208329903,652.4891449999996,652.8029689579271,652.8029689579271,652.8029689579271,653.0895810829243,653.9562181659276,653.9562181659276,653.9562181659276,653.9562181659276,654.9696566659259,4.524145375005901,200003,002,2023-03-22_12h57.58.405,DMS_et_12-36,2022.2.4,None,
,,,,,,,,,,,,,,,,,,,,,,,,,,,,,,,,,,,8,0,8,0,,,,,,,,,656.1055609999457,668.6207531249383,,,,,,,,,,,,,,,200003,002,2023-03-22_12h57.58.405,DMS_et_12-36,2022.2.4,None,
84,UNPRED,12,0.8518974897593568,1,images/picture_2.png,images/picture_1.png,0,"[11.733433509789462, -11.733433509789466]",11.733433509789462,-11.733433509789464,images/picture_2.png,1,"[-11.733433509789466, -11.733433509789462]",-11.733433509789464,-11.733433509789462,images/picture_3.png,2,"[11.733433509789464, 11.733433509789462]",11.733433509789464,11.733433509789462,0,1,1,0.8518974897593568,1.8518974897593568,1.1481025102406432,3.0,1,1.6018974897593568,0,4.0,3.0,1,2,9,0,9,0,0,0,0,3,,,,,,,0.0034032909898087382,668.6207531249383,668.6207531249383,669.6358234999934,669.9696215000004,669.9696215000004,669.9696215000004,670.2362407499459,671.1227310409304,671.1227310409304,671.1227310409304,671.1025869159494,672.1032101250021,4.515845540910959,200003,002,2023-03-22_12h57.58.405,DMS_et_12-36,2022.2.4,None,
85,UNPRED,12,0.8518974897593568,2,images/picture_3.png,images/picture_1.png,0,"[-11.733433509789466, -11.733433509789462]",-11.733433509789464,-11.733433509789462,images/picture_2.png,1,"[11.733433509789464, 11.733433509789462]",11.733433509789464,11.733433509789462,images/picture_3.png,2,"[11.733433509789462, -11.733433509789466]",11.733433509789462,-11.733433509789464,0,1,1,0.8518974897593568,1.8518974897593568,1.1481025102406432,3.0,1,1.6018974897593568,0,4.0,3.0,1,2,9,0,9,0,0,1,1,4,,,,,,,0.013221209053881466,673.6530536250211,673.6530536250211,674.6560698749963,674.9889243749203,674.9889243749203,674.9889243749203,675.2696910829982,676.1362789159175,676.1362789159175,676.1362789159175,676.1362789159175,677.1358657500241,4.507990000071004,200003,002,2023-03-22_12h57.58.405,DMS_et_12-36,2022.2.4,None,
89,UNPRED,12,0.8518974897593568,0,images/picture_1.png,images/picture_1.png,0,"[-11.733433509789462, 11.733433509789464]",-11.733433509789462,11.733433509789464,images/picture_2.png,1,"[11.733433509789464, 11.733433509789462]",11.733433509789464,11.733433509789462,images/picture_3.png,2,"[-11.733433509789466, -11.733433509789462]",-11.733433509789464,-11.733433509789462,0,1,1,0.8518974897593568,1.8518974897593568,1.1481025102406432,3.0,1,1.6018974897593568,0,4.0,3.0,1,2,9,0,9,0,0,2,2,8,,,,,,,0.0077629160368815064,678.6656530409819,678.6656530409819,679.6695862079505,680.0029213749804,680.0029213749804,680.0029213749804,680.2695197500288,681.155836040969,681.155836040969,681.155836040969,681.155836040969,682.1694902909221,4.51254979101941,200003,002,2023-03-22_12h57.58.405,DMS_et_12-36,2022.2.4,None,
86,UNPRED,12,0.8518974897593568,1,images/picture_2.png,images/picture_1.png,0,"[-11.733433509789462, 11.733433509789464]",-11.733433509789462,11.733433509789464,images/picture_2.png,1,"[-11.733433509789466, -11.733433509789462]",-11.733433509789464,-11.733433509789462,images/picture_3.png,2,"[11.733433509789462, -11.733433509789466]",11.733433509789462,-11.733433509789464,0,1,1,0.8518974897593568,1.8518974897593568,1.1481025102406432,3.0,1,1.6018974897593568,0,4.0,3.0,1,2,9,0,9,0,0,3,3,5,,,,,,,0.007452750112861395,683.6939077499555,683.6939077499555,684.702470958,685.0362377499696,685.0362377499696,685.0362377499696,685.3029538749252,686.1889932079939,686.1889932079939,686.1889932079939,686.1690819999203,687.1696632909589,4.51958733308129,200003,002,2023-03-22_12h57.58.405,DMS_et_12-36,2022.2.4,None,
88,UNPRED,12,0.8518974897593568,0,images/picture_1.png,images/picture_1.png,0,"[11.733433509789462, -11.733433509789466]",11.733433509789462,-11.733433509789464,images/picture_2.png,1,"[-11.733433509789466, -11.733433509789462]",-11.733433509789464,-11.733433509789462,images/picture_3.png,2,"[11.733433509789464, 11.733433509789462]",11.733433509789464,11.733433509789462,0,1,1,0.8518974897593568,1.8518974897593568,1.1481025102406432,3.0,1,1.6018974897593568,0,4.0,3.0,1,2,9,0,9,0,0,4,4,7,,,,,,,0.005820708000101149,688.7145728329197,688.7145728329197,689.7214181249728,690.0551063750172,690.0551063750172,690.0551063750172,690.3224584580166,691.2029417499434,691.2029417499434,691.2029417499434,691.2029417499434,692.2024707499659,4.505779917002656,200003,002,2023-03-22_12h57.58.405,DMS_et_12-36,2022.2.4,None,
81,UNPRED,12,0.8518974897593568,0,images/picture_1.png,images/picture_1.png,0,"[-11.733433509789466, -11.733433509789462]",-11.733433509789464,-11.733433509789462,images/picture_2.png,1,"[11.733433509789464, 11.733433509789462]",11.733433509789464,11.733433509789462,images/picture_3.png,2,"[-11.733433509789462, 11.733433509789464]",-11.733433509789462,11.733433509789464,0,1,1,0.8518974897593568,1.8518974897593568,1.1481025102406432,3.0,1,1.6018974897593568,0,4.0,3.0,1,2,9,0,9,0,0,5,5,0,,,,,,,0.005582834011875093,693.735676457989,693.735676457989,694.7363420829643,695.0694547910243,695.0694547910243,695.0694547910243,695.336264875019,696.2223567499314,696.2223567499314,696.2223567499314,696.2223567499314,697.2362292909529,4.511327125015669,200003,002,2023-03-22_12h57.58.405,DMS_et_12-36,2022.2.4,None,
87,UNPRED,12,0.8518974897593568,2,images/picture_3.png,images/picture_1.png,0,"[11.733433509789464, 11.733433509789462]",11.733433509789464,11.733433509789462,images/picture_2.png,1,"[11.733433509789462, -11.733433509789466]",11.733433509789462,-11.733433509789464,images/picture_3.png,2,"[-11.733433509789462, 11.733433509789464]",-11.733433509789462,11.733433509789464,0,1,1,0.8518974897593568,1.8518974897593568,1.1481025102406432,3.0,1,1.6018974897593568,0,4.0,3.0,1,2,9,0,9,0,0,6,6,6,,,,,,,0.021210791892372072,698.7825208329596,698.7825208329596,699.7883020829177,700.0885109159863,700.0885109159863,700.0885109159863,700.3892711249646,701.2358417910291,701.2358417910291,701.2358417910291,701.2358417910291,702.2362237499328,4.5352822919376194,200003,002,2023-03-22_12h57.58.405,DMS_et_12-36,2022.2.4,None,
82,UNPRED,12,0.8518974897593568,2,images/picture_3.png,images/picture_1.png,0,"[-11.733433509789466, -11.733433509789462]",-11.733433509789464,-11.733433509789462,images/picture_2.png,1,"[-11.733433509789462, 11.733433509789464]",-11.733433509789462,11.733433509789464,images/picture_3.png,2,"[11.733433509789462, -11.733433509789466]",11.733433509789462,-11.733433509789464,0,1,1,0.8518974897593568,1.8518974897593568,1.1481025102406432,3.0,1,1.6018974897593568,0,4.0,3.0,1,2,9,0,9,0,0,7,7,1,,,,,,,0.020080166985280812,703.814807082992,703.814807082992,704.8226965409704,705.1361230829498,705.1361230829498,705.1361230829498,705.4219817909179,706.289285707986,706.289285707986,706.289285707986,706.289285707986,707.30292383302,4.5243091670563444,200003,002,2023-03-22_12h57.58.405,DMS_et_12-36,2022.2.4,None,
83,UNPRED,12,0.8518974897593568,2,images/picture_3.png,images/picture_1.png,0,"[-11.733433509789462, 11.733433509789464]",-11.733433509789462,11.733433509789464,images/picture_2.png,1,"[-11.733433509789466, -11.733433509789462]",-11.733433509789464,-11.733433509789462,images/picture_3.png,2,"[11.733433509789462, -11.733433509789466]",11.733433509789462,-11.733433509789464,0,1,1,0.8518974897593568,1.8518974897593568,1.1481025102406432,3.0,1,1.6018974897593568,0,4.0,3.0,1,2,9,0,9,0,0,8,8,2,,,,,,,0.02024425007402897,708.8530791660305,708.8530791660305,709.8550315829925,710.1693223329494,710.1693223329494,710.1693223329494,710.4693477079272,711.3219866659492,711.3219866659492,711.3219866659492,711.3219866659492,712.3363030409673,4.524489916977473,200003,002,2023-03-22_12h57.58.405,DMS_et_12-36,2022.2.4,None,
,,,,,,,,,,,,,,,,,,,,,,,,,,,,,,,,,,,9,0,9,0,,,,,,,,,713.4786720409757,726.0295220830012,,,,,,,,,,,,,,,200003,002,2023-03-22_12h57.58.405,DMS_et_12-36,2022.2.4,None,
91,PRED,12,0.8518974897593568,1,images/picture_2.png,images/picture_1.png,0,"[11.733433509789462, -11.733433509789466]",11.733433509789462,-11.733433509789464,images/picture_2.png,1,"[11.733433509789464, 11.733433509789462]",11.733433509789464,11.733433509789462,images/picture_3.png,2,"[-11.733433509789462, 11.733433509789464]",-11.733433509789462,11.733433509789464,0,1,1,0.8518974897593568,1.8518974897593568,1.1481025102406432,3.0,1,1.6018974897593568,0,4.0,3.0,1,2,10,0,10,0,0,0,0,1,,,,,,,0.005171500029973686,726.0295220830012,726.0295220830012,727.0360443330137,727.3693212500075,727.3693212500075,727.3693212500075,727.6362178749405,728.5231897910126,728.5231897910126,728.5231897910126,728.5231897910126,729.5363340829499,4.511316917021759,200003,002,2023-03-22_12h57.58.405,DMS_et_12-36,2022.2.4,None,
95,PRED,12,0.8518974897593568,1,images/picture_2.png,images/picture_1.png,0,"[-11.733433509789466, -11.733433509789462]",-11.733433509789464,-11.733433509789462,images/picture_2.png,1,"[11.733433509789464, 11.733433509789462]",11.733433509789464,11.733433509789462,images/picture_3.png,2,"[-11.733433509789462, 11.733433509789464]",-11.733433509789462,11.733433509789464,0,1,1,0.8518974897593568,1.8518974897593568,1.1481025102406432,3.0,1,1.6018974897593568,0,4.0,3.0,1,2,10,0,10,0,0,1,1,5,,,,,,,0.0040937080048024654,731.0450723749818,731.0450723749818,732.0557865409646,732.3891154580051,732.3891154580051,732.3891154580051,732.6563671659678,733.5363343749195,733.5363343749195,733.5363343749195,733.5363343749195,734.5363137499662,4.508482374949381,200003,002,2023-03-22_12h57.58.405,DMS_et_12-36,2022.2.4,None,
92,PRED,12,0.8518974897593568,1,images/picture_2.png,images/picture_1.png,0,"[-11.733433509789462, 11.733433509789464]",-11.733433509789462,11.733433509789464,images/picture_2.png,1,"[11.733433509789462, -11.733433509789466]",11.733433509789462,-11.733433509789464,images/picture_3.png,2,"[-11.733433509789466, -11.733433509789462]",-11.733433509789464,-11.733433509789462,0,1,1,0.8518974897593568,1.8518974897593568,1.1481025102406432,3.0,1,1.6018974897593568,0,4.0,3.0,1,2,10,0,10,0,0,2,2,2,,,,,,,0.006235667038708925,736.0715517079225,736.0715517079225,737.0692708749557,737.4025758330245,737.4025758330245,737.4025758330245,737.6879496249603,738.555155082955,738.555155082955,738.555155082955,738.555155082955,739.5694711250253,4.5103985000168905,200003,002,2023-03-22_12h57.58.405,DMS_et_12-36,2022.2.4,None,
98,PRED,12,0.8518974897593568,1,images/picture_2.png,images/picture_1.png,0,"[-11.733433509789462, 11.733433509789464]",-11.733433509789462,11.733433509789464,images/picture_2.png,1,"[11.733433509789462, -11.733433509789466]",11.733433509789462,-11.733433509789464,images/picture_3.png,2,"[-11.733433509789466, -11.733433509789462]",-11.733433509789464,-11.733433509789462,0,1,1,0.8518974897593568,1.8518974897593568,1.1481025102406432,3.0,1,1.6018974897593568,0,4.0,3.0,1,2,10,0,10,0,0,3,3,8,,,,,,,0.004675749922171235,741.0779254159424,741.0779254159424,742.0891898330301,742.422255332931,742.422255332931,742.422255332931,742.6887911659433,743.5695399999386,743.5695399999386,743.5695399999386,743.5695399999386,744.5695863330038,4.508585750008933,200003,002,2023-03-22_12h57.58.405,DMS_et_12-36,2022.2.4,None,
90,PRED,12,0.8518974897593568,1,images/picture_2.png,images/picture_1.png,0,"[-11.733433509789462, 11.733433509789464]",-11.733433509789462,11.733433509789464,images/picture_2.png,1,"[11.733433509789464, 11.733433509789462]",11.733433509789464,11.733433509789462,images/picture_3.png,2,"[11.733433509789462, -11.733433509789466]",11.733433509789462,-11.733433509789464,0,1,1,0.8518974897593568,1.8518974897593568,1.1481025102406432,3.0,1,1.6018974897593568,0,4.0,3.0,1,2,10,0,10,0,0,4,4,0,,,,,,,0.00649583397898823,746.0975695829839,746.0975695829839,747.1029767500004,747.4362539160065,747.4362539160065,747.4362539160065,747.7029314999236,748.5895810829243,748.5895810829243,748.5895810829243,748.5895810829243,749.602953499998,4.510853208950721,200003,002,2023-03-22_12h57.58.405,DMS_et_12-36,2022.2.4,None,
94,PRED,12,0.8518974897593568,1,images/picture_2.png,images/picture_1.png,0,"[11.733433509789462, -11.733433509789466]",11.733433509789462,-11.733433509789464,images/picture_2.png,1,"[-11.733433509789466, -11.733433509789462]",-11.733433509789464,-11.733433509789462,images/picture_3.png,2,"[-11.733433509789462, 11.733433509789464]",-11.733433509789462,11.733433509789464,0,1,1,0.8518974897593568,1.8518974897593568,1.1481025102406432,3.0,1,1.6018974897593568,0,4.0,3.0,1,2,10,0,10,0,0,5,5,4,,,,,,,0.00536737497895956,751.1083107079612,751.1083107079612,752.1226804580074,752.4559363329317,752.4559363329317,752.4559363329317,752.7227342500119,753.6029342080001,753.6029342080001,753.6029342080001,753.6029342080001,754.6029191659763,4.510128541965969,200003,002,2023-03-22_12h57.58.405,DMS_et_12-36,2022.2.4,None,
97,PRED,12,0.8518974897593568,1,images/picture_2.png,images/picture_1.png,0,"[-11.733433509789462, 11.733433509789464]",-11.733433509789462,11.733433509789464,images/picture_2.png,1,"[11.733433509789462, -11.733433509789466]",11.733433509789462,-11.733433509789464,images/picture_3.png,2,"[11.733433509789464, 11.733433509789462]",11.733433509789464,11.733433509789462,0,1,1,0.8518974897593568,1.8518974897593568,1.1481025102406432,3.0,1,1.6018974897593568,0,4.0,3.0,1,2,10,0,10,0,0,6,6,7,,,,,,,0.0065068749245256186,756.1303064579843,756.1303064579843,757.1362275410211,757.4695594999939,757.4695594999939,757.4695594999939,757.7362535409629,758.6229380830191,758.6229380830191,758.6229380830191,758.6229380830191,759.6362131659407,4.511949584004469,200003,002,2023-03-22_12h57.58.405,DMS_et_12-36,2022.2.4,None,
93,PRED,12,0.8518974897593568,1,images/picture_2.png,images/picture_1.png,0,"[-11.733433509789462, 11.733433509789464]",-11.733433509789462,11.733433509789464,images/picture_2.png,1,"[11.733433509789462, -11.733433509789466]",11.733433509789462,-11.733433509789464,images/picture_3.png,2,"[-11.733433509789466, -11.733433509789462]",-11.733433509789464,-11.733433509789462,0,1,1,0.8518974897593568,1.8518974897593568,1.1481025102406432,3.0,1,1.6018974897593568,0,4.0,3.0,1,2,10,0,10,0,0,7,7,3,,,,,,,0.0057035411009565,761.1451299160253,761.1451299160253,762.1559252080042,762.4889952499652,762.4889952499652,762.4889952499652,762.7567921659211,763.6361727080075,763.6361727080075,763.6361727080075,763.6361727080075,764.6363994160201,4.507548791007139,200003,002,2023-03-22_12h57.58.405,DMS_et_12-36,2022.2.4,None,
96,PRED,12,0.8518974897593568,1,images/picture_2.png,images/picture_1.png,0,"[11.733433509789464, 11.733433509789462]",11.733433509789464,11.733433509789462,images/picture_2.png,1,"[11.733433509789462, -11.733433509789466]",11.733433509789462,-11.733433509789464,images/picture_3.png,2,"[-11.733433509789462, 11.733433509789464]",-11.733433509789462,11.733433509789464,0,1,1,0.8518974897593568,1.8518974897593568,1.1481025102406432,3.0,1,1.6018974897593568,0,4.0,3.0,1,2,10,0,10,0,0,8,8,6,,,,,,,0.0062285830499604344,766.162075207918,766.162075207918,767.1697709159926,767.502881249995,767.502881249995,767.502881249995,767.7694599579554,768.6558464999544,768.6558464999544,768.6558464999544,768.6558464999544,769.6692810410168,4.512938208063133,200003,002,2023-03-22_12h57.58.405,DMS_et_12-36,2022.2.4,None,
,,,,,,,,,,,,,,,,,,,,,,,,,,,,,,,,,,,10,0,10,0,,,,,,,,,770.7749930829741,783.411809040932,,,,,,,,,,,,,,,200003,002,2023-03-22_12h57.58.405,DMS_et_12-36,2022.2.4,None,
,,,,,,,,,,,,,,,,,,,,,,,,,,,,,,,,,,,,,,,,,,,,,,,,,0.0022642919793725014,783.411809040932,783.411809040932,,,,,,,,,,,,,,,,,,
