trial_count,blockType,blockNum,delay_time,stimImage_i,stimImage,responseImage1,responseImage1_i,responseImage1_pos,responseImage1_X,responseImage1_Y,responseImage2,responseImage2_i,responseImage2_pos,responseImage2_X,responseImage2_Y,responseImage3,responseImage3_i,responseImage3_pos,responseImage3_X,responseImage3_Y,cue_onset,cue_dur,delay_onset,delay_dur,resp_onset,resp_dur,rest_onset,rest_dur,circle_dur,circle_onset,total_dur,cross_onset,cross_dur,delay_resp_period,blocks.thisRepN,blocks.thisTrialN,blocks.thisN,blocks.thisIndex,trials.thisRepN,trials.thisTrialN,trials.thisN,trials.thisIndex,key_resp.started,text.started,key_resp.keys,key_resp.rt,text_2.started,text_2.stopped,sample.started,Delay.started,sample.stopped,Delay.stopped,Response_1.started,Response_2.started,Response_3.started,Response_1.stopped,Response_2.stopped,Response_3.stopped,polygon.started,polygon.stopped,participant,session,date,expName,psychopyVersion,frameRate,
,,,,,,,,,,,,,,,,,,,,,,,,,,,,,,,,,,,,,,,,,,,154.4120789580047,154.4120789580047,t,62.270307041937485,,,,,,,,,,,,,,,200003,102,2023-03-24_12h47.59.021,DMS_et_12-36,2022.2.4,None,
2,PRED,12,1.0794113242427414,0,images/picture_1.png,images/picture_1.png,0,"[-11.733433509789462, 11.733433509789464]",-11.733433509789462,11.733433509789464,images/picture_2.png,1,"[11.733433509789464, 11.733433509789462]",11.733433509789464,11.733433509789462,images/picture_3.png,2,"[11.733433509789462, -11.733433509789466]",11.733433509789462,-11.733433509789464,0,1,1,1.0794113242427414,2.079411324242741,0.9205886757572586,3.0,1,1.8294113242427412,0,4.0,3.0,1,2,0,0,0,0,0,0,0,2,,,,,217.1975897080265,229.22753441601526,229.22753441601526,229.22753441601526,230.22552495799027,231.05904729105532,231.29244479106274,231.29244479106274,231.29244479106274,232.22573529102374,232.22573529102374,232.22573529102374,232.22573529102374,233.22467866609804,200003,102,2023-03-24_12h47.59.021,DMS_et_12-36,2022.2.4,None,
5,PRED,12,1.0794113242427414,0,images/picture_1.png,images/picture_1.png,0,"[-11.733433509789462, 11.733433509789464]",-11.733433509789462,11.733433509789464,images/picture_2.png,1,"[-11.733433509789466, -11.733433509789462]",-11.733433509789464,-11.733433509789462,images/picture_3.png,2,"[11.733433509789462, -11.733433509789466]",11.733433509789462,-11.733433509789464,0,1,1,1.0794113242427414,2.079411324242741,0.9205886757572586,3.0,1,1.8294113242427412,0,4.0,3.0,1,2,0,0,0,0,0,1,1,5,,,,,,,233.22467866609804,233.22467866609804,234.22574908309616,235.05921591608785,235.2923054160783,235.2923054160783,235.2923054160783,236.22571229108144,236.22571229108144,236.22571229108144,236.22571229108144,237.2255399581045,200003,102,2023-03-24_12h47.59.021,DMS_et_12-36,2022.2.4,None,
7,PRED,12,1.0794113242427414,0,images/picture_1.png,images/picture_1.png,0,"[11.733433509789462, -11.733433509789466]",11.733433509789462,-11.733433509789464,images/picture_2.png,1,"[11.733433509789464, 11.733433509789462]",11.733433509789464,11.733433509789462,images/picture_3.png,2,"[-11.733433509789466, -11.733433509789462]",-11.733433509789464,-11.733433509789462,0,1,1,1.0794113242427414,2.079411324242741,0.9205886757572586,3.0,1,1.8294113242427412,0,4.0,3.0,1,2,0,0,0,0,0,2,2,7,,,,,,,237.2255399581045,237.2255399581045,238.2254986250773,239.05900383309927,239.2923160000937,239.2923160000937,239.2923160000937,240.22575679107103,240.22575679107103,240.22575679107103,240.22575679107103,241.22522012505215,200003,102,2023-03-24_12h47.59.021,DMS_et_12-36,2022.2.4,None,
8,PRED,12,1.0794113242427414,0,images/picture_1.png,images/picture_1.png,0,"[-11.733433509789466, -11.733433509789462]",-11.733433509789464,-11.733433509789462,images/picture_2.png,1,"[11.733433509789462, -11.733433509789466]",11.733433509789462,-11.733433509789464,images/picture_3.png,2,"[-11.733433509789462, 11.733433509789464]",-11.733433509789462,11.733433509789464,0,1,1,1.0794113242427414,2.079411324242741,0.9205886757572586,3.0,1,1.8294113242427412,0,4.0,3.0,1,2,0,0,0,0,0,3,3,8,,,,,,,241.22522012505215,241.22522012505215,242.2255932081025,243.05903033306822,243.29249079106376,243.29249079106376,243.29249079106376,244.22575550002512,244.22575550002512,244.22575550002512,244.22575550002512,245.22546595800668,200003,102,2023-03-24_12h47.59.021,DMS_et_12-36,2022.2.4,None,
0,PRED,12,1.0794113242427414,0,images/picture_1.png,images/picture_1.png,0,"[11.733433509789462, -11.733433509789466]",11.733433509789462,-11.733433509789464,images/picture_2.png,1,"[-11.733433509789462, 11.733433509789464]",-11.733433509789462,11.733433509789464,images/picture_3.png,2,"[-11.733433509789466, -11.733433509789462]",-11.733433509789464,-11.733433509789462,0,1,1,1.0794113242427414,2.079411324242741,0.9205886757572586,3.0,1,1.8294113242427412,0,4.0,3.0,1,2,0,0,0,0,0,4,4,0,,,,,,,245.22546595800668,245.22546595800668,246.22573762503453,247.05922195804305,247.29245029110461,247.29245029110461,247.29245029110461,248.2254947910551,248.2254947910551,248.2254947910551,248.2254947910551,249.22522570809815,200003,102,2023-03-24_12h47.59.021,DMS_et_12-36,2022.2.4,None,
6,PRED,12,1.0794113242427414,0,images/picture_1.png,images/picture_1.png,0,"[11.733433509789462, -11.733433509789466]",11.733433509789462,-11.733433509789464,images/picture_2.png,1,"[11.733433509789464, 11.733433509789462]",11.733433509789464,11.733433509789462,images/picture_3.png,2,"[-11.733433509789462, 11.733433509789464]",-11.733433509789462,11.733433509789464,0,1,1,1.0794113242427414,2.079411324242741,0.9205886757572586,3.0,1,1.8294113242427412,0,4.0,3.0,1,2,0,0,0,0,0,5,5,6,,,,,,,249.22522570809815,249.22522570809815,250.22578508302104,251.05929045809899,251.29233399999794,251.29233399999794,251.29233399999794,252.22574833303224,252.22574833303224,252.22574833303224,252.22574833303224,253.22519062506035,200003,102,2023-03-24_12h47.59.021,DMS_et_12-36,2022.2.4,None,
1,PRED,12,1.0794113242427414,0,images/picture_1.png,images/picture_1.png,0,"[-11.733433509789462, 11.733433509789464]",-11.733433509789462,11.733433509789464,images/picture_2.png,1,"[11.733433509789462, -11.733433509789466]",11.733433509789462,-11.733433509789464,images/picture_3.png,2,"[-11.733433509789466, -11.733433509789462]",-11.733433509789464,-11.733433509789462,0,1,1,1.0794113242427414,2.079411324242741,0.9205886757572586,3.0,1,1.8294113242427412,0,4.0,3.0,1,2,0,0,0,0,0,6,6,1,,,,,,,253.22519062506035,253.22519062506035,254.22565720800776,255.0591896250844,255.29254412499722,255.29254412499722,255.29254412499722,256.2260014161002,256.2260014161002,256.2260014161002,256.2260014161002,257.2252848750213,200003,102,2023-03-24_12h47.59.021,DMS_et_12-36,2022.2.4,None,
3,PRED,12,1.0794113242427414,0,images/picture_1.png,images/picture_1.png,0,"[-11.733433509789462, 11.733433509789464]",-11.733433509789462,11.733433509789464,images/picture_2.png,1,"[11.733433509789462, -11.733433509789466]",11.733433509789462,-11.733433509789464,images/picture_3.png,2,"[11.733433509789464, 11.733433509789462]",11.733433509789464,11.733433509789462,0,1,1,1.0794113242427414,2.079411324242741,0.9205886757572586,3.0,1,1.8294113242427412,0,4.0,3.0,1,2,0,0,0,0,0,7,7,3,,,,,,,257.2252848750213,257.2252848750213,258.22560200002044,259.0590186660411,259.2924978330266,259.2924978330266,259.2924978330266,260.2257896660594,260.2257896660594,260.2257896660594,260.2257896660594,261.2252485000063,200003,102,2023-03-24_12h47.59.021,DMS_et_12-36,2022.2.4,None,
4,PRED,12,1.0794113242427414,0,images/picture_1.png,images/picture_1.png,0,"[11.733433509789464, 11.733433509789462]",11.733433509789464,11.733433509789462,images/picture_2.png,1,"[-11.733433509789462, 11.733433509789464]",-11.733433509789462,11.733433509789464,images/picture_3.png,2,"[11.733433509789462, -11.733433509789466]",11.733433509789462,-11.733433509789464,0,1,1,1.0794113242427414,2.079411324242741,0.9205886757572586,3.0,1,1.8294113242427412,0,4.0,3.0,1,2,0,0,0,0,0,8,8,4,,,,,,,261.2252485000063,261.2252485000063,262.2259463330265,263.05926300003193,263.2925475410884,263.2925475410884,263.2925475410884,264.22577516606543,264.22577516606543,264.22577516606543,264.22577516606543,265.24534295802005,200003,102,2023-03-24_12h47.59.021,DMS_et_12-36,2022.2.4,None,
,,,,,,,,,,,,,,,,,,,,,,,,,,,,,,,,,,,0,0,0,0,,,,,,,,,265.24534295802005,277.28309470799286,,,,,,,,,,,,,200003,102,2023-03-24_12h47.59.021,DMS_et_12-36,2022.2.4,None,
17,UNPRED,12,1.0794113242427414,2,images/picture_3.png,images/picture_1.png,0,"[11.733433509789464, 11.733433509789462]",11.733433509789464,11.733433509789462,images/picture_2.png,1,"[-11.733433509789466, -11.733433509789462]",-11.733433509789464,-11.733433509789462,images/picture_3.png,2,"[11.733433509789462, -11.733433509789466]",11.733433509789462,-11.733433509789464,0,1,1,1.0794113242427414,2.079411324242741,0.9205886757572586,3.0,1,1.8294113242427412,0,4.0,3.0,1,2,1,0,1,0,0,0,0,8,,,,,,,277.28309470799286,277.28309470799286,278.29232345800847,279.1257879580371,279.3451481660595,279.3451481660595,279.3451481660595,280.2783783330815,280.2783783330815,280.2783783330815,280.2783783330815,281.3108902500244,200003,102,2023-03-24_12h47.59.021,DMS_et_12-36,2022.2.4,None,
9,UNPRED,12,1.0794113242427414,2,images/picture_3.png,images/picture_1.png,0,"[11.733433509789462, -11.733433509789466]",11.733433509789462,-11.733433509789464,images/picture_2.png,1,"[-11.733433509789466, -11.733433509789462]",-11.733433509789464,-11.733433509789462,images/picture_3.png,2,"[11.733433509789464, 11.733433509789462]",11.733433509789464,11.733433509789462,0,1,1,1.0794113242427414,2.079411324242741,0.9205886757572586,3.0,1,1.8294113242427412,0,4.0,3.0,1,2,1,0,1,0,0,1,1,0,,,,,,,281.3108902500244,281.3108902500244,282.32597412506584,283.14504866604693,283.3593825000571,283.3593825000571,283.3593825000571,284.2922273330623,284.2922273330623,284.2922273330623,284.2922273330623,285.3118910409976,200003,102,2023-03-24_12h47.59.021,DMS_et_12-36,2022.2.4,None,
15,UNPRED,12,1.0794113242427414,2,images/picture_3.png,images/picture_1.png,0,"[-11.733433509789462, 11.733433509789464]",-11.733433509789462,11.733433509789464,images/picture_2.png,1,"[11.733433509789462, -11.733433509789466]",11.733433509789462,-11.733433509789464,images/picture_3.png,2,"[-11.733433509789466, -11.733433509789462]",-11.733433509789464,-11.733433509789462,0,1,1,1.0794113242427414,2.079411324242741,0.9205886757572586,3.0,1,1.8294113242427412,0,4.0,3.0,1,2,1,0,1,0,0,2,2,6,,,,,,,285.3118910409976,285.3118910409976,286.3260883750627,287.14523854106665,287.35928687499836,287.35928687499836,287.35928687499836,288.292700250051,288.292700250051,288.292700250051,288.292700250051,289.29235170804895,200003,102,2023-03-24_12h47.59.021,DMS_et_12-36,2022.2.4,None,
12,UNPRED,12,1.0794113242427414,0,images/picture_1.png,images/picture_1.png,0,"[11.733433509789462, -11.733433509789466]",11.733433509789462,-11.733433509789464,images/picture_2.png,1,"[-11.733433509789462, 11.733433509789464]",-11.733433509789462,11.733433509789464,images/picture_3.png,2,"[-11.733433509789466, -11.733433509789462]",-11.733433509789464,-11.733433509789462,0,1,1,1.0794113242427414,2.079411324242741,0.9205886757572586,3.0,1,1.8294113242427412,0,4.0,3.0,1,2,1,0,1,0,0,3,3,3,,,,,,,289.29235170804895,289.29235170804895,290.29246195801534,291.12599195807707,291.3592860830249,291.3592860830249,291.3592860830249,292.292575041065,292.292575041065,292.292575041065,292.292575041065,293.3114465830149,200003,102,2023-03-24_12h47.59.021,DMS_et_12-36,2022.2.4,None,
11,UNPRED,12,1.0794113242427414,2,images/picture_3.png,images/picture_1.png,0,"[11.733433509789462, -11.733433509789466]",11.733433509789462,-11.733433509789464,images/picture_2.png,1,"[-11.733433509789462, 11.733433509789464]",-11.733433509789462,11.733433509789464,images/picture_3.png,2,"[-11.733433509789466, -11.733433509789462]",-11.733433509789464,-11.733433509789462,0,1,1,1.0794113242427414,2.079411324242741,0.9205886757572586,3.0,1,1.8294113242427412,0,4.0,3.0,1,2,1,0,1,0,0,4,4,2,,,,,,,293.3114465830149,293.3114465830149,294.3260035830317,295.1454078750685,295.359280625009,295.359280625009,295.359280625009,296.29245791607536,296.29245791607536,296.29245791607536,296.29245791607536,297.3111087080324,200003,102,2023-03-24_12h47.59.021,DMS_et_12-36,2022.2.4,None,
14,UNPRED,12,1.0794113242427414,2,images/picture_3.png,images/picture_1.png,0,"[-11.733433509789466, -11.733433509789462]",-11.733433509789464,-11.733433509789462,images/picture_2.png,1,"[-11.733433509789462, 11.733433509789464]",-11.733433509789462,11.733433509789464,images/picture_3.png,2,"[11.733433509789462, -11.733433509789466]",11.733433509789462,-11.733433509789464,0,1,1,1.0794113242427414,2.079411324242741,0.9205886757572586,3.0,1,1.8294113242427412,0,4.0,3.0,1,2,1,0,1,0,0,5,5,5,,,,,,,297.3111087080324,297.3111087080324,298.3259719579946,299.14466295810416,299.3588777080877,299.3588777080877,299.3588777080877,300.29274395806715,300.29274395806715,300.29274395806715,300.29274395806715,301.3121697080787,200003,102,2023-03-24_12h47.59.021,DMS_et_12-36,2022.2.4,None,
16,UNPRED,12,1.0794113242427414,2,images/picture_3.png,images/picture_1.png,0,"[-11.733433509789466, -11.733433509789462]",-11.733433509789464,-11.733433509789462,images/picture_2.png,1,"[11.733433509789464, 11.733433509789462]",11.733433509789464,11.733433509789462,images/picture_3.png,2,"[11.733433509789462, -11.733433509789466]",11.733433509789462,-11.733433509789464,0,1,1,1.0794113242427414,2.079411324242741,0.9205886757572586,3.0,1,1.8294113242427412,0,4.0,3.0,1,2,1,0,1,0,0,6,6,7,,,,,,,301.3121697080787,301.3121697080787,302.32554874999914,303.14515070803463,303.35928683308885,303.35928683308885,303.35928683308885,304.2927588330349,304.2927588330349,304.2927588330349,304.2927588330349,305.29198383307084,200003,102,2023-03-24_12h47.59.021,DMS_et_12-36,2022.2.4,None,
10,UNPRED,12,1.0794113242427414,1,images/picture_2.png,images/picture_1.png,0,"[11.733433509789462, -11.733433509789466]",11.733433509789462,-11.733433509789464,images/picture_2.png,1,"[-11.733433509789462, 11.733433509789464]",-11.733433509789462,11.733433509789464,images/picture_3.png,2,"[-11.733433509789466, -11.733433509789462]",-11.733433509789464,-11.733433509789462,0,1,1,1.0794113242427414,2.079411324242741,0.9205886757572586,3.0,1,1.8294113242427412,0,4.0,3.0,1,2,1,0,1,0,0,7,7,1,,,,,,,305.29198383307084,305.29198383307084,306.29273695801385,307.1260033750441,307.3594878750155,307.3594878750155,307.3594878750155,308.29222691606265,308.29222691606265,308.29222691606265,308.29222691606265,309.29245158308186,200003,102,2023-03-24_12h47.59.021,DMS_et_12-36,2022.2.4,None,
13,UNPRED,12,1.0794113242427414,0,images/picture_1.png,images/picture_1.png,0,"[11.733433509789462, -11.733433509789466]",11.733433509789462,-11.733433509789464,images/picture_2.png,1,"[-11.733433509789462, 11.733433509789464]",-11.733433509789462,11.733433509789464,images/picture_3.png,2,"[-11.733433509789466, -11.733433509789462]",-11.733433509789464,-11.733433509789462,0,1,1,1.0794113242427414,2.079411324242741,0.9205886757572586,3.0,1,1.8294113242427412,0,4.0,3.0,1,2,1,0,1,0,0,8,8,4,,,,,,,309.29245158308186,309.29245158308186,310.2924753749976,311.1260281660361,311.3592997500673,311.3592997500673,311.3592997500673,312.29270820808597,312.29270820808597,312.29270820808597,312.29270820808597,313.3270083750831,200003,102,2023-03-24_12h47.59.021,DMS_et_12-36,2022.2.4,None,
,,,,,,,,,,,,,,,,,,,,,,,,,,,,,,,,,,,1,0,1,0,,,,,,,,,313.3270083750831,325.34521841607057,,,,,,,,,,,,,200003,102,2023-03-24_12h47.59.021,DMS_et_12-36,2022.2.4,None,
24,PRED,12,1.0794113242427414,1,images/picture_2.png,images/picture_1.png,0,"[-11.733433509789466, -11.733433509789462]",-11.733433509789464,-11.733433509789462,images/picture_2.png,1,"[11.733433509789462, -11.733433509789466]",11.733433509789462,-11.733433509789464,images/picture_3.png,2,"[-11.733433509789462, 11.733433509789464]",-11.733433509789462,11.733433509789464,0,1,1,1.0794113242427414,2.079411324242741,0.9205886757572586,3.0,1,1.8294113242427412,0,4.0,3.0,1,2,2,0,2,0,0,0,0,6,,,,,,,325.34521841607057,325.34521841607057,326.359306291095,327.17849962506443,327.42623237508815,327.42623237508815,327.42623237508815,328.3594552500872,328.3594552500872,328.3594552500872,328.34539075009525,329.358846749994,200003,102,2023-03-24_12h47.59.021,DMS_et_12-36,2022.2.4,None,
22,PRED,12,1.0794113242427414,1,images/picture_2.png,images/picture_1.png,0,"[11.733433509789464, 11.733433509789462]",11.733433509789464,11.733433509789462,images/picture_2.png,1,"[-11.733433509789466, -11.733433509789462]",-11.733433509789464,-11.733433509789462,images/picture_3.png,2,"[-11.733433509789462, 11.733433509789464]",-11.733433509789462,11.733433509789464,0,1,1,1.0794113242427414,2.079411324242741,0.9205886757572586,3.0,1,1.8294113242427412,0,4.0,3.0,1,2,2,0,2,0,0,1,1,4,,,,,,,329.358846749994,329.358846749994,330.359140916029,331.1927530830726,331.426051166025,331.426051166025,331.426051166025,332.3594777500257,332.3594777500257,332.3594777500257,332.3594777500257,333.35982454102486,200003,102,2023-03-24_12h47.59.021,DMS_et_12-36,2022.2.4,None,
19,PRED,12,1.0794113242427414,1,images/picture_2.png,images/picture_1.png,0,"[11.733433509789462, -11.733433509789466]",11.733433509789462,-11.733433509789464,images/picture_2.png,1,"[-11.733433509789466, -11.733433509789462]",-11.733433509789464,-11.733433509789462,images/picture_3.png,2,"[11.733433509789464, 11.733433509789462]",11.733433509789464,11.733433509789462,0,1,1,1.0794113242427414,2.079411324242741,0.9205886757572586,3.0,1,1.8294113242427412,0,4.0,3.0,1,2,2,0,2,0,0,2,2,1,,,,,,,333.35982454102486,333.35982454102486,334.3594760000706,335.19266016606707,335.4260314160492,335.4260314160492,335.4260314160492,336.3595045830589,336.3595045830589,336.3595045830589,336.3595045830589,337.35894229100086,200003,102,2023-03-24_12h47.59.021,DMS_et_12-36,2022.2.4,None,
26,PRED,12,1.0794113242427414,1,images/picture_2.png,images/picture_1.png,0,"[-11.733433509789466, -11.733433509789462]",-11.733433509789464,-11.733433509789462,images/picture_2.png,1,"[-11.733433509789462, 11.733433509789464]",-11.733433509789462,11.733433509789464,images/picture_3.png,2,"[11.733433509789464, 11.733433509789462]",11.733433509789464,11.733433509789462,0,1,1,1.0794113242427414,2.079411324242741,0.9205886757572586,3.0,1,1.8294113242427412,0,4.0,3.0,1,2,2,0,2,0,0,3,3,8,,,,,,,337.35894229100086,337.35894229100086,338.35945666604675,339.1930348330643,339.42621162510477,339.42621162510477,339.42621162510477,340.3591979580233,340.3591979580233,340.3591979580233,340.3591979580233,341.3588480000617,200003,102,2023-03-24_12h47.59.021,DMS_et_12-36,2022.2.4,None,
23,PRED,12,1.0794113242427414,1,images/picture_2.png,images/picture_1.png,0,"[11.733433509789462, -11.733433509789466]",11.733433509789462,-11.733433509789464,images/picture_2.png,1,"[-11.733433509789466, -11.733433509789462]",-11.733433509789464,-11.733433509789462,images/picture_3.png,2,"[11.733433509789464, 11.733433509789462]",11.733433509789464,11.733433509789462,0,1,1,1.0794113242427414,2.079411324242741,0.9205886757572586,3.0,1,1.8294113242427412,0,4.0,3.0,1,2,2,0,2,0,0,4,4,5,,,,,,,341.3588480000617,341.3588480000617,342.3595924580004,343.19277883309405,343.42623995803297,343.42623995803297,343.42623995803297,344.35950275009964,344.35950275009964,344.35950275009964,344.35950275009964,345.35900900000706,200003,102,2023-03-24_12h47.59.021,DMS_et_12-36,2022.2.4,None,
21,PRED,12,1.0794113242427414,1,images/picture_2.png,images/picture_1.png,0,"[11.733433509789462, -11.733433509789466]",11.733433509789462,-11.733433509789464,images/picture_2.png,1,"[-11.733433509789466, -11.733433509789462]",-11.733433509789464,-11.733433509789462,images/picture_3.png,2,"[11.733433509789464, 11.733433509789462]",11.733433509789464,11.733433509789462,0,1,1,1.0794113242427414,2.079411324242741,0.9205886757572586,3.0,1,1.8294113242427412,0,4.0,3.0,1,2,2,0,2,0,0,5,5,3,,,,,,,345.35900900000706,345.35900900000706,346.3594872910762,347.1927388330223,347.4262539159972,347.4262539159972,347.4262539159972,348.35960950003937,348.35960950003937,348.35960950003937,348.35960950003937,349.35925662505906,200003,102,2023-03-24_12h47.59.021,DMS_et_12-36,2022.2.4,None,
20,PRED,12,1.0794113242427414,1,images/picture_2.png,images/picture_1.png,0,"[11.733433509789464, 11.733433509789462]",11.733433509789464,11.733433509789462,images/picture_2.png,1,"[-11.733433509789466, -11.733433509789462]",-11.733433509789464,-11.733433509789462,images/picture_3.png,2,"[11.733433509789462, -11.733433509789466]",11.733433509789462,-11.733433509789464,0,1,1,1.0794113242427414,2.079411324242741,0.9205886757572586,3.0,1,1.8294113242427412,0,4.0,3.0,1,2,2,0,2,0,0,6,6,2,,,,,,,349.35925662505906,349.35925662505906,350.359152500052,351.19260570802726,351.42627791606355,351.42627791606355,351.42627791606355,352.35949362500105,352.35949362500105,352.35949362500105,352.35949362500105,353.3589551660698,200003,102,2023-03-24_12h47.59.021,DMS_et_12-36,2022.2.4,None,
25,PRED,12,1.0794113242427414,1,images/picture_2.png,images/picture_1.png,0,"[11.733433509789462, -11.733433509789466]",11.733433509789462,-11.733433509789464,images/picture_2.png,1,"[-11.733433509789466, -11.733433509789462]",-11.733433509789464,-11.733433509789462,images/picture_3.png,2,"[11.733433509789464, 11.733433509789462]",11.733433509789464,11.733433509789462,0,1,1,1.0794113242427414,2.079411324242741,0.9205886757572586,3.0,1,1.8294113242427412,0,4.0,3.0,1,2,2,0,2,0,0,7,7,7,,,,,,,353.3589551660698,353.3589551660698,354.35952779103536,355.19299429107923,355.4264011250343,355.4264011250343,355.4264011250343,356.3595290830126,356.3595290830126,356.3595290830126,356.3595290830126,357.35903466609307,200003,102,2023-03-24_12h47.59.021,DMS_et_12-36,2022.2.4,None,
18,PRED,12,1.0794113242427414,1,images/picture_2.png,images/picture_1.png,0,"[-11.733433509789462, 11.733433509789464]",-11.733433509789462,11.733433509789464,images/picture_2.png,1,"[-11.733433509789466, -11.733433509789462]",-11.733433509789464,-11.733433509789462,images/picture_3.png,2,"[11.733433509789462, -11.733433509789466]",11.733433509789462,-11.733433509789464,0,1,1,1.0794113242427414,2.079411324242741,0.9205886757572586,3.0,1,1.8294113242427412,0,4.0,3.0,1,2,2,0,2,0,0,8,8,0,,,,,,,357.35903466609307,357.35903466609307,358.3597616250627,359.1927051660605,359.426234500017,359.426234500017,359.426234500017,360.35939762508497,360.35939762508497,360.35939762508497,360.35939762508497,361.3842979579931,200003,102,2023-03-24_12h47.59.021,DMS_et_12-36,2022.2.4,None,
,,,,,,,,,,,,,,,,,,,,,,,,,,,,,,,,,,,2,0,2,0,,,,,,,,,361.3842979579931,373.4114060830325,,,,,,,,,,,,,200003,102,2023-03-24_12h47.59.021,DMS_et_12-36,2022.2.4,None,
32,UNPRED,12,1.0794113242427414,0,images/picture_1.png,images/picture_1.png,0,"[11.733433509789464, 11.733433509789462]",11.733433509789464,11.733433509789462,images/picture_2.png,1,"[-11.733433509789462, 11.733433509789464]",-11.733433509789462,11.733433509789464,images/picture_3.png,2,"[-11.733433509789466, -11.733433509789462]",-11.733433509789464,-11.733433509789462,0,1,1,1.0794113242427414,2.079411324242741,0.9205886757572586,3.0,1,1.8294113242427412,0,4.0,3.0,1,2,3,0,3,0,0,0,0,5,,,,,,,373.4114060830325,373.4114060830325,374.4262775410898,375.24522487504873,375.49300387501717,375.49300387501717,375.49300387501717,376.4263374580769,376.4263374580769,376.4263374580769,376.41241787502076,377.42496545799077,200003,102,2023-03-24_12h47.59.021,DMS_et_12-36,2022.2.4,None,
30,UNPRED,12,1.0794113242427414,1,images/picture_2.png,images/picture_1.png,0,"[-11.733433509789466, -11.733433509789462]",-11.733433509789464,-11.733433509789462,images/picture_2.png,1,"[-11.733433509789462, 11.733433509789464]",-11.733433509789462,11.733433509789464,images/picture_3.png,2,"[11.733433509789464, 11.733433509789462]",11.733433509789464,11.733433509789462,0,1,1,1.0794113242427414,2.079411324242741,0.9205886757572586,3.0,1,1.8294113242427412,0,4.0,3.0,1,2,3,0,3,0,0,1,1,3,,,,,,,377.42496545799077,377.42496545799077,378.42632625007536,379.25972195807844,379.49301641609054,379.49301641609054,379.49301641609054,380.42629812506493,380.42629812506493,380.42629812506493,380.42629812506493,381.4452748330077,200003,102,2023-03-24_12h47.59.021,DMS_et_12-36,2022.2.4,None,
29,UNPRED,12,1.0794113242427414,2,images/picture_3.png,images/picture_1.png,0,"[11.733433509789464, 11.733433509789462]",11.733433509789464,11.733433509789462,images/picture_2.png,1,"[-11.733433509789466, -11.733433509789462]",-11.733433509789464,-11.733433509789462,images/picture_3.png,2,"[11.733433509789462, -11.733433509789466]",11.733433509789462,-11.733433509789464,0,1,1,1.0794113242427414,2.079411324242741,0.9205886757572586,3.0,1,1.8294113242427412,0,4.0,3.0,1,2,3,0,3,0,0,2,2,2,,,,,,,381.4452748330077,381.4452748330077,382.45972258306574,383.27865220804233,383.4930046250811,383.4930046250811,383.4930046250811,384.4262678330997,384.4262678330997,384.4262678330997,384.4262678330997,385.4263215831015,200003,102,2023-03-24_12h47.59.021,DMS_et_12-36,2022.2.4,None,
33,UNPRED,12,1.0794113242427414,1,images/picture_2.png,images/picture_1.png,0,"[11.733433509789462, -11.733433509789466]",11.733433509789462,-11.733433509789464,images/picture_2.png,1,"[-11.733433509789462, 11.733433509789464]",-11.733433509789462,11.733433509789464,images/picture_3.png,2,"[11.733433509789464, 11.733433509789462]",11.733433509789464,11.733433509789462,0,1,1,1.0794113242427414,2.079411324242741,0.9205886757572586,3.0,1,1.8294113242427412,0,4.0,3.0,1,2,3,0,3,0,0,3,3,6,,,,,,,385.4263215831015,385.4263215831015,386.42632941599004,387.25973845808767,387.49300500005484,387.49300500005484,387.49300500005484,388.4263024580432,388.4263024580432,388.4263024580432,388.4263024580432,389.42574366601184,200003,102,2023-03-24_12h47.59.021,DMS_et_12-36,2022.2.4,None,
27,UNPRED,12,1.0794113242427414,1,images/picture_2.png,images/picture_1.png,0,"[-11.733433509789462, 11.733433509789464]",-11.733433509789462,11.733433509789464,images/picture_2.png,1,"[-11.733433509789466, -11.733433509789462]",-11.733433509789464,-11.733433509789462,images/picture_3.png,2,"[11.733433509789464, 11.733433509789462]",11.733433509789464,11.733433509789462,0,1,1,1.0794113242427414,2.079411324242741,0.9205886757572586,3.0,1,1.8294113242427412,0,4.0,3.0,1,2,3,0,3,0,0,4,4,0,,,,,,,389.42574366601184,389.42574366601184,390.4264061660506,391.25937858305406,391.49291987507604,391.49291987507604,391.49291987507604,392.42635425005574,392.42635425005574,392.42635425005574,392.42635425005574,393.42583654099144,200003,102,2023-03-24_12h47.59.021,DMS_et_12-36,2022.2.4,None,
35,UNPRED,12,1.0794113242427414,0,images/picture_1.png,images/picture_1.png,0,"[-11.733433509789462, 11.733433509789464]",-11.733433509789462,11.733433509789464,images/picture_2.png,1,"[11.733433509789464, 11.733433509789462]",11.733433509789464,11.733433509789462,images/picture_3.png,2,"[-11.733433509789466, -11.733433509789462]",-11.733433509789464,-11.733433509789462,0,1,1,1.0794113242427414,2.079411324242741,0.9205886757572586,3.0,1,1.8294113242427412,0,4.0,3.0,1,2,3,0,3,0,0,5,5,8,,,,,,,393.42583654099144,393.42583654099144,394.4262904160423,395.2595852080267,395.49302879103925,395.49302879103925,395.49302879103925,396.4264883750584,396.4264883750584,396.4264883750584,396.4264883750584,397.4449510410195,200003,102,2023-03-24_12h47.59.021,DMS_et_12-36,2022.2.4,None,
34,UNPRED,12,1.0794113242427414,2,images/picture_3.png,images/picture_1.png,0,"[-11.733433509789466, -11.733433509789462]",-11.733433509789464,-11.733433509789462,images/picture_2.png,1,"[-11.733433509789462, 11.733433509789464]",-11.733433509789462,11.733433509789464,images/picture_3.png,2,"[11.733433509789464, 11.733433509789462]",11.733433509789464,11.733433509789462,0,1,1,1.0794113242427414,2.079411324242741,0.9205886757572586,3.0,1,1.8294113242427412,0,4.0,3.0,1,2,3,0,3,0,0,6,6,7,,,,,,,397.4449510410195,397.4449510410195,398.45972625003196,399.2792099160142,399.4930460000178,399.4930460000178,399.4930460000178,400.42646412504837,400.42646412504837,400.42646412504837,400.42646412504837,401.4261306250701,200003,102,2023-03-24_12h47.59.021,DMS_et_12-36,2022.2.4,None,
28,UNPRED,12,1.0794113242427414,2,images/picture_3.png,images/picture_1.png,0,"[11.733433509789464, 11.733433509789462]",11.733433509789464,11.733433509789462,images/picture_2.png,1,"[11.733433509789462, -11.733433509789466]",11.733433509789462,-11.733433509789464,images/picture_3.png,2,"[-11.733433509789462, 11.733433509789464]",-11.733433509789462,11.733433509789464,0,1,1,1.0794113242427414,2.079411324242741,0.9205886757572586,3.0,1,1.8294113242427412,0,4.0,3.0,1,2,3,0,3,0,0,7,7,1,,,,,,,401.4261306250701,401.4261306250701,402.426165083074,403.259762291098,403.49299583304673,403.49299583304673,403.49299583304673,404.426458416041,404.426458416041,404.426458416041,404.426458416041,405.4274355410598,200003,102,2023-03-24_12h47.59.021,DMS_et_12-36,2022.2.4,None,
31,UNPRED,12,1.0794113242427414,1,images/picture_2.png,images/picture_1.png,0,"[11.733433509789462, -11.733433509789466]",11.733433509789462,-11.733433509789464,images/picture_2.png,1,"[-11.733433509789466, -11.733433509789462]",-11.733433509789464,-11.733433509789462,images/picture_3.png,2,"[-11.733433509789462, 11.733433509789464]",-11.733433509789462,11.733433509789464,0,1,1,1.0794113242427414,2.079411324242741,0.9205886757572586,3.0,1,1.8294113242427412,0,4.0,3.0,1,2,3,0,3,0,0,8,8,4,,,,,,,405.4274355410598,405.4274355410598,406.4263323750347,407.25960420805495,407.49313041602727,407.49313041602727,407.49313041602727,408.4265019580489,408.4265019580489,408.4265019580489,408.4265019580489,409.4775678330334,200003,102,2023-03-24_12h47.59.021,DMS_et_12-36,2022.2.4,None,
,,,,,,,,,,,,,,,,,,,,,,,,,,,,,,,,,,,3,0,3,0,,,,,,,,,409.4775678330334,421.5147998330649,,,,,,,,,,,,,200003,102,2023-03-24_12h47.59.021,DMS_et_12-36,2022.2.4,None,
39,PRED,12,1.0794113242427414,0,images/picture_1.png,images/picture_1.png,0,"[11.733433509789464, 11.733433509789462]",11.733433509789464,11.733433509789462,images/picture_2.png,1,"[-11.733433509789466, -11.733433509789462]",-11.733433509789464,-11.733433509789462,images/picture_3.png,2,"[11.733433509789462, -11.733433509789466]",11.733433509789462,-11.733433509789464,0,1,1,1.0794113242427414,2.079411324242741,0.9205886757572586,3.0,1,1.8294113242427412,0,4.0,3.0,1,2,4,0,4,0,0,0,0,3,,,,,,,421.5147998330649,421.5147998330649,422.52620449999813,423.3597803330049,423.59320529107936,423.59320529107936,423.59320529107936,424.5265442500822,424.5265442500822,424.5265442500822,424.5122043330921,425.52589162508957,200003,102,2023-03-24_12h47.59.021,DMS_et_12-36,2022.2.4,None,
40,PRED,12,1.0794113242427414,0,images/picture_1.png,images/picture_1.png,0,"[11.733433509789462, -11.733433509789466]",11.733433509789462,-11.733433509789464,images/picture_2.png,1,"[11.733433509789464, 11.733433509789462]",11.733433509789464,11.733433509789462,images/picture_3.png,2,"[-11.733433509789466, -11.733433509789462]",-11.733433509789464,-11.733433509789462,0,1,1,1.0794113242427414,2.079411324242741,0.9205886757572586,3.0,1,1.8294113242427412,0,4.0,3.0,1,2,4,0,4,0,0,1,1,4,,,,,,,425.52589162508957,425.52589162508957,426.52653412509244,427.3597620410146,427.59320066601504,427.59320066601504,427.59320066601504,428.52644250006415,428.52644250006415,428.52644250006415,428.52644250006415,429.52590033307206,200003,102,2023-03-24_12h47.59.021,DMS_et_12-36,2022.2.4,None,
44,PRED,12,1.0794113242427414,0,images/picture_1.png,images/picture_1.png,0,"[11.733433509789464, 11.733433509789462]",11.733433509789464,11.733433509789462,images/picture_2.png,1,"[-11.733433509789466, -11.733433509789462]",-11.733433509789464,-11.733433509789462,images/picture_3.png,2,"[11.733433509789462, -11.733433509789466]",11.733433509789462,-11.733433509789464,0,1,1,1.0794113242427414,2.079411324242741,0.9205886757572586,3.0,1,1.8294113242427412,0,4.0,3.0,1,2,4,0,4,0,0,2,2,8,,,,,,,429.52590033307206,429.52590033307206,430.5265388750704,431.35976325010415,431.5932648750022,431.5932648750022,431.5932648750022,432.52621470799204,432.52621470799204,432.52621470799204,432.52621470799204,433.5260537910508,200003,102,2023-03-24_12h47.59.021,DMS_et_12-36,2022.2.4,None,
38,PRED,12,1.0794113242427414,0,images/picture_1.png,images/picture_1.png,0,"[11.733433509789462, -11.733433509789466]",11.733433509789462,-11.733433509789464,images/picture_2.png,1,"[-11.733433509789466, -11.733433509789462]",-11.733433509789464,-11.733433509789462,images/picture_3.png,2,"[11.733433509789464, 11.733433509789462]",11.733433509789464,11.733433509789462,0,1,1,1.0794113242427414,2.079411324242741,0.9205886757572586,3.0,1,1.8294113242427412,0,4.0,3.0,1,2,4,0,4,0,0,3,3,2,,,,,,,433.5260537910508,433.5260537910508,434.5265086659929,435.35996241599787,435.59330175002106,435.59330175002106,435.59330175002106,436.52646237506997,436.52646237506997,436.52646237506997,436.52646237506997,437.5261974580353,200003,102,2023-03-24_12h47.59.021,DMS_et_12-36,2022.2.4,None,
36,PRED,12,1.0794113242427414,0,images/picture_1.png,images/picture_1.png,0,"[11.733433509789464, 11.733433509789462]",11.733433509789464,11.733433509789462,images/picture_2.png,1,"[-11.733433509789462, 11.733433509789464]",-11.733433509789462,11.733433509789464,images/picture_3.png,2,"[11.733433509789462, -11.733433509789466]",11.733433509789462,-11.733433509789464,0,1,1,1.0794113242427414,2.079411324242741,0.9205886757572586,3.0,1,1.8294113242427412,0,4.0,3.0,1,2,4,0,4,0,0,4,4,0,,,,,,,437.5261974580353,437.5261974580353,438.5265618750127,439.359782790998,439.59317595802713,439.59317595802713,439.59317595802713,440.52652325003874,440.52652325003874,440.52652325003874,440.52652325003874,441.5260369160678,200003,102,2023-03-24_12h47.59.021,DMS_et_12-36,2022.2.4,None,
42,PRED,12,1.0794113242427414,0,images/picture_1.png,images/picture_1.png,0,"[11.733433509789464, 11.733433509789462]",11.733433509789464,11.733433509789462,images/picture_2.png,1,"[-11.733433509789466, -11.733433509789462]",-11.733433509789464,-11.733433509789462,images/picture_3.png,2,"[-11.733433509789462, 11.733433509789464]",-11.733433509789462,11.733433509789464,0,1,1,1.0794113242427414,2.079411324242741,0.9205886757572586,3.0,1,1.8294113242427412,0,4.0,3.0,1,2,4,0,4,0,0,5,5,6,,,,,,,441.5260369160678,441.5260369160678,442.52622929099016,443.3596915000817,443.5930842080852,443.5930842080852,443.5930842080852,444.5265183330048,444.5265183330048,444.5265183330048,444.5265183330048,445.52598616608884,200003,102,2023-03-24_12h47.59.021,DMS_et_12-36,2022.2.4,None,
37,PRED,12,1.0794113242427414,0,images/picture_1.png,images/picture_1.png,0,"[11.733433509789462, -11.733433509789466]",11.733433509789462,-11.733433509789464,images/picture_2.png,1,"[11.733433509789464, 11.733433509789462]",11.733433509789464,11.733433509789462,images/picture_3.png,2,"[-11.733433509789466, -11.733433509789462]",-11.733433509789464,-11.733433509789462,0,1,1,1.0794113242427414,2.079411324242741,0.9205886757572586,3.0,1,1.8294113242427412,0,4.0,3.0,1,2,4,0,4,0,0,6,6,1,,,,,,,445.52598616608884,445.52598616608884,446.5265093750786,447.35998316609766,447.5932330409996,447.5932330409996,447.5932330409996,448.52651579107624,448.52651579107624,448.52651579107624,448.52651579107624,449.5259645830374,200003,102,2023-03-24_12h47.59.021,DMS_et_12-36,2022.2.4,None,
43,PRED,12,1.0794113242427414,0,images/picture_1.png,images/picture_1.png,0,"[11.733433509789464, 11.733433509789462]",11.733433509789464,11.733433509789462,images/picture_2.png,1,"[-11.733433509789466, -11.733433509789462]",-11.733433509789464,-11.733433509789462,images/picture_3.png,2,"[-11.733433509789462, 11.733433509789464]",-11.733433509789462,11.733433509789464,0,1,1,1.0794113242427414,2.079411324242741,0.9205886757572586,3.0,1,1.8294113242427412,0,4.0,3.0,1,2,4,0,4,0,0,7,7,7,,,,,,,449.5259645830374,449.5259645830374,450.52668004110456,451.35996670799796,451.59325416607317,451.59325416607317,451.59325416607317,452.5264960411005,452.5264960411005,452.5264960411005,452.5264960411005,453.5262144160224,200003,102,2023-03-24_12h47.59.021,DMS_et_12-36,2022.2.4,None,
41,PRED,12,1.0794113242427414,0,images/picture_1.png,images/picture_1.png,0,"[-11.733433509789466, -11.733433509789462]",-11.733433509789464,-11.733433509789462,images/picture_2.png,1,"[11.733433509789462, -11.733433509789466]",11.733433509789462,-11.733433509789464,images/picture_3.png,2,"[-11.733433509789462, 11.733433509789464]",-11.733433509789462,11.733433509789464,0,1,1,1.0794113242427414,2.079411324242741,0.9205886757572586,3.0,1,1.8294113242427412,0,4.0,3.0,1,2,4,0,4,0,0,8,8,5,,,,,,,453.5262144160224,453.5262144160224,454.52652916603256,455.35975699999835,455.5932690410409,455.5932690410409,455.5932690410409,456.52652162499726,456.52652162499726,456.52652162499726,456.52652162499726,457.6350116250105,200003,102,2023-03-24_12h47.59.021,DMS_et_12-36,2022.2.4,None,
,,,,,,,,,,,,,,,,,,,,,,,,,,,,,,,,,,,4,0,4,0,,,,,,,,,457.6350116250105,469.66123404109385,,,,,,,,,,,,,200003,102,2023-03-24_12h47.59.021,DMS_et_12-36,2022.2.4,None,
51,UNPRED,12,1.0794113242427414,0,images/picture_1.png,images/picture_1.png,0,"[-11.733433509789466, -11.733433509789462]",-11.733433509789464,-11.733433509789462,images/picture_2.png,1,"[11.733433509789462, -11.733433509789466]",11.733433509789462,-11.733433509789464,images/picture_3.png,2,"[-11.733433509789462, 11.733433509789464]",-11.733433509789462,11.733433509789464,0,1,1,1.0794113242427414,2.079411324242741,0.9205886757572586,3.0,1,1.8294113242427412,0,4.0,3.0,1,2,5,0,5,0,0,0,0,6,,,,,,,469.66123404109385,469.66123404109385,470.6600293330848,471.4932601660257,471.7456935410155,471.7456935410155,471.7456935410155,472.67941995803267,472.67941995803267,472.67941995803267,472.6599649160635,473.6597465000814,200003,102,2023-03-24_12h47.59.021,DMS_et_12-36,2022.2.4,None,
50,UNPRED,12,1.0794113242427414,0,images/picture_1.png,images/picture_1.png,0,"[-11.733433509789466, -11.733433509789462]",-11.733433509789464,-11.733433509789462,images/picture_2.png,1,"[-11.733433509789462, 11.733433509789464]",-11.733433509789462,11.733433509789464,images/picture_3.png,2,"[11.733433509789464, 11.733433509789462]",11.733433509789464,11.733433509789462,0,1,1,1.0794113242427414,2.079411324242741,0.9205886757572586,3.0,1,1.8294113242427412,0,4.0,3.0,1,2,5,0,5,0,0,1,1,5,,,,,,,473.6597465000814,473.6597465000814,474.6600225000875,475.49333883309737,475.72652312507853,475.72652312507853,475.72652312507853,476.66006208304316,476.66006208304316,476.66006208304316,476.66006208304316,477.65956770803314,200003,102,2023-03-24_12h47.59.021,DMS_et_12-36,2022.2.4,None,
53,UNPRED,12,1.0794113242427414,1,images/picture_2.png,images/picture_1.png,0,"[-11.733433509789466, -11.733433509789462]",-11.733433509789464,-11.733433509789462,images/picture_2.png,1,"[-11.733433509789462, 11.733433509789464]",-11.733433509789462,11.733433509789464,images/picture_3.png,2,"[11.733433509789462, -11.733433509789466]",11.733433509789462,-11.733433509789464,0,1,1,1.0794113242427414,2.079411324242741,0.9205886757572586,3.0,1,1.8294113242427412,0,4.0,3.0,1,2,5,0,5,0,0,2,2,8,,,,,,,477.65956770803314,477.65956770803314,478.66001750004943,479.49325658299495,479.7267438330455,479.7267438330455,479.7267438330455,480.6600213330239,480.6600213330239,480.6600213330239,480.6600213330239,481.67886312503833,200003,102,2023-03-24_12h47.59.021,DMS_et_12-36,2022.2.4,None,
45,UNPRED,12,1.0794113242427414,2,images/picture_3.png,images/picture_1.png,0,"[-11.733433509789466, -11.733433509789462]",-11.733433509789464,-11.733433509789462,images/picture_2.png,1,"[11.733433509789462, -11.733433509789466]",11.733433509789462,-11.733433509789464,images/picture_3.png,2,"[11.733433509789464, 11.733433509789462]",11.733433509789464,11.733433509789462,0,1,1,1.0794113242427414,2.079411324242741,0.9205886757572586,3.0,1,1.8294113242427412,0,4.0,3.0,1,2,5,0,5,0,0,3,3,0,,,,,,,481.67886312503833,481.67886312503833,482.69346537499223,483.5127509160666,483.7263635410927,483.7263635410927,483.7263635410927,484.6597661660053,484.6597661660053,484.6597661660053,484.6597661660053,485.6596525000641,200003,102,2023-03-24_12h47.59.021,DMS_et_12-36,2022.2.4,None,
52,UNPRED,12,1.0794113242427414,1,images/picture_2.png,images/picture_1.png,0,"[-11.733433509789462, 11.733433509789464]",-11.733433509789462,11.733433509789464,images/picture_2.png,1,"[11.733433509789462, -11.733433509789466]",11.733433509789462,-11.733433509789464,images/picture_3.png,2,"[11.733433509789464, 11.733433509789462]",11.733433509789464,11.733433509789462,0,1,1,1.0794113242427414,2.079411324242741,0.9205886757572586,3.0,1,1.8294113242427412,0,4.0,3.0,1,2,5,0,5,0,0,4,4,7,,,,,,,485.6596525000641,485.6596525000641,486.66002912505064,487.49333741609007,487.72679137508385,487.72679137508385,487.72679137508385,488.6600505000679,488.6600505000679,488.6600505000679,488.6600505000679,489.659481208073,200003,102,2023-03-24_12h47.59.021,DMS_et_12-36,2022.2.4,None,
49,UNPRED,12,1.0794113242427414,1,images/picture_2.png,images/picture_1.png,0,"[11.733433509789464, 11.733433509789462]",11.733433509789464,11.733433509789462,images/picture_2.png,1,"[-11.733433509789462, 11.733433509789464]",-11.733433509789462,11.733433509789464,images/picture_3.png,2,"[11.733433509789462, -11.733433509789466]",11.733433509789462,-11.733433509789464,0,1,1,1.0794113242427414,2.079411324242741,0.9205886757572586,3.0,1,1.8294113242427412,0,4.0,3.0,1,2,5,0,5,0,0,5,5,4,,,,,,,489.659481208073,489.659481208073,490.66005408309866,491.4934695000993,491.7268505000975,491.7268505000975,491.7268505000975,492.66001591610257,492.66001591610257,492.66001591610257,492.66001591610257,493.6590227501001,200003,102,2023-03-24_12h47.59.021,DMS_et_12-36,2022.2.4,None,
46,UNPRED,12,1.0794113242427414,0,images/picture_1.png,images/picture_1.png,0,"[11.733433509789462, -11.733433509789466]",11.733433509789462,-11.733433509789464,images/picture_2.png,1,"[-11.733433509789466, -11.733433509789462]",-11.733433509789464,-11.733433509789462,images/picture_3.png,2,"[-11.733433509789462, 11.733433509789464]",-11.733433509789462,11.733433509789464,0,1,1,1.0794113242427414,2.079411324242741,0.9205886757572586,3.0,1,1.8294113242427412,0,4.0,3.0,1,2,5,0,5,0,0,6,6,1,,,,,,,493.6590227501001,493.6590227501001,494.65983595803846,495.4934987910092,495.72661320806947,495.72661320806947,495.72661320806947,496.66007820807863,496.66007820807863,496.66007820807863,496.66007820807863,497.65906470804475,200003,102,2023-03-24_12h47.59.021,DMS_et_12-36,2022.2.4,None,
47,UNPRED,12,1.0794113242427414,1,images/picture_2.png,images/picture_1.png,0,"[11.733433509789462, -11.733433509789466]",11.733433509789462,-11.733433509789464,images/picture_2.png,1,"[-11.733433509789466, -11.733433509789462]",-11.733433509789464,-11.733433509789462,images/picture_3.png,2,"[-11.733433509789462, 11.733433509789464]",-11.733433509789462,11.733433509789464,0,1,1,1.0794113242427414,2.079411324242741,0.9205886757572586,3.0,1,1.8294113242427412,0,4.0,3.0,1,2,5,0,5,0,0,7,7,2,,,,,,,497.65906470804475,497.65906470804475,498.6600646660663,499.49348616600037,499.7267344160937,499.7267344160937,499.7267344160937,500.66004058299586,500.66004058299586,500.66004058299586,500.66004058299586,501.659486083081,200003,102,2023-03-24_12h47.59.021,DMS_et_12-36,2022.2.4,None,
48,UNPRED,12,1.0794113242427414,1,images/picture_2.png,images/picture_1.png,0,"[-11.733433509789462, 11.733433509789464]",-11.733433509789462,11.733433509789464,images/picture_2.png,1,"[11.733433509789462, -11.733433509789466]",11.733433509789462,-11.733433509789464,images/picture_3.png,2,"[-11.733433509789466, -11.733433509789462]",-11.733433509789464,-11.733433509789462,0,1,1,1.0794113242427414,2.079411324242741,0.9205886757572586,3.0,1,1.8294113242427412,0,4.0,3.0,1,2,5,0,5,0,0,8,8,3,,,,,,,501.659486083081,501.659486083081,502.6602005000459,503.4935039160773,503.72681462508626,503.72681462508626,503.72681462508626,504.6599192910362,504.6599192910362,504.6599192910362,504.6599192910362,505.7289249160094,200003,102,2023-03-24_12h47.59.021,DMS_et_12-36,2022.2.4,None,
,,,,,,,,,,,,,,,,,,,,,,,,,,,,,,,,,,,5,0,5,0,,,,,,,,,505.7289249160094,517.747105125105,,,,,,,,,,,,,200003,102,2023-03-24_12h47.59.021,DMS_et_12-36,2022.2.4,None,
60,PRED,12,1.0794113242427414,1,images/picture_2.png,images/picture_1.png,0,"[11.733433509789464, 11.733433509789462]",11.733433509789464,11.733433509789462,images/picture_2.png,1,"[-11.733433509789466, -11.733433509789462]",-11.733433509789464,-11.733433509789462,images/picture_3.png,2,"[11.733433509789462, -11.733433509789466]",11.733433509789462,-11.733433509789464,0,1,1,1.0794113242427414,2.079411324242741,0.9205886757572586,3.0,1,1.8294113242427412,0,4.0,3.0,1,2,6,0,6,0,0,0,0,6,,,,,,,517.747105125105,517.747105125105,518.7603465830907,519.5797362080775,519.8267166659934,519.8267166659934,519.8267166659934,520.7599917080952,520.7599917080952,520.7599917080952,520.7460550830001,521.7597237910377,200003,102,2023-03-24_12h47.59.021,DMS_et_12-36,2022.2.4,None,
57,PRED,12,1.0794113242427414,1,images/picture_2.png,images/picture_1.png,0,"[-11.733433509789466, -11.733433509789462]",-11.733433509789464,-11.733433509789462,images/picture_2.png,1,"[11.733433509789462, -11.733433509789466]",11.733433509789462,-11.733433509789464,images/picture_3.png,2,"[11.733433509789464, 11.733433509789462]",11.733433509789464,11.733433509789462,0,1,1,1.0794113242427414,2.079411324242741,0.9205886757572586,3.0,1,1.8294113242427412,0,4.0,3.0,1,2,6,0,6,0,0,1,1,3,,,,,,,521.7597237910377,521.7597237910377,522.7600582500454,523.5934781250544,523.8268089580815,523.8268089580815,523.8268089580815,524.759958041017,524.759958041017,524.759958041017,524.759958041017,525.7597631660756,200003,102,2023-03-24_12h47.59.021,DMS_et_12-36,2022.2.4,None,
59,PRED,12,1.0794113242427414,1,images/picture_2.png,images/picture_1.png,0,"[-11.733433509789466, -11.733433509789462]",-11.733433509789464,-11.733433509789462,images/picture_2.png,1,"[-11.733433509789462, 11.733433509789464]",-11.733433509789462,11.733433509789464,images/picture_3.png,2,"[11.733433509789462, -11.733433509789466]",11.733433509789462,-11.733433509789464,0,1,1,1.0794113242427414,2.079411324242741,0.9205886757572586,3.0,1,1.8294113242427412,0,4.0,3.0,1,2,6,0,6,0,0,2,2,5,,,,,,,525.7597631660756,525.7597631660756,526.7602094580652,527.5934882080182,527.8269798750989,527.8269798750989,527.8269798750989,528.7601625000825,528.7601625000825,528.7601625000825,528.7601625000825,529.7597319160122,200003,102,2023-03-24_12h47.59.021,DMS_et_12-36,2022.2.4,None,
61,PRED,12,1.0794113242427414,1,images/picture_2.png,images/picture_1.png,0,"[-11.733433509789462, 11.733433509789464]",-11.733433509789462,11.733433509789464,images/picture_2.png,1,"[11.733433509789462, -11.733433509789466]",11.733433509789462,-11.733433509789464,images/picture_3.png,2,"[-11.733433509789466, -11.733433509789462]",-11.733433509789464,-11.733433509789462,0,1,1,1.0794113242427414,2.079411324242741,0.9205886757572586,3.0,1,1.8294113242427412,0,4.0,3.0,1,2,6,0,6,0,0,3,3,7,,,,,,,529.7597319160122,529.7597319160122,530.7602117080241,531.5935720830457,531.8268138749991,531.8268138749991,531.8268138749991,532.7602967080893,532.7602967080893,532.7602967080893,532.7602967080893,533.7598347080639,200003,102,2023-03-24_12h47.59.021,DMS_et_12-36,2022.2.4,None,
58,PRED,12,1.0794113242427414,1,images/picture_2.png,images/picture_1.png,0,"[-11.733433509789462, 11.733433509789464]",-11.733433509789462,11.733433509789464,images/picture_2.png,1,"[11.733433509789462, -11.733433509789466]",11.733433509789462,-11.733433509789464,images/picture_3.png,2,"[-11.733433509789466, -11.733433509789462]",-11.733433509789464,-11.733433509789462,0,1,1,1.0794113242427414,2.079411324242741,0.9205886757572586,3.0,1,1.8294113242427412,0,4.0,3.0,1,2,6,0,6,0,0,4,4,4,,,,,,,533.7598347080639,533.7598347080639,534.7600317910546,535.5933065410936,535.8266390410718,535.8266390410718,535.8266390410718,536.7602660830598,536.7602660830598,536.7602660830598,536.7602660830598,537.7596475410974,200003,102,2023-03-24_12h47.59.021,DMS_et_12-36,2022.2.4,None,
62,PRED,12,1.0794113242427414,1,images/picture_2.png,images/picture_1.png,0,"[11.733433509789462, -11.733433509789466]",11.733433509789462,-11.733433509789464,images/picture_2.png,1,"[11.733433509789464, 11.733433509789462]",11.733433509789464,11.733433509789462,images/picture_3.png,2,"[-11.733433509789462, 11.733433509789464]",-11.733433509789462,11.733433509789464,0,1,1,1.0794113242427414,2.079411324242741,0.9205886757572586,3.0,1,1.8294113242427412,0,4.0,3.0,1,2,6,0,6,0,0,5,5,8,,,,,,,537.7596475410974,537.7596475410974,538.7603757909965,539.593609750038,539.8269924580818,539.8269924580818,539.8269924580818,540.7602372909896,540.7602372909896,540.7602372909896,540.7602372909896,541.7596729160286,200003,102,2023-03-24_12h47.59.021,DMS_et_12-36,2022.2.4,None,
54,PRED,12,1.0794113242427414,1,images/picture_2.png,images/picture_1.png,0,"[11.733433509789462, -11.733433509789466]",11.733433509789462,-11.733433509789464,images/picture_2.png,1,"[-11.733433509789466, -11.733433509789462]",-11.733433509789464,-11.733433509789462,images/picture_3.png,2,"[11.733433509789464, 11.733433509789462]",11.733433509789464,11.733433509789462,0,1,1,1.0794113242427414,2.079411324242741,0.9205886757572586,3.0,1,1.8294113242427412,0,4.0,3.0,1,2,6,0,6,0,0,6,6,0,,,,,,,541.7596729160286,541.7596729160286,542.7602561661042,543.5935277080862,543.8268206660869,543.8268206660869,543.8268206660869,544.7603031659964,544.7603031659964,544.7603031659964,544.7603031659964,545.7599511250155,200003,102,2023-03-24_12h47.59.021,DMS_et_12-36,2022.2.4,None,
56,PRED,12,1.0794113242427414,1,images/picture_2.png,images/picture_1.png,0,"[-11.733433509789462, 11.733433509789464]",-11.733433509789462,11.733433509789464,images/picture_2.png,1,"[11.733433509789464, 11.733433509789462]",11.733433509789464,11.733433509789462,images/picture_3.png,2,"[11.733433509789462, -11.733433509789466]",11.733433509789462,-11.733433509789464,0,1,1,1.0794113242427414,2.079411324242741,0.9205886757572586,3.0,1,1.8294113242427412,0,4.0,3.0,1,2,6,0,6,0,0,7,7,2,,,,,,,545.7599511250155,545.7599511250155,546.7600323330844,547.5935001660837,547.8270660410635,547.8270660410635,547.8270660410635,548.7603201660095,548.7603201660095,548.7603201660095,548.7603201660095,549.7595975410659,200003,102,2023-03-24_12h47.59.021,DMS_et_12-36,2022.2.4,None,
55,PRED,12,1.0794113242427414,1,images/picture_2.png,images/picture_1.png,0,"[11.733433509789462, -11.733433509789466]",11.733433509789462,-11.733433509789464,images/picture_2.png,1,"[11.733433509789464, 11.733433509789462]",11.733433509789464,11.733433509789462,images/picture_3.png,2,"[-11.733433509789466, -11.733433509789462]",-11.733433509789464,-11.733433509789462,0,1,1,1.0794113242427414,2.079411324242741,0.9205886757572586,3.0,1,1.8294113242427412,0,4.0,3.0,1,2,6,0,6,0,0,8,8,1,,,,,,,549.7595975410659,549.7595975410659,550.7602765000192,551.5935302909929,551.8269627080299,551.8269627080299,551.8269627080299,552.7602653329959,552.7602653329959,552.7602653329959,552.7602653329959,553.8378763330402,200003,102,2023-03-24_12h47.59.021,DMS_et_12-36,2022.2.4,None,
,,,,,,,,,,,,,,,,,,,,,,,,,,,,,,,,,,,6,0,6,0,,,,,,,,,553.8378763330402,565.8587632080307,,,,,,,,,,,,,200003,102,2023-03-24_12h47.59.021,DMS_et_12-36,2022.2.4,None,
69,UNPRED,12,1.0794113242427414,2,images/picture_3.png,images/picture_1.png,0,"[11.733433509789464, 11.733433509789462]",11.733433509789464,11.733433509789462,images/picture_2.png,1,"[11.733433509789462, -11.733433509789466]",11.733433509789462,-11.733433509789464,images/picture_3.png,2,"[-11.733433509789466, -11.733433509789462]",-11.733433509789464,-11.733433509789462,0,1,1,1.0794113242427414,2.079411324242741,0.9205886757572586,3.0,1,1.8294113242427412,0,4.0,3.0,1,2,7,0,7,0,0,0,0,6,,,,,,,565.8587632080307,565.8587632080307,566.8600497500738,567.6935785000678,567.9270143330796,567.9270143330796,567.9270143330796,568.8603006660705,568.8603006660705,568.8603006660705,568.8463297910057,569.8602040410042,200003,102,2023-03-24_12h47.59.021,DMS_et_12-36,2022.2.4,None,
64,UNPRED,12,1.0794113242427414,0,images/picture_1.png,images/picture_1.png,0,"[11.733433509789462, -11.733433509789466]",11.733433509789462,-11.733433509789464,images/picture_2.png,1,"[-11.733433509789466, -11.733433509789462]",-11.733433509789464,-11.733433509789462,images/picture_3.png,2,"[-11.733433509789462, 11.733433509789464]",-11.733433509789462,11.733433509789464,0,1,1,1.0794113242427414,2.079411324242741,0.9205886757572586,3.0,1,1.8294113242427412,0,4.0,3.0,1,2,7,0,7,0,0,1,1,1,,,,,,,569.8602040410042,569.8602040410042,570.8602816250641,571.693556250073,571.9269639580743,571.9269639580743,571.9269639580743,572.8604882910149,572.8604882910149,572.8604882910149,572.8604882910149,573.8790107500972,200003,102,2023-03-24_12h47.59.021,DMS_et_12-36,2022.2.4,None,
65,UNPRED,12,1.0794113242427414,2,images/picture_3.png,images/picture_1.png,0,"[11.733433509789462, -11.733433509789466]",11.733433509789462,-11.733433509789464,images/picture_2.png,1,"[11.733433509789464, 11.733433509789462]",11.733433509789464,11.733433509789462,images/picture_3.png,2,"[-11.733433509789462, 11.733433509789464]",-11.733433509789462,11.733433509789464,0,1,1,1.0794113242427414,2.079411324242741,0.9205886757572586,3.0,1,1.8294113242427412,0,4.0,3.0,1,2,7,0,7,0,0,2,2,2,,,,,,,573.8790107500972,573.8790107500972,574.893783541047,575.7128913750639,575.926746290992,575.926746290992,575.926746290992,576.8599823750556,576.8599823750556,576.8599823750556,576.8599823750556,577.8601035830798,200003,102,2023-03-24_12h47.59.021,DMS_et_12-36,2022.2.4,None,
71,UNPRED,12,1.0794113242427414,0,images/picture_1.png,images/picture_1.png,0,"[-11.733433509789466, -11.733433509789462]",-11.733433509789464,-11.733433509789462,images/picture_2.png,1,"[-11.733433509789462, 11.733433509789464]",-11.733433509789462,11.733433509789464,images/picture_3.png,2,"[11.733433509789464, 11.733433509789462]",11.733433509789464,11.733433509789462,0,1,1,1.0794113242427414,2.079411324242741,0.9205886757572586,3.0,1,1.8294113242427412,0,4.0,3.0,1,2,7,0,7,0,0,3,3,8,,,,,,,577.8601035830798,577.8601035830798,578.8604269580683,579.6934196250513,579.926988500054,579.926988500054,579.926988500054,580.8604985830607,580.8604985830607,580.8604985830607,580.8604985830607,581.8601127910661,200003,102,2023-03-24_12h47.59.021,DMS_et_12-36,2022.2.4,None,
63,UNPRED,12,1.0794113242427414,1,images/picture_2.png,images/picture_1.png,0,"[11.733433509789462, -11.733433509789466]",11.733433509789462,-11.733433509789464,images/picture_2.png,1,"[-11.733433509789466, -11.733433509789462]",-11.733433509789464,-11.733433509789462,images/picture_3.png,2,"[11.733433509789464, 11.733433509789462]",11.733433509789464,11.733433509789462,0,1,1,1.0794113242427414,2.079411324242741,0.9205886757572586,3.0,1,1.8294113242427412,0,4.0,3.0,1,2,7,0,7,0,0,4,4,0,,,,,,,581.8601127910661,581.8601127910661,582.8602750831051,583.6937364160549,583.9269907909911,583.9269907909911,583.9269907909911,584.8604850830743,584.8604850830743,584.8604850830743,584.8604850830743,585.8789577910211,200003,102,2023-03-24_12h47.59.021,DMS_et_12-36,2022.2.4,None,
66,UNPRED,12,1.0794113242427414,2,images/picture_3.png,images/picture_1.png,0,"[-11.733433509789462, 11.733433509789464]",-11.733433509789462,11.733433509789464,images/picture_2.png,1,"[-11.733433509789466, -11.733433509789462]",-11.733433509789464,-11.733433509789462,images/picture_3.png,2,"[11.733433509789464, 11.733433509789462]",11.733433509789464,11.733433509789462,0,1,1,1.0794113242427414,2.079411324242741,0.9205886757572586,3.0,1,1.8294113242427412,0,4.0,3.0,1,2,7,0,7,0,0,5,5,3,,,,,,,585.8789577910211,585.8789577910211,586.8936382500688,587.71286650002,587.9271608330309,587.9271608330309,587.9271608330309,588.8603200000944,588.8603200000944,588.8603200000944,588.8603200000944,589.8792451660847,200003,102,2023-03-24_12h47.59.021,DMS_et_12-36,2022.2.4,None,
68,UNPRED,12,1.0794113242427414,2,images/picture_3.png,images/picture_1.png,0,"[11.733433509789464, 11.733433509789462]",11.733433509789464,11.733433509789462,images/picture_2.png,1,"[-11.733433509789466, -11.733433509789462]",-11.733433509789464,-11.733433509789462,images/picture_3.png,2,"[11.733433509789462, -11.733433509789466]",11.733433509789462,-11.733433509789464,0,1,1,1.0794113242427414,2.079411324242741,0.9205886757572586,3.0,1,1.8294113242427412,0,4.0,3.0,1,2,7,0,7,0,0,6,6,5,,,,,,,589.8792451660847,589.8792451660847,590.8937967499951,591.7131962910062,591.9270246250089,591.9270246250089,591.9270246250089,592.8605167909991,592.8605167909991,592.8605167909991,592.8605167909991,593.8797319160076,200003,102,2023-03-24_12h47.59.021,DMS_et_12-36,2022.2.4,None,
70,UNPRED,12,1.0794113242427414,1,images/picture_2.png,images/picture_1.png,0,"[11.733433509789464, 11.733433509789462]",11.733433509789464,11.733433509789462,images/picture_2.png,1,"[11.733433509789462, -11.733433509789466]",11.733433509789462,-11.733433509789464,images/picture_3.png,2,"[-11.733433509789462, 11.733433509789464]",-11.733433509789462,11.733433509789464,0,1,1,1.0794113242427414,2.079411324242741,0.9205886757572586,3.0,1,1.8294113242427412,0,4.0,3.0,1,2,7,0,7,0,0,7,7,7,,,,,,,593.8797319160076,593.8797319160076,594.8937525830697,595.7130782080349,595.9272382500349,595.9272382500349,595.9272382500349,596.8600861250889,596.8600861250889,596.8600861250889,596.8600861250889,597.8596015000949,200003,102,2023-03-24_12h47.59.021,DMS_et_12-36,2022.2.4,None,
67,UNPRED,12,1.0794113242427414,0,images/picture_1.png,images/picture_1.png,0,"[-11.733433509789462, 11.733433509789464]",-11.733433509789462,11.733433509789464,images/picture_2.png,1,"[11.733433509789464, 11.733433509789462]",11.733433509789464,11.733433509789462,images/picture_3.png,2,"[11.733433509789462, -11.733433509789466]",11.733433509789462,-11.733433509789464,0,1,1,1.0794113242427414,2.079411324242741,0.9205886757572586,3.0,1,1.8294113242427412,0,4.0,3.0,1,2,7,0,7,0,0,8,8,4,,,,,,,597.8596015000949,597.8596015000949,598.8601821660995,599.6935113749932,599.9267874161014,599.9267874161014,599.9267874161014,600.8602055000374,600.8602055000374,600.8602055000374,600.8602055000374,601.9510409160284,200003,102,2023-03-24_12h47.59.021,DMS_et_12-36,2022.2.4,None,
,,,,,,,,,,,,,,,,,,,,,,,,,,,,,,,,,,,7,0,7,0,,,,,,,,,601.9510409160284,613.9845876659965,,,,,,,,,,,,,200003,102,2023-03-24_12h47.59.021,DMS_et_12-36,2022.2.4,None,
74,PRED,12,1.0794113242427414,1,images/picture_2.png,images/picture_1.png,0,"[-11.733433509789466, -11.733433509789462]",-11.733433509789464,-11.733433509789462,images/picture_2.png,1,"[-11.733433509789462, 11.733433509789464]",-11.733433509789462,11.733433509789464,images/picture_3.png,2,"[11.733433509789462, -11.733433509789466]",11.733433509789462,-11.733433509789464,0,1,1,1.0794113242427414,2.079411324242741,0.9205886757572586,3.0,1,1.8294113242427412,0,4.0,3.0,1,2,8,0,8,0,0,0,0,2,,,,,,,613.9845876659965,613.9845876659965,614.9934971249895,615.8267946660053,616.0601856660796,616.0601856660796,616.0601856660796,616.993267208105,616.993267208105,616.993267208105,616.9786820830777,617.9935929580824,200003,102,2023-03-24_12h47.59.021,DMS_et_12-36,2022.2.4,None,
80,PRED,12,1.0794113242427414,1,images/picture_2.png,images/picture_1.png,0,"[-11.733433509789466, -11.733433509789462]",-11.733433509789464,-11.733433509789462,images/picture_2.png,1,"[11.733433509789462, -11.733433509789466]",11.733433509789462,-11.733433509789464,images/picture_3.png,2,"[-11.733433509789462, 11.733433509789464]",-11.733433509789462,11.733433509789464,0,1,1,1.0794113242427414,2.079411324242741,0.9205886757572586,3.0,1,1.8294113242427412,0,4.0,3.0,1,2,8,0,8,0,0,1,1,8,,,,,,,617.9935929580824,617.9935929580824,618.9935779999942,619.8267607500311,620.0602418750059,620.0602418750059,620.0602418750059,620.9935598330339,620.9935598330339,620.9935598330339,620.9935598330339,621.9929901250871,200003,102,2023-03-24_12h47.59.021,DMS_et_12-36,2022.2.4,None,
73,PRED,12,1.0794113242427414,1,images/picture_2.png,images/picture_1.png,0,"[-11.733433509789466, -11.733433509789462]",-11.733433509789464,-11.733433509789462,images/picture_2.png,1,"[-11.733433509789462, 11.733433509789464]",-11.733433509789462,11.733433509789464,images/picture_3.png,2,"[11.733433509789462, -11.733433509789466]",11.733433509789462,-11.733433509789464,0,1,1,1.0794113242427414,2.079411324242741,0.9205886757572586,3.0,1,1.8294113242427412,0,4.0,3.0,1,2,8,0,8,0,0,2,2,1,,,,,,,621.9929901250871,621.9929901250871,622.9935993331019,623.8269117909949,624.060206416063,624.060206416063,624.060206416063,624.9935328750871,624.9935328750871,624.9935328750871,624.9935328750871,625.9930667080916,200003,102,2023-03-24_12h47.59.021,DMS_et_12-36,2022.2.4,None,
79,PRED,12,1.0794113242427414,1,images/picture_2.png,images/picture_1.png,0,"[-11.733433509789466, -11.733433509789462]",-11.733433509789464,-11.733433509789462,images/picture_2.png,1,"[11.733433509789464, 11.733433509789462]",11.733433509789464,11.733433509789462,images/picture_3.png,2,"[11.733433509789462, -11.733433509789466]",11.733433509789462,-11.733433509789464,0,1,1,1.0794113242427414,2.079411324242741,0.9205886757572586,3.0,1,1.8294113242427412,0,4.0,3.0,1,2,8,0,8,0,0,3,3,7,,,,,,,625.9930667080916,625.9930667080916,626.9935240410268,627.8265907909954,628.0599840000505,628.0599840000505,628.0599840000505,628.9935322500532,628.9935322500532,628.9935322500532,628.9935322500532,629.9930700000841,200003,102,2023-03-24_12h47.59.021,DMS_et_12-36,2022.2.4,None,
78,PRED,12,1.0794113242427414,1,images/picture_2.png,images/picture_1.png,0,"[11.733433509789462, -11.733433509789466]",11.733433509789462,-11.733433509789464,images/picture_2.png,1,"[11.733433509789464, 11.733433509789462]",11.733433509789464,11.733433509789462,images/picture_3.png,2,"[-11.733433509789462, 11.733433509789464]",-11.733433509789462,11.733433509789464,0,1,1,1.0794113242427414,2.079411324242741,0.9205886757572586,3.0,1,1.8294113242427412,0,4.0,3.0,1,2,8,0,8,0,0,4,4,6,,,,,,,629.9930700000841,629.9930700000841,630.9936864580959,631.8268942080904,632.060223416076,632.060223416076,632.060223416076,632.9935895410599,632.9935895410599,632.9935895410599,632.9935895410599,633.9930706250016,200003,102,2023-03-24_12h47.59.021,DMS_et_12-36,2022.2.4,None,
75,PRED,12,1.0794113242427414,1,images/picture_2.png,images/picture_1.png,0,"[-11.733433509789462, 11.733433509789464]",-11.733433509789462,11.733433509789464,images/picture_2.png,1,"[-11.733433509789466, -11.733433509789462]",-11.733433509789464,-11.733433509789462,images/picture_3.png,2,"[11.733433509789464, 11.733433509789462]",11.733433509789464,11.733433509789462,0,1,1,1.0794113242427414,2.079411324242741,0.9205886757572586,3.0,1,1.8294113242427412,0,4.0,3.0,1,2,8,0,8,0,0,5,5,3,,,,,,,633.9930706250016,633.9930706250016,634.9935183750931,635.8269439580617,636.060237958096,636.060237958096,636.060237958096,636.993515625014,636.993515625014,636.993515625014,636.993515625014,637.993203416001,200003,102,2023-03-24_12h47.59.021,DMS_et_12-36,2022.2.4,None,
76,PRED,12,1.0794113242427414,1,images/picture_2.png,images/picture_1.png,0,"[11.733433509789462, -11.733433509789466]",11.733433509789462,-11.733433509789464,images/picture_2.png,1,"[-11.733433509789466, -11.733433509789462]",-11.733433509789464,-11.733433509789462,images/picture_3.png,2,"[11.733433509789464, 11.733433509789462]",11.733433509789464,11.733433509789462,0,1,1,1.0794113242427414,2.079411324242741,0.9205886757572586,3.0,1,1.8294113242427412,0,4.0,3.0,1,2,8,0,8,0,0,6,6,4,,,,,,,637.993203416001,637.993203416001,638.9935077500995,639.8267490410944,640.060249916045,640.060249916045,640.060249916045,640.9935447080061,640.9935447080061,640.9935447080061,640.9935447080061,641.993024458061,200003,102,2023-03-24_12h47.59.021,DMS_et_12-36,2022.2.4,None,
77,PRED,12,1.0794113242427414,1,images/picture_2.png,images/picture_1.png,0,"[-11.733433509789466, -11.733433509789462]",-11.733433509789464,-11.733433509789462,images/picture_2.png,1,"[11.733433509789462, -11.733433509789466]",11.733433509789462,-11.733433509789464,images/picture_3.png,2,"[11.733433509789464, 11.733433509789462]",11.733433509789464,11.733433509789462,0,1,1,1.0794113242427414,2.079411324242741,0.9205886757572586,3.0,1,1.8294113242427412,0,4.0,3.0,1,2,8,0,8,0,0,7,7,5,,,,,,,641.993024458061,641.993024458061,642.993537375005,643.8269660410006,644.0603970830562,644.0603970830562,644.0603970830562,644.9935037910473,644.9935037910473,644.9935037910473,644.9935037910473,645.9930935830344,200003,102,2023-03-24_12h47.59.021,DMS_et_12-36,2022.2.4,None,
72,PRED,12,1.0794113242427414,1,images/picture_2.png,images/picture_1.png,0,"[-11.733433509789466, -11.733433509789462]",-11.733433509789464,-11.733433509789462,images/picture_2.png,1,"[-11.733433509789462, 11.733433509789464]",-11.733433509789462,11.733433509789464,images/picture_3.png,2,"[11.733433509789464, 11.733433509789462]",11.733433509789464,11.733433509789462,0,1,1,1.0794113242427414,2.079411324242741,0.9205886757572586,3.0,1,1.8294113242427412,0,4.0,3.0,1,2,8,0,8,0,0,8,8,0,,,,,,,645.9930935830344,645.9930935830344,646.9936352079967,647.8266242910177,648.0598292500945,648.0598292500945,648.0598292500945,648.9936757500982,648.9936757500982,648.9936757500982,648.9936757500982,650.0885640830966,200003,102,2023-03-24_12h47.59.021,DMS_et_12-36,2022.2.4,None,
,,,,,,,,,,,,,,,,,,,,,,,,,,,,,,,,,,,8,0,8,0,,,,,,,,,650.0885640830966,662.1159850410186,,,,,,,,,,,,,200003,102,2023-03-24_12h47.59.021,DMS_et_12-36,2022.2.4,None,
87,UNPRED,12,1.0794113242427414,1,images/picture_2.png,images/picture_1.png,0,"[11.733433509789462, -11.733433509789466]",11.733433509789462,-11.733433509789464,images/picture_2.png,1,"[-11.733433509789462, 11.733433509789464]",-11.733433509789462,11.733433509789464,images/picture_3.png,2,"[-11.733433509789466, -11.733433509789462]",-11.733433509789464,-11.733433509789462,0,1,1,1.0794113242427414,2.079411324242741,0.9205886757572586,3.0,1,1.8294113242427412,0,4.0,3.0,1,2,9,0,9,0,0,0,0,6,,,,,,,662.1159850410186,662.1159850410186,663.1269325410249,663.9602697910741,664.1937152910978,664.1937152910978,664.1937152910978,665.1269944160013,665.1269944160013,665.1269944160013,665.1129477079958,666.1268018750707,200003,102,2023-03-24_12h47.59.021,DMS_et_12-36,2022.2.4,None,
86,UNPRED,12,1.0794113242427414,0,images/picture_1.png,images/picture_1.png,0,"[-11.733433509789462, 11.733433509789464]",-11.733433509789462,11.733433509789464,images/picture_2.png,1,"[-11.733433509789466, -11.733433509789462]",-11.733433509789464,-11.733433509789462,images/picture_3.png,2,"[11.733433509789464, 11.733433509789462]",11.733433509789464,11.733433509789462,0,1,1,1.0794113242427414,2.079411324242741,0.9205886757572586,3.0,1,1.8294113242427412,0,4.0,3.0,1,2,9,0,9,0,0,1,1,5,,,,,,,666.1268018750707,666.1268018750707,667.1270759580657,667.9602554580197,668.1934338751016,668.1934338751016,668.1934338751016,669.1267453330802,669.1267453330802,669.1267453330802,669.1267453330802,670.1455779160606,200003,102,2023-03-24_12h47.59.021,DMS_et_12-36,2022.2.4,None,
83,UNPRED,12,1.0794113242427414,2,images/picture_3.png,images/picture_1.png,0,"[-11.733433509789462, 11.733433509789464]",-11.733433509789462,11.733433509789464,images/picture_2.png,1,"[11.733433509789464, 11.733433509789462]",11.733433509789464,11.733433509789462,images/picture_3.png,2,"[-11.733433509789466, -11.733433509789462]",-11.733433509789464,-11.733433509789462,0,1,1,1.0794113242427414,2.079411324242741,0.9205886757572586,3.0,1,1.8294113242427412,0,4.0,3.0,1,2,9,0,9,0,0,2,2,2,,,,,,,670.1455779160606,670.1455779160606,671.1602710000006,671.979589708033,672.1935382080264,672.1935382080264,672.1935382080264,673.1269911660347,673.1269911660347,673.1269911660347,673.1269911660347,674.1267303330824,200003,102,2023-03-24_12h47.59.021,DMS_et_12-36,2022.2.4,None,
85,UNPRED,12,1.0794113242427414,0,images/picture_1.png,images/picture_1.png,0,"[11.733433509789464, 11.733433509789462]",11.733433509789464,11.733433509789462,images/picture_2.png,1,"[-11.733433509789462, 11.733433509789464]",-11.733433509789462,11.733433509789464,images/picture_3.png,2,"[-11.733433509789466, -11.733433509789462]",-11.733433509789464,-11.733433509789462,0,1,1,1.0794113242427414,2.079411324242741,0.9205886757572586,3.0,1,1.8294113242427412,0,4.0,3.0,1,2,9,0,9,0,0,3,3,4,,,,,,,674.1267303330824,674.1267303330824,675.1271173330024,675.9602512910496,676.1936923750909,676.1936923750909,676.1936923750909,677.1269840410678,677.1269840410678,677.1269840410678,677.1269840410678,678.1264647500357,200003,102,2023-03-24_12h47.59.021,DMS_et_12-36,2022.2.4,None,
88,UNPRED,12,1.0794113242427414,0,images/picture_1.png,images/picture_1.png,0,"[-11.733433509789466, -11.733433509789462]",-11.733433509789464,-11.733433509789462,images/picture_2.png,1,"[11.733433509789464, 11.733433509789462]",11.733433509789464,11.733433509789462,images/picture_3.png,2,"[11.733433509789462, -11.733433509789466]",11.733433509789462,-11.733433509789464,0,1,1,1.0794113242427414,2.079411324242741,0.9205886757572586,3.0,1,1.8294113242427412,0,4.0,3.0,1,2,9,0,9,0,0,4,4,7,,,,,,,678.1264647500357,678.1264647500357,679.1266619580565,679.960261708009,680.1933257500641,680.1933257500641,680.1933257500641,681.1269852500409,681.1269852500409,681.1269852500409,681.1269852500409,682.1260305410251,200003,102,2023-03-24_12h47.59.021,DMS_et_12-36,2022.2.4,None,
89,UNPRED,12,1.0794113242427414,1,images/picture_2.png,images/picture_1.png,0,"[-11.733433509789466, -11.733433509789462]",-11.733433509789464,-11.733433509789462,images/picture_2.png,1,"[11.733433509789464, 11.733433509789462]",11.733433509789464,11.733433509789462,images/picture_3.png,2,"[-11.733433509789462, 11.733433509789464]",-11.733433509789462,11.733433509789464,0,1,1,1.0794113242427414,2.079411324242741,0.9205886757572586,3.0,1,1.8294113242427412,0,4.0,3.0,1,2,9,0,9,0,0,5,5,8,,,,,,,682.1260305410251,682.1260305410251,683.1269852910191,683.9602614580654,684.1935552500654,684.1935552500654,684.1935552500654,685.1270329160616,685.1270329160616,685.1270329160616,685.1270329160616,686.1265467910562,200003,102,2023-03-24_12h47.59.021,DMS_et_12-36,2022.2.4,None,
81,UNPRED,12,1.0794113242427414,1,images/picture_2.png,images/picture_1.png,0,"[-11.733433509789462, 11.733433509789464]",-11.733433509789462,11.733433509789464,images/picture_2.png,1,"[11.733433509789462, -11.733433509789466]",11.733433509789462,-11.733433509789464,images/picture_3.png,2,"[11.733433509789464, 11.733433509789462]",11.733433509789464,11.733433509789462,0,1,1,1.0794113242427414,2.079411324242741,0.9205886757572586,3.0,1,1.8294113242427412,0,4.0,3.0,1,2,9,0,9,0,0,6,6,0,,,,,,,686.1265467910562,686.1265467910562,687.1269892500713,687.9603387080133,688.1937090000138,688.1937090000138,688.1937090000138,689.1267470830353,689.1267470830353,689.1267470830353,689.1267470830353,690.126197500038,200003,102,2023-03-24_12h47.59.021,DMS_et_12-36,2022.2.4,None,
82,UNPRED,12,1.0794113242427414,0,images/picture_1.png,images/picture_1.png,0,"[-11.733433509789462, 11.733433509789464]",-11.733433509789462,11.733433509789464,images/picture_2.png,1,"[11.733433509789464, 11.733433509789462]",11.733433509789464,11.733433509789462,images/picture_3.png,2,"[11.733433509789462, -11.733433509789466]",11.733433509789462,-11.733433509789464,0,1,1,1.0794113242427414,2.079411324242741,0.9205886757572586,3.0,1,1.8294113242427412,0,4.0,3.0,1,2,9,0,9,0,0,7,7,1,,,,,,,690.126197500038,690.126197500038,691.127022291068,691.9602758750552,692.1934528750135,692.1934528750135,692.1934528750135,693.127010291093,693.127010291093,693.127010291093,693.127010291093,694.1257506250404,200003,102,2023-03-24_12h47.59.021,DMS_et_12-36,2022.2.4,None,
84,UNPRED,12,1.0794113242427414,1,images/picture_2.png,images/picture_1.png,0,"[11.733433509789464, 11.733433509789462]",11.733433509789464,11.733433509789462,images/picture_2.png,1,"[-11.733433509789466, -11.733433509789462]",-11.733433509789464,-11.733433509789462,images/picture_3.png,2,"[11.733433509789462, -11.733433509789466]",11.733433509789462,-11.733433509789464,0,1,1,1.0794113242427414,2.079411324242741,0.9205886757572586,3.0,1,1.8294113242427412,0,4.0,3.0,1,2,9,0,9,0,0,8,8,3,,,,,,,694.1257506250404,694.1257506250404,695.1269734581001,695.9602828749921,696.1937005410437,696.1937005410437,696.1937005410437,697.1270270000678,697.1270270000678,697.1270270000678,697.1270270000678,698.2319043750176,200003,102,2023-03-24_12h47.59.021,DMS_et_12-36,2022.2.4,None,
,,,,,,,,,,,,,,,,,,,,,,,,,,,,,,,,,,,9,0,9,0,,,,,,,,,698.2319043750176,710.2836996660335,,,,,,,,,,,,,200003,102,2023-03-24_12h47.59.021,DMS_et_12-36,2022.2.4,None,
96,PRED,12,1.0794113242427414,2,images/picture_3.png,images/picture_1.png,0,"[-11.733433509789462, 11.733433509789464]",-11.733433509789462,11.733433509789464,images/picture_2.png,1,"[-11.733433509789466, -11.733433509789462]",-11.733433509789464,-11.733433509789462,images/picture_3.png,2,"[11.733433509789464, 11.733433509789462]",11.733433509789464,11.733433509789462,0,1,1,1.0794113242427414,2.079411324242741,0.9205886757572586,3.0,1,1.8294113242427412,0,4.0,3.0,1,2,10,0,10,0,0,0,0,6,,,,,,,710.2836996660335,710.2836996660335,711.2936925000977,712.1270032910397,712.346205333015,712.346205333015,712.346205333015,713.2793645830825,713.2793645830825,713.2793645830825,713.2602887910325,714.2797722500982,200003,102,2023-03-24_12h47.59.021,DMS_et_12-36,2022.2.4,None,
91,PRED,12,1.0794113242427414,2,images/picture_3.png,images/picture_1.png,0,"[-11.733433509789466, -11.733433509789462]",-11.733433509789464,-11.733433509789462,images/picture_2.png,1,"[11.733433509789462, -11.733433509789466]",11.733433509789462,-11.733433509789464,images/picture_3.png,2,"[11.733433509789464, 11.733433509789462]",11.733433509789464,11.733433509789462,0,1,1,1.0794113242427414,2.079411324242741,0.9205886757572586,3.0,1,1.8294113242427412,0,4.0,3.0,1,2,10,0,10,0,0,1,1,1,,,,,,,714.2797722500982,714.2797722500982,715.2936165410792,716.1127990410896,716.3269731251057,716.3269731251057,716.3269731251057,717.2604619160993,717.2604619160993,717.2604619160993,717.2604619160993,718.2789925410179,200003,102,2023-03-24_12h47.59.021,DMS_et_12-36,2022.2.4,None,
93,PRED,12,1.0794113242427414,2,images/picture_3.png,images/picture_1.png,0,"[11.733433509789462, -11.733433509789466]",11.733433509789462,-11.733433509789464,images/picture_2.png,1,"[-11.733433509789462, 11.733433509789464]",-11.733433509789462,11.733433509789464,images/picture_3.png,2,"[-11.733433509789466, -11.733433509789462]",-11.733433509789464,-11.733433509789462,0,1,1,1.0794113242427414,2.079411324242741,0.9205886757572586,3.0,1,1.8294113242427412,0,4.0,3.0,1,2,10,0,10,0,0,2,2,3,,,,,,,718.2789925410179,718.2789925410179,719.2935847910121,720.1123043330153,720.3267665409949,720.3267665409949,720.3267665409949,721.2602680410491,721.2602680410491,721.2602680410491,721.2602680410491,722.2789277080446,200003,102,2023-03-24_12h47.59.021,DMS_et_12-36,2022.2.4,None,
97,PRED,12,1.0794113242427414,2,images/picture_3.png,images/picture_1.png,0,"[-11.733433509789462, 11.733433509789464]",-11.733433509789462,11.733433509789464,images/picture_2.png,1,"[-11.733433509789466, -11.733433509789462]",-11.733433509789464,-11.733433509789462,images/picture_3.png,2,"[11.733433509789464, 11.733433509789462]",11.733433509789464,11.733433509789462,0,1,1,1.0794113242427414,2.079411324242741,0.9205886757572586,3.0,1,1.8294113242427412,0,4.0,3.0,1,2,10,0,10,0,0,3,3,7,,,,,,,722.2789277080446,722.2789277080446,723.2937276660232,724.1129997500684,724.3270786660723,724.3270786660723,724.3270786660723,725.2602805000497,725.2602805000497,725.2602805000497,725.2602805000497,726.2789872910362,200003,102,2023-03-24_12h47.59.021,DMS_et_12-36,2022.2.4,None,
90,PRED,12,1.0794113242427414,2,images/picture_3.png,images/picture_1.png,0,"[11.733433509789462, -11.733433509789466]",11.733433509789462,-11.733433509789464,images/picture_2.png,1,"[-11.733433509789466, -11.733433509789462]",-11.733433509789464,-11.733433509789462,images/picture_3.png,2,"[11.733433509789464, 11.733433509789462]",11.733433509789464,11.733433509789462,0,1,1,1.0794113242427414,2.079411324242741,0.9205886757572586,3.0,1,1.8294113242427412,0,4.0,3.0,1,2,10,0,10,0,0,4,4,0,,,,,,,726.2789872910362,726.2789872910362,727.2936955000041,728.1130576659925,728.3270350000821,728.3270350000821,728.3270350000821,729.2602549160365,729.2602549160365,729.2602549160365,729.2602549160365,730.2610888330964,200003,102,2023-03-24_12h47.59.021,DMS_et_12-36,2022.2.4,None,
94,PRED,12,1.0794113242427414,2,images/picture_3.png,images/picture_1.png,0,"[-11.733433509789462, 11.733433509789464]",-11.733433509789462,11.733433509789464,images/picture_2.png,1,"[11.733433509789464, 11.733433509789462]",11.733433509789464,11.733433509789462,images/picture_3.png,2,"[11.733433509789462, -11.733433509789466]",11.733433509789462,-11.733433509789464,0,1,1,1.0794113242427414,2.079411324242741,0.9205886757572586,3.0,1,1.8294113242427412,0,4.0,3.0,1,2,10,0,10,0,0,5,5,4,,,,,,,730.2610888330964,730.2610888330964,731.2602822910994,732.0937562501058,732.3270630000625,732.3270630000625,732.3270630000625,733.2602635410149,733.2602635410149,733.2602635410149,733.2602635410149,734.2791818330297,200003,102,2023-03-24_12h47.59.021,DMS_et_12-36,2022.2.4,None,
92,PRED,12,1.0794113242427414,2,images/picture_3.png,images/picture_1.png,0,"[-11.733433509789466, -11.733433509789462]",-11.733433509789464,-11.733433509789462,images/picture_2.png,1,"[11.733433509789462, -11.733433509789466]",11.733433509789462,-11.733433509789464,images/picture_3.png,2,"[11.733433509789464, 11.733433509789462]",11.733433509789464,11.733433509789462,0,1,1,1.0794113242427414,2.079411324242741,0.9205886757572586,3.0,1,1.8294113242427412,0,4.0,3.0,1,2,10,0,10,0,0,6,6,2,,,,,,,734.2791818330297,734.2791818330297,735.2937677500304,736.1127755410271,736.3270004580263,736.3270004580263,736.3270004580263,737.2604560001055,737.2604560001055,737.2604560001055,737.2604560001055,738.2794850830687,200003,102,2023-03-24_12h47.59.021,DMS_et_12-36,2022.2.4,None,
95,PRED,12,1.0794113242427414,2,images/picture_3.png,images/picture_1.png,0,"[-11.733433509789466, -11.733433509789462]",-11.733433509789464,-11.733433509789462,images/picture_2.png,1,"[11.733433509789464, 11.733433509789462]",11.733433509789464,11.733433509789462,images/picture_3.png,2,"[-11.733433509789462, 11.733433509789464]",-11.733433509789462,11.733433509789464,0,1,1,1.0794113242427414,2.079411324242741,0.9205886757572586,3.0,1,1.8294113242427412,0,4.0,3.0,1,2,10,0,10,0,0,7,7,5,,,,,,,738.2794850830687,738.2794850830687,739.2937242910266,740.1120050830068,740.3268307500985,740.3268307500985,740.3268307500985,741.2605194160715,741.2605194160715,741.2605194160715,741.2605194160715,742.2790655830177,200003,102,2023-03-24_12h47.59.021,DMS_et_12-36,2022.2.4,None,
98,PRED,12,1.0794113242427414,2,images/picture_3.png,images/picture_1.png,0,"[-11.733433509789466, -11.733433509789462]",-11.733433509789464,-11.733433509789462,images/picture_2.png,1,"[11.733433509789462, -11.733433509789466]",11.733433509789462,-11.733433509789464,images/picture_3.png,2,"[-11.733433509789462, 11.733433509789464]",-11.733433509789462,11.733433509789464,0,1,1,1.0794113242427414,2.079411324242741,0.9205886757572586,3.0,1,1.8294113242427412,0,4.0,3.0,1,2,10,0,10,0,0,8,8,8,,,,,,,742.2790655830177,742.2790655830177,743.2936791250249,744.1130427500466,744.3270903330995,744.3270903330995,744.3270903330995,745.2604613330914,745.2604613330914,745.2604613330914,745.2604613330914,746.3641734160483,200003,102,2023-03-24_12h47.59.021,DMS_et_12-36,2022.2.4,None,
,,,,,,,,,,,,,,,,,,,,,,,,,,,,,,,,,,,10,0,10,0,,,,,,,,,746.3641734160483,758.3993652500212,,,,,,,,,,,,,200003,102,2023-03-24_12h47.59.021,DMS_et_12-36,2022.2.4,None,
100,UNPRED,12,1.0794113242427414,1,images/picture_2.png,images/picture_1.png,0,"[11.733433509789464, 11.733433509789462]",11.733433509789464,11.733433509789462,images/picture_2.png,1,"[11.733433509789462, -11.733433509789466]",11.733433509789462,-11.733433509789464,images/picture_3.png,2,"[-11.733433509789466, -11.733433509789462]",-11.733433509789464,-11.733433509789462,0,1,1,1.0794113242427414,2.079411324242741,0.9205886757572586,3.0,1,1.8294113242427412,0,4.0,3.0,1,2,11,0,11,0,0,0,0,1,,,,,,,758.3993652500212,758.3993652500212,759.4134476660984,760.2270215830067,760.4788298750063,760.4788298750063,760.4788298750063,761.412456958089,761.412456958089,761.412456958089,761.3935852909926,762.4126878750976,200003,102,2023-03-24_12h47.59.021,DMS_et_12-36,2022.2.4,None,
106,UNPRED,12,1.0794113242427414,2,images/picture_3.png,images/picture_1.png,0,"[-11.733433509789466, -11.733433509789462]",-11.733433509789464,-11.733433509789462,images/picture_2.png,1,"[11.733433509789462, -11.733433509789466]",11.733433509789462,-11.733433509789464,images/picture_3.png,2,"[11.733433509789464, 11.733433509789462]",11.733433509789464,11.733433509789462,0,1,1,1.0794113242427414,2.079411324242741,0.9205886757572586,3.0,1,1.8294113242427412,0,4.0,3.0,1,2,11,0,11,0,0,1,1,7,,,,,,,762.4126878750976,762.4126878750976,763.4269676250406,764.2458231661003,764.4602650830057,764.4602650830057,764.4602650830057,765.3937711250037,765.3937711250037,765.3937711250037,765.3937711250037,766.3936832500622,200003,102,2023-03-24_12h47.59.021,DMS_et_12-36,2022.2.4,None,
101,UNPRED,12,1.0794113242427414,1,images/picture_2.png,images/picture_1.png,0,"[11.733433509789462, -11.733433509789466]",11.733433509789462,-11.733433509789464,images/picture_2.png,1,"[-11.733433509789466, -11.733433509789462]",-11.733433509789464,-11.733433509789462,images/picture_3.png,2,"[-11.733433509789462, 11.733433509789464]",-11.733433509789462,11.733433509789464,0,1,1,1.0794113242427414,2.079411324242741,0.9205886757572586,3.0,1,1.8294113242427412,0,4.0,3.0,1,2,11,0,11,0,0,2,2,2,,,,,,,766.3936832500622,766.3936832500622,767.39378045802,768.2270392080536,768.4604647080414,768.4604647080414,768.4604647080414,769.3936115410179,769.3936115410179,769.3936115410179,769.3936115410179,770.3931190000148,200003,102,2023-03-24_12h47.59.021,DMS_et_12-36,2022.2.4,None,
99,UNPRED,12,1.0794113242427414,1,images/picture_2.png,images/picture_1.png,0,"[11.733433509789464, 11.733433509789462]",11.733433509789464,11.733433509789462,images/picture_2.png,1,"[11.733433509789462, -11.733433509789466]",11.733433509789462,-11.733433509789464,images/picture_3.png,2,"[-11.733433509789466, -11.733433509789462]",-11.733433509789464,-11.733433509789462,0,1,1,1.0794113242427414,2.079411324242741,0.9205886757572586,3.0,1,1.8294113242427412,0,4.0,3.0,1,2,11,0,11,0,0,3,3,0,,,,,,,770.3931190000148,770.3931190000148,771.3934039160376,772.2270593330031,772.4602658330696,772.4602658330696,772.4602658330696,773.3938335831044,773.3938335831044,773.3938335831044,773.3938335831044,774.3930778329959,200003,102,2023-03-24_12h47.59.021,DMS_et_12-36,2022.2.4,None,
102,UNPRED,12,1.0794113242427414,0,images/picture_1.png,images/picture_1.png,0,"[-11.733433509789466, -11.733433509789462]",-11.733433509789464,-11.733433509789462,images/picture_2.png,1,"[11.733433509789464, 11.733433509789462]",11.733433509789464,11.733433509789462,images/picture_3.png,2,"[-11.733433509789462, 11.733433509789464]",-11.733433509789462,11.733433509789464,0,1,1,1.0794113242427414,2.079411324242741,0.9205886757572586,3.0,1,1.8294113242427412,0,4.0,3.0,1,2,11,0,11,0,0,4,4,3,,,,,,,774.3930778329959,774.3930778329959,775.3937353750225,776.2269840410445,776.4604860000545,776.4604860000545,776.4604860000545,777.3937553750584,777.3937553750584,777.3937553750584,777.3937553750584,778.3932516250061,200003,102,2023-03-24_12h47.59.021,DMS_et_12-36,2022.2.4,None,
104,UNPRED,12,1.0794113242427414,1,images/picture_2.png,images/picture_1.png,0,"[-11.733433509789466, -11.733433509789462]",-11.733433509789464,-11.733433509789462,images/picture_2.png,1,"[11.733433509789464, 11.733433509789462]",11.733433509789464,11.733433509789462,images/picture_3.png,2,"[11.733433509789462, -11.733433509789466]",11.733433509789462,-11.733433509789464,0,1,1,1.0794113242427414,2.079411324242741,0.9205886757572586,3.0,1,1.8294113242427412,0,4.0,3.0,1,2,11,0,11,0,0,5,5,5,,,,,,,778.3932516250061,778.3932516250061,779.393758582999,780.2272895410424,780.4604603330372,780.4604603330372,780.4604603330372,781.3934287910815,781.3934287910815,781.3934287910815,781.3934287910815,782.3932283330942,200003,102,2023-03-24_12h47.59.021,DMS_et_12-36,2022.2.4,None,
107,UNPRED,12,1.0794113242427414,0,images/picture_1.png,images/picture_1.png,0,"[11.733433509789464, 11.733433509789462]",11.733433509789464,11.733433509789462,images/picture_2.png,1,"[-11.733433509789462, 11.733433509789464]",-11.733433509789462,11.733433509789464,images/picture_3.png,2,"[-11.733433509789466, -11.733433509789462]",-11.733433509789464,-11.733433509789462,0,1,1,1.0794113242427414,2.079411324242741,0.9205886757572586,3.0,1,1.8294113242427412,0,4.0,3.0,1,2,11,0,11,0,0,6,6,8,,,,,,,782.3932283330942,782.3932283330942,783.3937686660793,784.2270077910507,784.4604562080931,784.4604562080931,784.4604562080931,785.3938117910875,785.3938117910875,785.3938117910875,785.3938117910875,786.3931527080713,200003,102,2023-03-24_12h47.59.021,DMS_et_12-36,2022.2.4,None,
103,UNPRED,12,1.0794113242427414,0,images/picture_1.png,images/picture_1.png,0,"[-11.733433509789466, -11.733433509789462]",-11.733433509789464,-11.733433509789462,images/picture_2.png,1,"[11.733433509789464, 11.733433509789462]",11.733433509789464,11.733433509789462,images/picture_3.png,2,"[-11.733433509789462, 11.733433509789464]",-11.733433509789462,11.733433509789464,0,1,1,1.0794113242427414,2.079411324242741,0.9205886757572586,3.0,1,1.8294113242427412,0,4.0,3.0,1,2,11,0,11,0,0,7,7,4,,,,,,,786.3931527080713,786.3931527080713,787.3936006660806,788.2270486661,788.4604892079951,788.4604892079951,788.4604892079951,789.39381937508,789.39381937508,789.39381937508,789.39381937508,790.3931655409979,200003,102,2023-03-24_12h47.59.021,DMS_et_12-36,2022.2.4,None,
105,UNPRED,12,1.0794113242427414,0,images/picture_1.png,images/picture_1.png,0,"[-11.733433509789462, 11.733433509789464]",-11.733433509789462,11.733433509789464,images/picture_2.png,1,"[11.733433509789462, -11.733433509789466]",11.733433509789462,-11.733433509789464,images/picture_3.png,2,"[11.733433509789464, 11.733433509789462]",11.733433509789464,11.733433509789462,0,1,1,1.0794113242427414,2.079411324242741,0.9205886757572586,3.0,1,1.8294113242427412,0,4.0,3.0,1,2,11,0,11,0,0,8,8,6,,,,,,,790.3931655409979,790.3931655409979,791.3934537080349,792.2268350000959,792.4604911250062,792.4604911250062,792.4604911250062,793.3938170000911,793.3938170000911,793.3938170000911,793.3938170000911,794.5615563750034,200003,102,2023-03-24_12h47.59.021,DMS_et_12-36,2022.2.4,None,
,,,,,,,,,,,,,,,,,,,,,,,,,,,,,,,,,,,11,0,11,0,,,,,,,,,794.5615563750034,806.69069412502,,,,,,,,,,,,,200003,102,2023-03-24_12h47.59.021,DMS_et_12-36,2022.2.4,None,
,,,,,,,,,,,,,,,,,,,,,,,,,,,,,,,,,,,,,,,,,,,,,,,806.69069412502,819.2182725830935,,,,,,,,,,,,,,,,,,,
