trial_count,blockType,blockNum,delay_time,stimImage_i,stimImage,responseImage1,responseImage1_i,responseImage1_pos,responseImage1_X,responseImage1_Y,responseImage2,responseImage2_i,responseImage2_pos,responseImage2_X,responseImage2_Y,responseImage3,responseImage3_i,responseImage3_pos,responseImage3_X,responseImage3_Y,cue_onset,cue_dur,delay_onset,delay_dur,resp_onset,resp_dur,rest_onset,rest_dur,circle_dur,circle_onset,total_dur,cross_onset,cross_dur,delay_resp_period,blocks.thisRepN,blocks.thisTrialN,blocks.thisN,blocks.thisIndex,trials.thisRepN,trials.thisTrialN,trials.thisN,trials.thisIndex,key_resp.started,text.started,key_resp.keys,key_resp.rt,text_2.started,text_2.stopped,sample.started,Delay.started,sample.stopped,Delay.stopped,Response_1.started,Response_2.started,Response_3.started,polygon.started,Response_1.stopped,Response_2.stopped,Response_3.stopped,polygon.stopped,participant,session,date,expName,psychopyVersion,frameRate,
,,,,,,,,,,,,,,,,,,,,,,,,,,,,,,,,,,,,,,,,,,,51.93356516701169,51.93356516701169,t,44.170105166966096,,,,,,,,,,,,,,,200003,103,2023-03-24_13h02.18.795,DMS_et_12-36,2022.2.4,None,
3,PRED,12,0.8272685744920544,0,images/picture_1.png,images/picture_1.png,0,"[-11.733433509789462, 11.733433509789464]",-11.733433509789462,11.733433509789464,images/picture_2.png,1,"[-11.733433509789466, -11.733433509789462]",-11.733433509789464,-11.733433509789462,images/picture_3.png,2,"[11.733433509789464, 11.733433509789462]",11.733433509789464,11.733433509789462,0,1,1,0.8272685744920544,1.8272685744920545,1.1727314255079455,3.0,1,1.5772685744920545,0,4.0,3.0,1,2,0,0,0,0,0,0,0,3,,,,,96.6210770830512,108.65034637507051,108.65034637507051,108.65034637507051,109.66558500006795,110.23284841701388,110.48057362507097,110.48057362507097,110.48057362507097,111.64709641702939,111.6661549169803,111.6661549169803,111.6661549169803,112.64658050006256,200003,103,2023-03-24_13h02.18.795,DMS_et_12-36,2022.2.4,None,
0,PRED,12,0.8272685744920544,0,images/picture_1.png,images/picture_1.png,0,"[-11.733433509789466, -11.733433509789462]",-11.733433509789464,-11.733433509789462,images/picture_2.png,1,"[-11.733433509789462, 11.733433509789464]",-11.733433509789462,11.733433509789464,images/picture_3.png,2,"[11.733433509789464, 11.733433509789462]",11.733433509789464,11.733433509789462,0,1,1,0.8272685744920544,1.8272685744920545,1.1727314255079455,3.0,1,1.5772685744920545,0,4.0,3.0,1,2,0,0,0,0,0,1,1,0,,,,,,,112.64658050006256,112.64658050006256,113.64709570806008,114.23276037501637,114.46578729199246,114.46578729199246,114.46578729199246,115.64668158302084,115.64668158302084,115.64668158302084,115.64668158302084,116.64638533303514,200003,103,2023-03-24_13h02.18.795,DMS_et_12-36,2022.2.4,None,
2,PRED,12,0.8272685744920544,0,images/picture_1.png,images/picture_1.png,0,"[-11.733433509789466, -11.733433509789462]",-11.733433509789464,-11.733433509789462,images/picture_2.png,1,"[11.733433509789462, -11.733433509789466]",11.733433509789462,-11.733433509789464,images/picture_3.png,2,"[-11.733433509789462, 11.733433509789464]",-11.733433509789462,11.733433509789464,0,1,1,0.8272685744920544,1.8272685744920545,1.1727314255079455,3.0,1,1.5772685744920545,0,4.0,3.0,1,2,0,0,0,0,0,2,2,2,,,,,,,116.64638533303514,116.64638533303514,117.64669479196891,118.23319341696333,118.46618208300788,118.46618208300788,118.46618208300788,119.64701487496495,119.64701487496495,119.64701487496495,119.64701487496495,120.64663245796692,200003,103,2023-03-24_13h02.18.795,DMS_et_12-36,2022.2.4,None,
7,PRED,12,0.8272685744920544,0,images/picture_1.png,images/picture_1.png,0,"[-11.733433509789466, -11.733433509789462]",-11.733433509789464,-11.733433509789462,images/picture_2.png,1,"[11.733433509789462, -11.733433509789466]",11.733433509789462,-11.733433509789464,images/picture_3.png,2,"[11.733433509789464, 11.733433509789462]",11.733433509789464,11.733433509789462,0,1,1,0.8272685744920544,1.8272685744920545,1.1727314255079455,3.0,1,1.5772685744920545,0,4.0,3.0,1,2,0,0,0,0,0,3,3,7,,,,,,,120.64663245796692,120.64663245796692,121.646808666992,122.23291583301034,122.46613295807038,122.46613295807038,122.46613295807038,123.64704125002027,123.64704125002027,123.64704125002027,123.64704125002027,124.64671987504698,200003,103,2023-03-24_13h02.18.795,DMS_et_12-36,2022.2.4,None,
5,PRED,12,0.8272685744920544,0,images/picture_1.png,images/picture_1.png,0,"[-11.733433509789466, -11.733433509789462]",-11.733433509789464,-11.733433509789462,images/picture_2.png,1,"[11.733433509789464, 11.733433509789462]",11.733433509789464,11.733433509789462,images/picture_3.png,2,"[-11.733433509789462, 11.733433509789464]",-11.733433509789462,11.733433509789464,0,1,1,0.8272685744920544,1.8272685744920545,1.1727314255079455,3.0,1,1.5772685744920545,0,4.0,3.0,1,2,0,0,0,0,0,4,4,5,,,,,,,124.64671987504698,124.64671987504698,125.64687312499154,126.23260012501851,126.46628495806362,126.46628495806362,126.46628495806362,127.64686387497932,127.64686387497932,127.64686387497932,127.64686387497932,128.64646125002764,200003,103,2023-03-24_13h02.18.795,DMS_et_12-36,2022.2.4,None,
6,PRED,12,0.8272685744920544,0,images/picture_1.png,images/picture_1.png,0,"[11.733433509789462, -11.733433509789466]",11.733433509789462,-11.733433509789464,images/picture_2.png,1,"[-11.733433509789462, 11.733433509789464]",-11.733433509789462,11.733433509789464,images/picture_3.png,2,"[11.733433509789464, 11.733433509789462]",11.733433509789464,11.733433509789462,0,1,1,0.8272685744920544,1.8272685744920545,1.1727314255079455,3.0,1,1.5772685744920545,0,4.0,3.0,1,2,0,0,0,0,0,5,5,6,,,,,,,128.64646125002764,128.64646125002764,129.64711737504695,130.23288991698064,130.4664365829667,130.4664365829667,130.4664365829667,131.64701491699088,131.64701491699088,131.64701491699088,131.64701491699088,132.64655783306807,200003,103,2023-03-24_13h02.18.795,DMS_et_12-36,2022.2.4,None,
1,PRED,12,0.8272685744920544,0,images/picture_1.png,images/picture_1.png,0,"[11.733433509789464, 11.733433509789462]",11.733433509789464,11.733433509789462,images/picture_2.png,1,"[-11.733433509789462, 11.733433509789464]",-11.733433509789462,11.733433509789464,images/picture_3.png,2,"[11.733433509789462, -11.733433509789466]",11.733433509789462,-11.733433509789464,0,1,1,0.8272685744920544,1.8272685744920545,1.1727314255079455,3.0,1,1.5772685744920545,0,4.0,3.0,1,2,0,0,0,0,0,6,6,1,,,,,,,132.64655783306807,132.64655783306807,133.64691483299248,134.23322445806116,134.46618200000376,134.46618200000376,134.46618200000376,135.64672804204747,135.64672804204747,135.64672804204747,135.64672804204747,136.6464751670137,200003,103,2023-03-24_13h02.18.795,DMS_et_12-36,2022.2.4,None,
8,PRED,12,0.8272685744920544,0,images/picture_1.png,images/picture_1.png,0,"[-11.733433509789466, -11.733433509789462]",-11.733433509789464,-11.733433509789462,images/picture_2.png,1,"[11.733433509789462, -11.733433509789466]",11.733433509789462,-11.733433509789464,images/picture_3.png,2,"[11.733433509789464, 11.733433509789462]",11.733433509789464,11.733433509789462,0,1,1,0.8272685744920544,1.8272685744920545,1.1727314255079455,3.0,1,1.5772685744920545,0,4.0,3.0,1,2,0,0,0,0,0,7,7,8,,,,,,,136.6464751670137,136.6464751670137,137.64705220796168,138.23272437497508,138.46630504203495,138.46630504203495,138.46630504203495,139.64678116701543,139.64678116701543,139.64678116701543,139.64678116701543,140.64665770798456,200003,103,2023-03-24_13h02.18.795,DMS_et_12-36,2022.2.4,None,
4,PRED,12,0.8272685744920544,0,images/picture_1.png,images/picture_1.png,0,"[-11.733433509789462, 11.733433509789464]",-11.733433509789462,11.733433509789464,images/picture_2.png,1,"[11.733433509789464, 11.733433509789462]",11.733433509789464,11.733433509789462,images/picture_3.png,2,"[11.733433509789462, -11.733433509789466]",11.733433509789462,-11.733433509789464,0,1,1,0.8272685744920544,1.8272685744920545,1.1727314255079455,3.0,1,1.5772685744920545,0,4.0,3.0,1,2,0,0,0,0,0,8,8,4,,,,,,,140.64665770798456,140.64665770798456,141.64705620799214,142.23284141696058,142.46615245798603,142.46615245798603,142.46615245798603,143.64707720803563,143.64707720803563,143.64707720803563,143.64707720803563,144.6675791250309,200003,103,2023-03-24_13h02.18.795,DMS_et_12-36,2022.2.4,None,
,,,,,,,,,,,,,,,,,,,,,,,,,,,,,,,,,,,0,0,0,0,,,,,,,,,144.6675791250309,156.70898870797828,,,,,,,,,,,,,200003,103,2023-03-24_13h02.18.795,DMS_et_12-36,2022.2.4,None,
13,UNPRED,12,0.8272685744920544,2,images/picture_3.png,images/picture_1.png,0,"[11.733433509789462, -11.733433509789466]",11.733433509789462,-11.733433509789464,images/picture_2.png,1,"[11.733433509789464, 11.733433509789462]",11.733433509789464,11.733433509789462,images/picture_3.png,2,"[-11.733433509789466, -11.733433509789462]",-11.733433509789464,-11.733433509789462,0,1,1,0.8272685744920544,1.8272685744920545,1.1727314255079455,3.0,1,1.5772685744920545,0,4.0,3.0,1,2,1,0,1,0,0,0,0,4,,,,,,,156.70898870797828,156.70898870797828,157.71378112502862,158.2998341670027,158.51380241697188,158.51380241697188,158.51380241697188,159.6994390829932,159.6994390829932,159.6994390829932,159.6994390829932,160.7322716669878,200003,103,2023-03-24_13h02.18.795,DMS_et_12-36,2022.2.4,None,
14,UNPRED,12,0.8272685744920544,2,images/picture_3.png,images/picture_1.png,0,"[-11.733433509789466, -11.733433509789462]",-11.733433509789464,-11.733433509789462,images/picture_2.png,1,"[11.733433509789464, 11.733433509789462]",11.733433509789464,11.733433509789462,images/picture_3.png,2,"[-11.733433509789462, 11.733433509789464]",-11.733433509789462,11.733433509789464,0,1,1,0.8272685744920544,1.8272685744920545,1.1727314255079455,3.0,1,1.5772685744920545,0,4.0,3.0,1,2,1,0,1,0,0,1,1,5,,,,,,,160.7322716669878,160.7322716669878,161.7470737079857,162.3137537080329,162.53299325006083,162.53299325006083,162.53299325006083,163.71364670805633,163.71364670805633,163.71364670805633,163.71364670805633,164.7127771669766,200003,103,2023-03-24_13h02.18.795,DMS_et_12-36,2022.2.4,None,
9,UNPRED,12,0.8272685744920544,0,images/picture_1.png,images/picture_1.png,0,"[-11.733433509789466, -11.733433509789462]",-11.733433509789464,-11.733433509789462,images/picture_2.png,1,"[11.733433509789464, 11.733433509789462]",11.733433509789464,11.733433509789462,images/picture_3.png,2,"[-11.733433509789462, 11.733433509789464]",-11.733433509789462,11.733433509789464,0,1,1,0.8272685744920544,1.8272685744920545,1.1727314255079455,3.0,1,1.5772685744920545,0,4.0,3.0,1,2,1,0,1,0,0,2,2,0,,,,,,,164.7127771669766,164.7127771669766,165.71378116705455,166.2991514999885,166.53224425006192,166.53224425006192,166.53224425006192,167.71358650003094,167.71358650003094,167.71358650003094,167.71358650003094,168.7322039169958,200003,103,2023-03-24_13h02.18.795,DMS_et_12-36,2022.2.4,None,
17,UNPRED,12,0.8272685744920544,2,images/picture_3.png,images/picture_1.png,0,"[11.733433509789462, -11.733433509789466]",11.733433509789462,-11.733433509789464,images/picture_2.png,1,"[11.733433509789464, 11.733433509789462]",11.733433509789464,11.733433509789462,images/picture_3.png,2,"[-11.733433509789462, 11.733433509789464]",-11.733433509789462,11.733433509789464,0,1,1,0.8272685744920544,1.8272685744920545,1.1727314255079455,3.0,1,1.5772685744920545,0,4.0,3.0,1,2,1,0,1,0,0,3,3,8,,,,,,,168.7322039169958,168.7322039169958,169.7471039580414,170.31379174999893,170.53289858298376,170.53289858298376,170.53289858298376,171.71377999999095,171.71377999999095,171.71377999999095,171.71377999999095,172.73230004205834,200003,103,2023-03-24_13h02.18.795,DMS_et_12-36,2022.2.4,None,
10,UNPRED,12,0.8272685744920544,2,images/picture_3.png,images/picture_1.png,0,"[11.733433509789462, -11.733433509789466]",11.733433509789462,-11.733433509789464,images/picture_2.png,1,"[-11.733433509789462, 11.733433509789464]",-11.733433509789462,11.733433509789464,images/picture_3.png,2,"[11.733433509789464, 11.733433509789462]",11.733433509789464,11.733433509789462,0,1,1,0.8272685744920544,1.8272685744920545,1.1727314255079455,3.0,1,1.5772685744920545,0,4.0,3.0,1,2,1,0,1,0,0,4,4,1,,,,,,,172.73230004205834,172.73230004205834,173.74710191704798,174.31358262500726,174.53295895806514,174.53295895806514,174.53295895806514,175.71352637500968,175.71352637500968,175.71352637500968,175.71352637500968,176.713360041962,200003,103,2023-03-24_13h02.18.795,DMS_et_12-36,2022.2.4,None,
15,UNPRED,12,0.8272685744920544,0,images/picture_1.png,images/picture_1.png,0,"[11.733433509789462, -11.733433509789466]",11.733433509789462,-11.733433509789464,images/picture_2.png,1,"[11.733433509789464, 11.733433509789462]",11.733433509789464,11.733433509789462,images/picture_3.png,2,"[-11.733433509789466, -11.733433509789462]",-11.733433509789464,-11.733433509789462,0,1,1,0.8272685744920544,1.8272685744920545,1.1727314255079455,3.0,1,1.5772685744920545,0,4.0,3.0,1,2,1,0,1,0,0,5,5,6,,,,,,,176.713360041962,176.713360041962,177.7137792080175,178.2997149169678,178.53306366701145,178.53306366701145,178.53306366701145,179.71379070798866,179.71379070798866,179.71379070798866,179.71379070798866,180.7322847499745,200003,103,2023-03-24_13h02.18.795,DMS_et_12-36,2022.2.4,None,
11,UNPRED,12,0.8272685744920544,2,images/picture_3.png,images/picture_1.png,0,"[-11.733433509789466, -11.733433509789462]",-11.733433509789464,-11.733433509789462,images/picture_2.png,1,"[11.733433509789462, -11.733433509789466]",11.733433509789462,-11.733433509789464,images/picture_3.png,2,"[11.733433509789464, 11.733433509789462]",11.733433509789464,11.733433509789462,0,1,1,0.8272685744920544,1.8272685744920545,1.1727314255079455,3.0,1,1.5772685744920545,0,4.0,3.0,1,2,1,0,1,0,0,6,6,2,,,,,,,180.7322847499745,180.7322847499745,181.74709800002165,182.31376179202925,182.5332717919955,182.5332717919955,182.5332717919955,183.71372558304574,183.71372558304574,183.71372558304574,183.71372558304574,184.7133362920722,200003,103,2023-03-24_13h02.18.795,DMS_et_12-36,2022.2.4,None,
16,UNPRED,12,0.8272685744920544,1,images/picture_2.png,images/picture_1.png,0,"[11.733433509789464, 11.733433509789462]",11.733433509789464,11.733433509789462,images/picture_2.png,1,"[-11.733433509789462, 11.733433509789464]",-11.733433509789462,11.733433509789464,images/picture_3.png,2,"[-11.733433509789466, -11.733433509789462]",-11.733433509789464,-11.733433509789462,0,1,1,0.8272685744920544,1.8272685744920545,1.1727314255079455,3.0,1,1.5772685744920545,0,4.0,3.0,1,2,1,0,1,0,0,7,7,7,,,,,,,184.7133362920722,184.7133362920722,185.71387087507173,186.2991845420329,186.5325353749795,186.5325353749795,186.5325353749795,187.713601125055,187.713601125055,187.713601125055,187.713601125055,188.713530292036,200003,103,2023-03-24_13h02.18.795,DMS_et_12-36,2022.2.4,None,
12,UNPRED,12,0.8272685744920544,1,images/picture_2.png,images/picture_1.png,0,"[-11.733433509789462, 11.733433509789464]",-11.733433509789462,11.733433509789464,images/picture_2.png,1,"[-11.733433509789466, -11.733433509789462]",-11.733433509789464,-11.733433509789462,images/picture_3.png,2,"[11.733433509789464, 11.733433509789462]",11.733433509789464,11.733433509789462,0,1,1,0.8272685744920544,1.8272685744920545,1.1727314255079455,3.0,1,1.5772685744920545,0,4.0,3.0,1,2,1,0,1,0,0,8,8,3,,,,,,,188.713530292036,188.713530292036,189.71377762500197,190.29973249998875,190.53307808307,190.53307808307,190.53307808307,191.7138282500673,191.7138282500673,191.7138282500673,191.7138282500673,192.74749366706237,200003,103,2023-03-24_13h02.18.795,DMS_et_12-36,2022.2.4,None,
,,,,,,,,,,,,,,,,,,,,,,,,,,,,,,,,,,,1,0,1,0,,,,,,,,,192.74749366706237,204.78011583304033,,,,,,,,,,,,,200003,103,2023-03-24_13h02.18.795,DMS_et_12-36,2022.2.4,None,
24,PRED,12,0.8272685744920544,0,images/picture_1.png,images/picture_1.png,0,"[-11.733433509789462, 11.733433509789464]",-11.733433509789462,11.733433509789464,images/picture_2.png,1,"[11.733433509789464, 11.733433509789462]",11.733433509789464,11.733433509789462,images/picture_3.png,2,"[-11.733433509789466, -11.733433509789462]",-11.733433509789464,-11.733433509789462,0,1,1,0.8272685744920544,1.8272685744920545,1.1727314255079455,3.0,1,1.5772685744920545,0,4.0,3.0,1,2,2,0,2,0,0,0,0,6,,,,,,,204.78011583304033,204.78011583304033,205.78033812507056,206.3663205000339,206.58015216700733,206.58015216700733,206.58015216700733,207.76657220802736,207.76657220802736,207.76657220802736,207.76657220802736,208.78015674999915,200003,103,2023-03-24_13h02.18.795,DMS_et_12-36,2022.2.4,None,
20,PRED,12,0.8272685744920544,0,images/picture_1.png,images/picture_1.png,0,"[-11.733433509789462, 11.733433509789464]",-11.733433509789462,11.733433509789464,images/picture_2.png,1,"[-11.733433509789466, -11.733433509789462]",-11.733433509789464,-11.733433509789462,images/picture_3.png,2,"[11.733433509789464, 11.733433509789462]",11.733433509789464,11.733433509789462,0,1,1,0.8272685744920544,1.8272685744920545,1.1727314255079455,3.0,1,1.5772685744920545,0,4.0,3.0,1,2,2,0,2,0,0,1,1,2,,,,,,,208.78015674999915,208.78015674999915,209.78036212502047,210.36631812504493,210.59988600004,210.59988600004,210.59988600004,211.78035991697107,211.78035991697107,211.78035991697107,211.78035991697107,212.7801433330169,200003,103,2023-03-24_13h02.18.795,DMS_et_12-36,2022.2.4,None,
22,PRED,12,0.8272685744920544,0,images/picture_1.png,images/picture_1.png,0,"[-11.733433509789462, 11.733433509789464]",-11.733433509789462,11.733433509789464,images/picture_2.png,1,"[11.733433509789462, -11.733433509789466]",11.733433509789462,-11.733433509789464,images/picture_3.png,2,"[-11.733433509789466, -11.733433509789462]",-11.733433509789464,-11.733433509789462,0,1,1,0.8272685744920544,1.8272685744920545,1.1727314255079455,3.0,1,1.5772685744920545,0,4.0,3.0,1,2,2,0,2,0,0,2,2,4,,,,,,,212.7801433330169,212.7801433330169,213.78057008306496,214.36637987499125,214.5998379579978,214.5998379579978,214.5998379579978,215.780319374986,215.780319374986,215.780319374986,215.780319374986,216.7802478329977,200003,103,2023-03-24_13h02.18.795,DMS_et_12-36,2022.2.4,None,
18,PRED,12,0.8272685744920544,0,images/picture_1.png,images/picture_1.png,0,"[-11.733433509789466, -11.733433509789462]",-11.733433509789464,-11.733433509789462,images/picture_2.png,1,"[-11.733433509789462, 11.733433509789464]",-11.733433509789462,11.733433509789464,images/picture_3.png,2,"[11.733433509789462, -11.733433509789466]",11.733433509789462,-11.733433509789464,0,1,1,0.8272685744920544,1.8272685744920545,1.1727314255079455,3.0,1,1.5772685744920545,0,4.0,3.0,1,2,2,0,2,0,0,3,3,0,,,,,,,216.7802478329977,216.7802478329977,217.7802405830007,218.3664315000642,218.5995576250134,218.5995576250134,218.5995576250134,219.7805360830389,219.7805360830389,219.7805360830389,219.7805360830389,220.78022075002082,200003,103,2023-03-24_13h02.18.795,DMS_et_12-36,2022.2.4,None,
23,PRED,12,0.8272685744920544,0,images/picture_1.png,images/picture_1.png,0,"[11.733433509789464, 11.733433509789462]",11.733433509789464,11.733433509789462,images/picture_2.png,1,"[-11.733433509789466, -11.733433509789462]",-11.733433509789464,-11.733433509789462,images/picture_3.png,2,"[-11.733433509789462, 11.733433509789464]",-11.733433509789462,11.733433509789464,0,1,1,0.8272685744920544,1.8272685744920545,1.1727314255079455,3.0,1,1.5772685744920545,0,4.0,3.0,1,2,2,0,2,0,0,4,4,5,,,,,,,220.78022075002082,220.78022075002082,221.78053979203105,222.3663110419875,222.59979729203042,222.59979729203042,222.59979729203042,223.78030808304902,223.78030808304902,223.78030808304902,223.78030808304902,224.7801558750216,200003,103,2023-03-24_13h02.18.795,DMS_et_12-36,2022.2.4,None,
21,PRED,12,0.8272685744920544,0,images/picture_1.png,images/picture_1.png,0,"[-11.733433509789466, -11.733433509789462]",-11.733433509789464,-11.733433509789462,images/picture_2.png,1,"[11.733433509789462, -11.733433509789466]",11.733433509789462,-11.733433509789464,images/picture_3.png,2,"[11.733433509789464, 11.733433509789462]",11.733433509789464,11.733433509789462,0,1,1,0.8272685744920544,1.8272685744920545,1.1727314255079455,3.0,1,1.5772685744920545,0,4.0,3.0,1,2,2,0,2,0,0,5,5,3,,,,,,,224.7801558750216,224.7801558750216,225.7803022080334,226.36652304197196,226.59966637496836,226.59966637496836,226.59966637496836,227.7802777920151,227.7802777920151,227.7802777920151,227.7802777920151,228.78006024996284,200003,103,2023-03-24_13h02.18.795,DMS_et_12-36,2022.2.4,None,
26,PRED,12,0.8272685744920544,0,images/picture_1.png,images/picture_1.png,0,"[-11.733433509789466, -11.733433509789462]",-11.733433509789464,-11.733433509789462,images/picture_2.png,1,"[11.733433509789462, -11.733433509789466]",11.733433509789462,-11.733433509789464,images/picture_3.png,2,"[-11.733433509789462, 11.733433509789464]",-11.733433509789462,11.733433509789464,0,1,1,0.8272685744920544,1.8272685744920545,1.1727314255079455,3.0,1,1.5772685744920545,0,4.0,3.0,1,2,2,0,2,0,0,6,6,8,,,,,,,228.78006024996284,228.78006024996284,229.78036475006957,230.36626699997578,230.60007454198785,230.60007454198785,230.60007454198785,231.78040916705504,231.78040916705504,231.78040916705504,231.78040916705504,232.78021258302033,200003,103,2023-03-24_13h02.18.795,DMS_et_12-36,2022.2.4,None,
25,PRED,12,0.8272685744920544,0,images/picture_1.png,images/picture_1.png,0,"[-11.733433509789466, -11.733433509789462]",-11.733433509789464,-11.733433509789462,images/picture_2.png,1,"[-11.733433509789462, 11.733433509789464]",-11.733433509789462,11.733433509789464,images/picture_3.png,2,"[11.733433509789462, -11.733433509789466]",11.733433509789462,-11.733433509789464,0,1,1,0.8272685744920544,1.8272685744920545,1.1727314255079455,3.0,1,1.5772685744920545,0,4.0,3.0,1,2,2,0,2,0,0,7,7,7,,,,,,,232.78021258302033,232.78021258302033,233.78055945807137,234.36643979197834,234.59963199996855,234.59963199996855,234.59963199996855,235.7803984170314,235.7803984170314,235.7803984170314,235.7803984170314,236.78007983299904,200003,103,2023-03-24_13h02.18.795,DMS_et_12-36,2022.2.4,None,
19,PRED,12,0.8272685744920544,0,images/picture_1.png,images/picture_1.png,0,"[-11.733433509789466, -11.733433509789462]",-11.733433509789464,-11.733433509789462,images/picture_2.png,1,"[-11.733433509789462, 11.733433509789464]",-11.733433509789462,11.733433509789464,images/picture_3.png,2,"[11.733433509789462, -11.733433509789466]",11.733433509789462,-11.733433509789464,0,1,1,0.8272685744920544,1.8272685744920545,1.1727314255079455,3.0,1,1.5772685744920545,0,4.0,3.0,1,2,2,0,2,0,0,8,8,1,,,,,,,236.78007983299904,236.78007983299904,237.78025729197543,238.3656520419754,238.59966945799533,238.59966945799533,238.59966945799533,239.78055866702925,239.78055866702925,239.78055866702925,239.78055866702925,240.82395533297677,200003,103,2023-03-24_13h02.18.795,DMS_et_12-36,2022.2.4,None,
,,,,,,,,,,,,,,,,,,,,,,,,,,,,,,,,,,,2,0,2,0,,,,,,,,,240.82395533297677,252.85730179201346,,,,,,,,,,,,,200003,103,2023-03-24_13h02.18.795,DMS_et_12-36,2022.2.4,None,
29,UNPRED,12,0.8272685744920544,2,images/picture_3.png,images/picture_1.png,0,"[-11.733433509789466, -11.733433509789462]",-11.733433509789464,-11.733433509789462,images/picture_2.png,1,"[-11.733433509789462, 11.733433509789464]",-11.733433509789462,11.733433509789464,images/picture_3.png,2,"[11.733433509789464, 11.733433509789462]",11.733433509789464,11.733433509789462,0,1,1,0.8272685744920544,1.8272685744920545,1.1727314255079455,3.0,1,1.5772685744920545,0,4.0,3.0,1,2,3,0,3,0,0,0,0,2,,,,,,,252.85730179201346,252.85730179201346,253.86642220802605,254.4473330420442,254.68050141702406,254.68050141702406,254.68050141702406,255.84733879205305,255.8663519170368,255.8663519170368,255.8663519170368,256.8658317499794,200003,103,2023-03-24_13h02.18.795,DMS_et_12-36,2022.2.4,None,
31,UNPRED,12,0.8272685744920544,2,images/picture_3.png,images/picture_1.png,0,"[-11.733433509789462, 11.733433509789464]",-11.733433509789462,11.733433509789464,images/picture_2.png,1,"[11.733433509789464, 11.733433509789462]",11.733433509789464,11.733433509789462,images/picture_3.png,2,"[11.733433509789462, -11.733433509789466]",11.733433509789462,-11.733433509789464,0,1,1,0.8272685744920544,1.8272685744920545,1.1727314255079455,3.0,1,1.5772685744920545,0,4.0,3.0,1,2,3,0,3,0,0,1,1,4,,,,,,,256.8658317499794,256.8658317499794,257.88019441696815,258.4469130419893,258.66573879204225,258.66573879204225,258.66573879204225,259.8471058330033,259.8471058330033,259.8471058330033,259.8471058330033,260.84679516695905,200003,103,2023-03-24_13h02.18.795,DMS_et_12-36,2022.2.4,None,
28,UNPRED,12,0.8272685744920544,0,images/picture_1.png,images/picture_1.png,0,"[11.733433509789464, 11.733433509789462]",11.733433509789464,11.733433509789462,images/picture_2.png,1,"[11.733433509789462, -11.733433509789466]",11.733433509789462,-11.733433509789464,images/picture_3.png,2,"[-11.733433509789466, -11.733433509789462]",-11.733433509789464,-11.733433509789462,0,1,1,0.8272685744920544,1.8272685744920545,1.1727314255079455,3.0,1,1.5772685744920545,0,4.0,3.0,1,2,3,0,3,0,0,2,2,1,,,,,,,260.84679516695905,260.84679516695905,261.8472818330629,262.43312837497797,262.6662742920453,262.6662742920453,262.6662742920453,263.84726429206785,263.84726429206785,263.84726429206785,263.84726429206785,264.8465913750697,200003,103,2023-03-24_13h02.18.795,DMS_et_12-36,2022.2.4,None,
30,UNPRED,12,0.8272685744920544,0,images/picture_1.png,images/picture_1.png,0,"[11.733433509789462, -11.733433509789466]",11.733433509789462,-11.733433509789464,images/picture_2.png,1,"[11.733433509789464, 11.733433509789462]",11.733433509789464,11.733433509789462,images/picture_3.png,2,"[-11.733433509789462, 11.733433509789464]",-11.733433509789462,11.733433509789464,0,1,1,0.8272685744920544,1.8272685744920545,1.1727314255079455,3.0,1,1.5772685744920545,0,4.0,3.0,1,2,3,0,3,0,0,3,3,3,,,,,,,264.8465913750697,264.8465913750697,265.8470816250192,266.43315804202575,266.66644162498415,266.66644162498415,266.66644162498415,267.8473559579579,267.8473559579579,267.8473559579579,267.8473559579579,268.8469084170647,200003,103,2023-03-24_13h02.18.795,DMS_et_12-36,2022.2.4,None,
27,UNPRED,12,0.8272685744920544,0,images/picture_1.png,images/picture_1.png,0,"[11.733433509789464, 11.733433509789462]",11.733433509789464,11.733433509789462,images/picture_2.png,1,"[11.733433509789462, -11.733433509789466]",11.733433509789462,-11.733433509789464,images/picture_3.png,2,"[-11.733433509789466, -11.733433509789462]",-11.733433509789464,-11.733433509789462,0,1,1,0.8272685744920544,1.8272685744920545,1.1727314255079455,3.0,1,1.5772685744920545,0,4.0,3.0,1,2,3,0,3,0,0,4,4,0,,,,,,,268.8469084170647,268.8469084170647,269.8472895830637,270.43313170806505,270.6662825420499,270.6662825420499,270.6662825420499,271.847105541965,271.847105541965,271.847105541965,271.847105541965,272.8466866670642,200003,103,2023-03-24_13h02.18.795,DMS_et_12-36,2022.2.4,None,
33,UNPRED,12,0.8272685744920544,0,images/picture_1.png,images/picture_1.png,0,"[11.733433509789462, -11.733433509789466]",11.733433509789462,-11.733433509789464,images/picture_2.png,1,"[-11.733433509789462, 11.733433509789464]",-11.733433509789462,11.733433509789464,images/picture_3.png,2,"[11.733433509789464, 11.733433509789462]",11.733433509789464,11.733433509789462,0,1,1,0.8272685744920544,1.8272685744920545,1.1727314255079455,3.0,1,1.5772685744920545,0,4.0,3.0,1,2,3,0,3,0,0,5,5,6,,,,,,,272.8466866670642,272.8466866670642,273.84729666705243,274.43345120805316,274.6670055419672,274.6670055419672,274.6670055419672,275.84713004203513,275.84713004203513,275.84713004203513,275.84713004203513,276.8656967499992,200003,103,2023-03-24_13h02.18.795,DMS_et_12-36,2022.2.4,None,
35,UNPRED,12,0.8272685744920544,2,images/picture_3.png,images/picture_1.png,0,"[11.733433509789464, 11.733433509789462]",11.733433509789464,11.733433509789462,images/picture_2.png,1,"[-11.733433509789462, 11.733433509789464]",-11.733433509789462,11.733433509789464,images/picture_3.png,2,"[-11.733433509789466, -11.733433509789462]",-11.733433509789464,-11.733433509789462,0,1,1,0.8272685744920544,1.8272685744920545,1.1727314255079455,3.0,1,1.5772685744920545,0,4.0,3.0,1,2,3,0,3,0,0,6,6,8,,,,,,,276.8656967499992,276.8656967499992,277.88056008296553,278.44689791696146,278.66572220798116,278.66572220798116,278.66572220798116,279.84728854196146,279.84728854196146,279.84728854196146,279.84728854196146,280.8477709579747,200003,103,2023-03-24_13h02.18.795,DMS_et_12-36,2022.2.4,None,
34,UNPRED,12,0.8272685744920544,1,images/picture_2.png,images/picture_1.png,0,"[-11.733433509789466, -11.733433509789462]",-11.733433509789464,-11.733433509789462,images/picture_2.png,1,"[11.733433509789464, 11.733433509789462]",11.733433509789464,11.733433509789462,images/picture_3.png,2,"[-11.733433509789462, 11.733433509789464]",-11.733433509789462,11.733433509789464,0,1,1,0.8272685744920544,1.8272685744920545,1.1727314255079455,3.0,1,1.5772685744920545,0,4.0,3.0,1,2,3,0,3,0,0,7,7,7,,,,,,,280.8477709579747,280.8477709579747,281.84728858305607,282.4330756670097,282.66656212497037,282.66656212497037,282.66656212497037,283.8473960000556,283.8473960000556,283.8473960000556,283.8473960000556,284.84596470801625,200003,103,2023-03-24_13h02.18.795,DMS_et_12-36,2022.2.4,None,
32,UNPRED,12,0.8272685744920544,0,images/picture_1.png,images/picture_1.png,0,"[11.733433509789464, 11.733433509789462]",11.733433509789464,11.733433509789462,images/picture_2.png,1,"[-11.733433509789466, -11.733433509789462]",-11.733433509789464,-11.733433509789462,images/picture_3.png,2,"[11.733433509789462, -11.733433509789466]",11.733433509789462,-11.733433509789464,0,1,1,0.8272685744920544,1.8272685744920545,1.1727314255079455,3.0,1,1.5772685744920545,0,4.0,3.0,1,2,3,0,3,0,0,8,8,5,,,,,,,284.84596470801625,284.84596470801625,285.8471107080113,286.4332125830697,286.666304375045,286.666304375045,286.666304375045,287.8472944580717,287.8472944580717,287.8472944580717,287.8472944580717,288.88079879200086,200003,103,2023-03-24_13h02.18.795,DMS_et_12-36,2022.2.4,None,
,,,,,,,,,,,,,,,,,,,,,,,,,,,,,,,,,,,3,0,3,0,,,,,,,,,288.88079879200086,300.90195475006476,,,,,,,,,,,,,200003,103,2023-03-24_13h02.18.795,DMS_et_12-36,2022.2.4,None,
44,PRED,12,0.8272685744920544,1,images/picture_2.png,images/picture_1.png,0,"[11.733433509789462, -11.733433509789466]",11.733433509789462,-11.733433509789464,images/picture_2.png,1,"[-11.733433509789462, 11.733433509789464]",-11.733433509789462,11.733433509789464,images/picture_3.png,2,"[11.733433509789464, 11.733433509789462]",11.733433509789464,11.733433509789462,0,1,1,0.8272685744920544,1.8272685744920545,1.1727314255079455,3.0,1,1.5772685744920545,0,4.0,3.0,1,2,4,0,4,0,0,0,0,8,,,,,,,300.90195475006476,300.90195475006476,301.9138846669812,302.48056995798834,302.73311970802024,302.73311970802024,302.73311970802024,303.89997091703117,303.91386091697495,303.91386091697495,303.91386091697495,304.913636042038,200003,103,2023-03-24_13h02.18.795,DMS_et_12-36,2022.2.4,None,
43,PRED,12,0.8272685744920544,1,images/picture_2.png,images/picture_1.png,0,"[11.733433509789462, -11.733433509789466]",11.733433509789462,-11.733433509789464,images/picture_2.png,1,"[-11.733433509789462, 11.733433509789464]",-11.733433509789462,11.733433509789464,images/picture_3.png,2,"[-11.733433509789466, -11.733433509789462]",-11.733433509789464,-11.733433509789462,0,1,1,0.8272685744920544,1.8272685744920545,1.1727314255079455,3.0,1,1.5772685744920545,0,4.0,3.0,1,2,4,0,4,0,0,1,1,7,,,,,,,304.913636042038,304.913636042038,305.91404241696,306.49998225003947,306.733054292039,306.733054292039,306.733054292039,307.91385058301967,307.91385058301967,307.91385058301967,307.91385058301967,308.9131563330302,200003,103,2023-03-24_13h02.18.795,DMS_et_12-36,2022.2.4,None,
36,PRED,12,0.8272685744920544,1,images/picture_2.png,images/picture_1.png,0,"[11.733433509789462, -11.733433509789466]",11.733433509789462,-11.733433509789464,images/picture_2.png,1,"[-11.733433509789466, -11.733433509789462]",-11.733433509789464,-11.733433509789462,images/picture_3.png,2,"[-11.733433509789462, 11.733433509789464]",-11.733433509789462,11.733433509789464,0,1,1,0.8272685744920544,1.8272685744920545,1.1727314255079455,3.0,1,1.5772685744920545,0,4.0,3.0,1,2,4,0,4,0,0,2,2,0,,,,,,,308.9131563330302,308.9131563330302,309.91362295800354,310.4998122920515,310.7331321249949,310.7331321249949,310.7331321249949,311.9138537499821,311.9138537499821,311.9138537499821,311.9138537499821,312.9133127500536,200003,103,2023-03-24_13h02.18.795,DMS_et_12-36,2022.2.4,None,
37,PRED,12,0.8272685744920544,1,images/picture_2.png,images/picture_1.png,0,"[-11.733433509789466, -11.733433509789462]",-11.733433509789464,-11.733433509789462,images/picture_2.png,1,"[-11.733433509789462, 11.733433509789464]",-11.733433509789462,11.733433509789464,images/picture_3.png,2,"[11.733433509789464, 11.733433509789462]",11.733433509789464,11.733433509789462,0,1,1,0.8272685744920544,1.8272685744920545,1.1727314255079455,3.0,1,1.5772685744920545,0,4.0,3.0,1,2,4,0,4,0,0,3,3,1,,,,,,,312.9133127500536,312.9133127500536,313.91387520800345,314.49971620796714,314.73307720804587,314.73307720804587,314.73307720804587,315.91386916697957,315.91386916697957,315.91386916697957,315.91386916697957,316.91343091696035,200003,103,2023-03-24_13h02.18.795,DMS_et_12-36,2022.2.4,None,
38,PRED,12,0.8272685744920544,1,images/picture_2.png,images/picture_1.png,0,"[-11.733433509789462, 11.733433509789464]",-11.733433509789462,11.733433509789464,images/picture_2.png,1,"[-11.733433509789466, -11.733433509789462]",-11.733433509789464,-11.733433509789462,images/picture_3.png,2,"[11.733433509789462, -11.733433509789466]",11.733433509789462,-11.733433509789464,0,1,1,0.8272685744920544,1.8272685744920545,1.1727314255079455,3.0,1,1.5772685744920545,0,4.0,3.0,1,2,4,0,4,0,0,4,4,2,,,,,,,316.91343091696035,316.91343091696035,317.91405270795804,318.49983441701625,318.73310616705567,318.73310616705567,318.73310616705567,319.91366233304143,319.91366233304143,319.91366233304143,319.91366233304143,320.91347420797683,200003,103,2023-03-24_13h02.18.795,DMS_et_12-36,2022.2.4,None,
39,PRED,12,0.8272685744920544,1,images/picture_2.png,images/picture_1.png,0,"[11.733433509789462, -11.733433509789466]",11.733433509789462,-11.733433509789464,images/picture_2.png,1,"[-11.733433509789466, -11.733433509789462]",-11.733433509789464,-11.733433509789462,images/picture_3.png,2,"[-11.733433509789462, 11.733433509789464]",-11.733433509789462,11.733433509789464,0,1,1,0.8272685744920544,1.8272685744920545,1.1727314255079455,3.0,1,1.5772685744920545,0,4.0,3.0,1,2,4,0,4,0,0,5,5,3,,,,,,,320.91347420797683,320.91347420797683,321.9138569580391,322.5330485829618,322.7328295829939,322.7328295829939,322.7328295829939,323.9141942500137,323.9141942500137,323.9141942500137,323.9141942500137,324.9133320830297,200003,103,2023-03-24_13h02.18.795,DMS_et_12-36,2022.2.4,None,
42,PRED,12,0.8272685744920544,1,images/picture_2.png,images/picture_1.png,0,"[-11.733433509789462, 11.733433509789464]",-11.733433509789462,11.733433509789464,images/picture_2.png,1,"[11.733433509789464, 11.733433509789462]",11.733433509789464,11.733433509789462,images/picture_3.png,2,"[-11.733433509789466, -11.733433509789462]",-11.733433509789464,-11.733433509789462,0,1,1,0.8272685744920544,1.8272685744920545,1.1727314255079455,3.0,1,1.5772685744920545,0,4.0,3.0,1,2,4,0,4,0,0,6,6,6,,,,,,,324.9133320830297,324.9133320830297,325.91385462495964,326.49998075002804,326.73350958304945,326.73350958304945,326.73350958304945,327.9138926670421,327.9138926670421,327.9138926670421,327.9138926670421,328.91340741701424,200003,103,2023-03-24_13h02.18.795,DMS_et_12-36,2022.2.4,None,
41,PRED,12,0.8272685744920544,1,images/picture_2.png,images/picture_1.png,0,"[11.733433509789464, 11.733433509789462]",11.733433509789464,11.733433509789462,images/picture_2.png,1,"[-11.733433509789466, -11.733433509789462]",-11.733433509789464,-11.733433509789462,images/picture_3.png,2,"[-11.733433509789462, 11.733433509789464]",-11.733433509789462,11.733433509789464,0,1,1,0.8272685744920544,1.8272685744920545,1.1727314255079455,3.0,1,1.5772685744920545,0,4.0,3.0,1,2,4,0,4,0,0,7,7,5,,,,,,,328.91340741701424,328.91340741701424,329.91360624996014,330.4995453329757,330.7326463749632,330.7326463749632,330.7326463749632,331.9140392920235,331.9140392920235,331.9140392920235,331.9140392920235,332.91333729203325,200003,103,2023-03-24_13h02.18.795,DMS_et_12-36,2022.2.4,None,
40,PRED,12,0.8272685744920544,1,images/picture_2.png,images/picture_1.png,0,"[-11.733433509789462, 11.733433509789464]",-11.733433509789462,11.733433509789464,images/picture_2.png,1,"[11.733433509789464, 11.733433509789462]",11.733433509789464,11.733433509789462,images/picture_3.png,2,"[11.733433509789462, -11.733433509789466]",11.733433509789462,-11.733433509789464,0,1,1,0.8272685744920544,1.8272685744920545,1.1727314255079455,3.0,1,1.5772685744920545,0,4.0,3.0,1,2,4,0,4,0,0,8,8,4,,,,,,,332.91333729203325,332.91333729203325,333.9138375420589,334.4999763329979,334.7325739170192,334.7325739170192,334.7325739170192,335.9140759999864,335.9140759999864,335.9140759999864,335.9140759999864,336.97616866696626,200003,103,2023-03-24_13h02.18.795,DMS_et_12-36,2022.2.4,None,
,,,,,,,,,,,,,,,,,,,,,,,,,,,,,,,,,,,4,0,4,0,,,,,,,,,336.97616866696626,349.00225625000894,,,,,,,,,,,,,200003,103,2023-03-24_13h02.18.795,DMS_et_12-36,2022.2.4,None,
47,UNPRED,12,0.8272685744920544,1,images/picture_2.png,images/picture_1.png,0,"[-11.733433509789466, -11.733433509789462]",-11.733433509789464,-11.733433509789462,images/picture_2.png,1,"[11.733433509789462, -11.733433509789466]",11.733433509789462,-11.733433509789464,images/picture_3.png,2,"[-11.733433509789462, 11.733433509789464]",-11.733433509789462,11.733433509789464,0,1,1,0.8272685744920544,1.8272685744920545,1.1727314255079455,3.0,1,1.5772685744920545,0,4.0,3.0,1,2,5,0,5,0,0,0,0,2,,,,,,,349.00225625000894,349.00225625000894,350.0138424580218,350.5802626250079,350.83271145797335,350.83271145797335,350.83271145797335,351.9998117920477,352.01408558303956,352.01408558303956,352.01408558303956,353.03298345801886,200003,103,2023-03-24_13h02.18.795,DMS_et_12-36,2022.2.4,None,
45,UNPRED,12,0.8272685744920544,2,images/picture_3.png,images/picture_1.png,0,"[11.733433509789462, -11.733433509789466]",11.733433509789462,-11.733433509789464,images/picture_2.png,1,"[11.733433509789464, 11.733433509789462]",11.733433509789464,11.733433509789462,images/picture_3.png,2,"[-11.733433509789462, 11.733433509789464]",-11.733433509789462,11.733433509789464,0,1,1,0.8272685744920544,1.8272685744920545,1.1727314255079455,3.0,1,1.5772685744920545,0,4.0,3.0,1,2,5,0,5,0,0,1,1,0,,,,,,,353.03298345801886,353.03298345801886,354.04731641698163,354.6141576670343,354.83314987504855,354.83314987504855,354.83314987504855,356.0139015830355,356.0139015830355,356.0139015830355,356.0139015830355,357.0333006250439,200003,103,2023-03-24_13h02.18.795,DMS_et_12-36,2022.2.4,None,
49,UNPRED,12,0.8272685744920544,2,images/picture_3.png,images/picture_1.png,0,"[11.733433509789464, 11.733433509789462]",11.733433509789464,11.733433509789462,images/picture_2.png,1,"[-11.733433509789462, 11.733433509789464]",-11.733433509789462,11.733433509789464,images/picture_3.png,2,"[11.733433509789462, -11.733433509789466]",11.733433509789462,-11.733433509789464,0,1,1,0.8272685744920544,1.8272685744920545,1.1727314255079455,3.0,1,1.5772685744920545,0,4.0,3.0,1,2,5,0,5,0,0,2,2,4,,,,,,,357.0333006250439,357.0333006250439,358.04736337496433,358.6137532920111,358.8332470830064,358.8332470830064,358.8332470830064,360.01404224999715,360.01404224999715,360.01404224999715,360.01404224999715,361.0137293749722,200003,103,2023-03-24_13h02.18.795,DMS_et_12-36,2022.2.4,None,
53,UNPRED,12,0.8272685744920544,1,images/picture_2.png,images/picture_1.png,0,"[11.733433509789462, -11.733433509789466]",11.733433509789462,-11.733433509789464,images/picture_2.png,1,"[11.733433509789464, 11.733433509789462]",11.733433509789464,11.733433509789462,images/picture_3.png,2,"[-11.733433509789462, 11.733433509789464]",-11.733433509789462,11.733433509789464,0,1,1,0.8272685744920544,1.8272685744920545,1.1727314255079455,3.0,1,1.5772685744920545,0,4.0,3.0,1,2,5,0,5,0,0,3,3,8,,,,,,,361.0137293749722,361.0137293749722,362.0140368749853,362.5999882919714,362.8331286669709,362.8331286669709,362.8331286669709,364.0141342920251,364.0141342920251,364.0141342920251,364.0141342920251,365.0133695830591,200003,103,2023-03-24_13h02.18.795,DMS_et_12-36,2022.2.4,None,
51,UNPRED,12,0.8272685744920544,0,images/picture_1.png,images/picture_1.png,0,"[11.733433509789462, -11.733433509789466]",11.733433509789462,-11.733433509789464,images/picture_2.png,1,"[-11.733433509789466, -11.733433509789462]",-11.733433509789464,-11.733433509789462,images/picture_3.png,2,"[11.733433509789464, 11.733433509789462]",11.733433509789464,11.733433509789462,0,1,1,0.8272685744920544,1.8272685744920545,1.1727314255079455,3.0,1,1.5772685744920545,0,4.0,3.0,1,2,5,0,5,0,0,4,4,6,,,,,,,365.0133695830591,365.0133695830591,366.01406499999575,366.5999489170499,366.8333112919936,366.8333112919936,366.8333112919936,368.01414504204877,368.01414504204877,368.01414504204877,368.01414504204877,369.0332473750459,200003,103,2023-03-24_13h02.18.795,DMS_et_12-36,2022.2.4,None,
50,UNPRED,12,0.8272685744920544,2,images/picture_3.png,images/picture_1.png,0,"[11.733433509789462, -11.733433509789466]",11.733433509789462,-11.733433509789464,images/picture_2.png,1,"[11.733433509789464, 11.733433509789462]",11.733433509789464,11.733433509789462,images/picture_3.png,2,"[-11.733433509789466, -11.733433509789462]",-11.733433509789464,-11.733433509789462,0,1,1,0.8272685744920544,1.8272685744920545,1.1727314255079455,3.0,1,1.5772685744920545,0,4.0,3.0,1,2,5,0,5,0,0,5,5,5,,,,,,,369.0332473750459,369.0332473750459,370.0472965419758,370.6139961669687,370.83253291703295,370.83253291703295,370.83253291703295,372.01405920798425,372.01405920798425,372.01405920798425,372.01405920798425,373.03329387505073,200003,103,2023-03-24_13h02.18.795,DMS_et_12-36,2022.2.4,None,
52,UNPRED,12,0.8272685744920544,2,images/picture_3.png,images/picture_1.png,0,"[-11.733433509789462, 11.733433509789464]",-11.733433509789462,11.733433509789464,images/picture_2.png,1,"[11.733433509789464, 11.733433509789462]",11.733433509789464,11.733433509789462,images/picture_3.png,2,"[11.733433509789462, -11.733433509789466]",11.733433509789462,-11.733433509789464,0,1,1,0.8272685744920544,1.8272685744920545,1.1727314255079455,3.0,1,1.5772685744920545,0,4.0,3.0,1,2,5,0,5,0,0,6,6,7,,,,,,,373.03329387505073,373.03329387505073,374.04742966697086,374.61404416698497,374.83339270798024,374.83339270798024,374.83339270798024,376.01384266698733,376.01384266698733,376.01384266698733,376.01384266698733,377.0333197079599,200003,103,2023-03-24_13h02.18.795,DMS_et_12-36,2022.2.4,None,
46,UNPRED,12,0.8272685744920544,2,images/picture_3.png,images/picture_1.png,0,"[-11.733433509789466, -11.733433509789462]",-11.733433509789464,-11.733433509789462,images/picture_2.png,1,"[11.733433509789462, -11.733433509789466]",11.733433509789462,-11.733433509789464,images/picture_3.png,2,"[11.733433509789464, 11.733433509789462]",11.733433509789464,11.733433509789462,0,1,1,0.8272685744920544,1.8272685744920545,1.1727314255079455,3.0,1,1.5772685744920545,0,4.0,3.0,1,2,5,0,5,0,0,7,7,1,,,,,,,377.0333197079599,377.0333197079599,378.04732999997213,378.61406420799904,378.8332150420174,378.8332150420174,378.8332150420174,380.01405920798425,380.01405920798425,380.01405920798425,380.01405920798425,381.0138774169609,200003,103,2023-03-24_13h02.18.795,DMS_et_12-36,2022.2.4,None,
48,UNPRED,12,0.8272685744920544,2,images/picture_3.png,images/picture_1.png,0,"[-11.733433509789466, -11.733433509789462]",-11.733433509789464,-11.733433509789462,images/picture_2.png,1,"[-11.733433509789462, 11.733433509789464]",-11.733433509789462,11.733433509789464,images/picture_3.png,2,"[11.733433509789464, 11.733433509789462]",11.733433509789464,11.733433509789462,0,1,1,0.8272685744920544,1.8272685744920545,1.1727314255079455,3.0,1,1.5772685744920545,0,4.0,3.0,1,2,5,0,5,0,0,8,8,3,,,,,,,381.0138774169609,381.0138774169609,382.013776750071,382.5998908330221,382.83321108296514,382.83321108296514,382.83321108296514,384.01381975004915,384.01381975004915,384.01381975004915,384.01381975004915,385.0848732079612,200003,103,2023-03-24_13h02.18.795,DMS_et_12-36,2022.2.4,None,
,,,,,,,,,,,,,,,,,,,,,,,,,,,,,,,,,,,5,0,5,0,,,,,,,,,385.0848732079612,397.11979562498163,,,,,,,,,,,,,200003,103,2023-03-24_13h02.18.795,DMS_et_12-36,2022.2.4,None,
54,PRED,12,0.8272685744920544,1,images/picture_2.png,images/picture_1.png,0,"[-11.733433509789462, 11.733433509789464]",-11.733433509789462,11.733433509789464,images/picture_2.png,1,"[-11.733433509789466, -11.733433509789462]",-11.733433509789464,-11.733433509789462,images/picture_3.png,2,"[11.733433509789462, -11.733433509789466]",11.733433509789462,-11.733433509789464,0,1,1,0.8272685744920544,1.8272685744920545,1.1727314255079455,3.0,1,1.5772685744920545,0,4.0,3.0,1,2,6,0,6,0,0,0,0,0,,,,,,,397.11979562498163,397.11979562498163,398.13318775000516,398.6998475000728,398.94741858297493,398.94741858297493,398.94741858297493,400.11402716697194,400.13347574998625,400.13347574998625,400.13347574998625,401.11350170802325,200003,103,2023-03-24_13h02.18.795,DMS_et_12-36,2022.2.4,None,
57,PRED,12,0.8272685744920544,1,images/picture_2.png,images/picture_1.png,0,"[11.733433509789464, 11.733433509789462]",11.733433509789464,11.733433509789462,images/picture_2.png,1,"[11.733433509789462, -11.733433509789466]",11.733433509789462,-11.733433509789464,images/picture_3.png,2,"[-11.733433509789466, -11.733433509789462]",-11.733433509789464,-11.733433509789462,0,1,1,0.8272685744920544,1.8272685744920545,1.1727314255079455,3.0,1,1.5772685744920545,0,4.0,3.0,1,2,6,0,6,0,0,1,1,3,,,,,,,401.11350170802325,401.11350170802325,402.11380804202054,402.6995505420491,402.93334745801985,402.93334745801985,402.93334745801985,404.1140723749995,404.1140723749995,404.1140723749995,404.1140723749995,405.11503112502396,200003,103,2023-03-24_13h02.18.795,DMS_et_12-36,2022.2.4,None,
56,PRED,12,0.8272685744920544,1,images/picture_2.png,images/picture_1.png,0,"[11.733433509789464, 11.733433509789462]",11.733433509789464,11.733433509789462,images/picture_2.png,1,"[11.733433509789462, -11.733433509789466]",11.733433509789462,-11.733433509789464,images/picture_3.png,2,"[-11.733433509789466, -11.733433509789462]",-11.733433509789464,-11.733433509789462,0,1,1,0.8272685744920544,1.8272685744920545,1.1727314255079455,3.0,1,1.5772685744920545,0,4.0,3.0,1,2,6,0,6,0,0,2,2,2,,,,,,,405.11503112502396,405.11503112502396,406.1138606669847,406.6997258750489,406.94751220801845,406.94751220801845,406.94751220801845,408.1139797499636,408.1335200830363,408.1335200830363,408.1335200830363,409.1134572919691,200003,103,2023-03-24_13h02.18.795,DMS_et_12-36,2022.2.4,None,
59,PRED,12,0.8272685744920544,1,images/picture_2.png,images/picture_1.png,0,"[11.733433509789462, -11.733433509789466]",11.733433509789462,-11.733433509789464,images/picture_2.png,1,"[11.733433509789464, 11.733433509789462]",11.733433509789464,11.733433509789462,images/picture_3.png,2,"[-11.733433509789466, -11.733433509789462]",-11.733433509789464,-11.733433509789462,0,1,1,0.8272685744920544,1.8272685744920545,1.1727314255079455,3.0,1,1.5772685744920545,0,4.0,3.0,1,2,6,0,6,0,0,3,3,5,,,,,,,409.1134572919691,409.1134572919691,410.1140240000095,410.70008395798504,410.9331712500425,410.9331712500425,410.9331712500425,412.1136416250374,412.1136416250374,412.1136416250374,412.1136416250374,413.11362449999433,200003,103,2023-03-24_13h02.18.795,DMS_et_12-36,2022.2.4,None,
60,PRED,12,0.8272685744920544,1,images/picture_2.png,images/picture_1.png,0,"[11.733433509789464, 11.733433509789462]",11.733433509789464,11.733433509789462,images/picture_2.png,1,"[-11.733433509789466, -11.733433509789462]",-11.733433509789464,-11.733433509789462,images/picture_3.png,2,"[-11.733433509789462, 11.733433509789464]",-11.733433509789462,11.733433509789464,0,1,1,0.8272685744920544,1.8272685744920545,1.1727314255079455,3.0,1,1.5772685744920545,0,4.0,3.0,1,2,6,0,6,0,0,4,4,6,,,,,,,413.11362449999433,413.11362449999433,414.1138694579713,414.7001933749998,414.933378500049,414.933378500049,414.933378500049,416.11403516703285,416.11403516703285,416.11403516703285,416.11403516703285,417.1143545829691,200003,103,2023-03-24_13h02.18.795,DMS_et_12-36,2022.2.4,None,
62,PRED,12,0.8272685744920544,1,images/picture_2.png,images/picture_1.png,0,"[-11.733433509789462, 11.733433509789464]",-11.733433509789462,11.733433509789464,images/picture_2.png,1,"[11.733433509789464, 11.733433509789462]",11.733433509789464,11.733433509789462,images/picture_3.png,2,"[-11.733433509789466, -11.733433509789462]",-11.733433509789464,-11.733433509789462,0,1,1,0.8272685744920544,1.8272685744920545,1.1727314255079455,3.0,1,1.5772685744920545,0,4.0,3.0,1,2,6,0,6,0,0,5,5,8,,,,,,,417.1143545829691,417.1143545829691,418.11401758296415,418.6997590420069,418.933290667017,418.933290667017,418.933290667017,420.11386200005654,420.11386200005654,420.11386200005654,420.11386200005654,421.11324874998536,200003,103,2023-03-24_13h02.18.795,DMS_et_12-36,2022.2.4,None,
58,PRED,12,0.8272685744920544,1,images/picture_2.png,images/picture_1.png,0,"[11.733433509789462, -11.733433509789466]",11.733433509789462,-11.733433509789464,images/picture_2.png,1,"[-11.733433509789466, -11.733433509789462]",-11.733433509789464,-11.733433509789462,images/picture_3.png,2,"[11.733433509789464, 11.733433509789462]",11.733433509789464,11.733433509789462,0,1,1,0.8272685744920544,1.8272685744920545,1.1727314255079455,3.0,1,1.5772685744920545,0,4.0,3.0,1,2,6,0,6,0,0,6,6,4,,,,,,,421.11324874998536,421.11324874998536,422.1137350000208,422.6994983330369,422.9329669580329,422.9329669580329,422.9329669580329,424.11408037506044,424.11408037506044,424.11408037506044,424.11408037506044,425.11392124998383,200003,103,2023-03-24_13h02.18.795,DMS_et_12-36,2022.2.4,None,
61,PRED,12,0.8272685744920544,1,images/picture_2.png,images/picture_1.png,0,"[-11.733433509789466, -11.733433509789462]",-11.733433509789464,-11.733433509789462,images/picture_2.png,1,"[11.733433509789464, 11.733433509789462]",11.733433509789464,11.733433509789462,images/picture_3.png,2,"[-11.733433509789462, 11.733433509789464]",-11.733433509789462,11.733433509789464,0,1,1,0.8272685744920544,1.8272685744920545,1.1727314255079455,3.0,1,1.5772685744920545,0,4.0,3.0,1,2,6,0,6,0,0,7,7,7,,,,,,,425.11392124998383,425.11392124998383,426.1139219170436,426.70004383299965,426.93343879200984,426.93343879200984,426.93343879200984,428.114074000041,428.114074000041,428.114074000041,428.114074000041,429.11487100005616,200003,103,2023-03-24_13h02.18.795,DMS_et_12-36,2022.2.4,None,
55,PRED,12,0.8272685744920544,1,images/picture_2.png,images/picture_1.png,0,"[-11.733433509789466, -11.733433509789462]",-11.733433509789464,-11.733433509789462,images/picture_2.png,1,"[11.733433509789462, -11.733433509789466]",11.733433509789462,-11.733433509789464,images/picture_3.png,2,"[-11.733433509789462, 11.733433509789464]",-11.733433509789462,11.733433509789464,0,1,1,0.8272685744920544,1.8272685744920545,1.1727314255079455,3.0,1,1.5772685744920545,0,4.0,3.0,1,2,6,0,6,0,0,8,8,1,,,,,,,429.11487100005616,429.11487100005616,430.1141273750691,430.6998753329972,430.93335587496404,430.93335587496404,430.93335587496404,432.1139588750666,432.1139588750666,432.1139588750666,432.1139588750666,433.17466891696677,200003,103,2023-03-24_13h02.18.795,DMS_et_12-36,2022.2.4,None,
,,,,,,,,,,,,,,,,,,,,,,,,,,,,,,,,,,,6,0,6,0,,,,,,,,,433.17466891696677,445.2118098330684,,,,,,,,,,,,,200003,103,2023-03-24_13h02.18.795,DMS_et_12-36,2022.2.4,None,
65,UNPRED,12,0.8272685744920544,2,images/picture_3.png,images/picture_1.png,0,"[11.733433509789462, -11.733433509789466]",11.733433509789462,-11.733433509789464,images/picture_2.png,1,"[11.733433509789464, 11.733433509789462]",11.733433509789464,11.733433509789462,images/picture_3.png,2,"[-11.733433509789462, 11.733433509789464]",-11.733433509789462,11.733433509789464,0,1,1,0.8272685744920544,1.8272685744920545,1.1727314255079455,3.0,1,1.5772685744920545,0,4.0,3.0,1,2,7,0,7,0,0,0,0,2,,,,,,,445.2118098330684,445.2118098330684,446.21410641702823,446.8001177080441,447.03347650007345,447.03347650007345,447.03347650007345,448.20017729199026,448.21410387498327,448.21410387498327,448.21410387498327,449.2327118329704,200003,103,2023-03-24_13h02.18.795,DMS_et_12-36,2022.2.4,None,
69,UNPRED,12,0.8272685744920544,2,images/picture_3.png,images/picture_1.png,0,"[-11.733433509789466, -11.733433509789462]",-11.733433509789464,-11.733433509789462,images/picture_2.png,1,"[-11.733433509789462, 11.733433509789464]",-11.733433509789462,11.733433509789464,images/picture_3.png,2,"[11.733433509789462, -11.733433509789466]",11.733433509789462,-11.733433509789464,0,1,1,0.8272685744920544,1.8272685744920545,1.1727314255079455,3.0,1,1.5772685744920545,0,4.0,3.0,1,2,7,0,7,0,0,1,1,6,,,,,,,449.2327118329704,449.2327118329704,450.24741091707256,450.814107083017,451.03330358304083,451.03330358304083,451.03330358304083,452.2141295420006,452.2141295420006,452.2141295420006,452.2141295420006,453.21386266697664,200003,103,2023-03-24_13h02.18.795,DMS_et_12-36,2022.2.4,None,
70,UNPRED,12,0.8272685744920544,0,images/picture_1.png,images/picture_1.png,0,"[11.733433509789464, 11.733433509789462]",11.733433509789464,11.733433509789462,images/picture_2.png,1,"[-11.733433509789462, 11.733433509789464]",-11.733433509789462,11.733433509789464,images/picture_3.png,2,"[-11.733433509789466, -11.733433509789462]",-11.733433509789464,-11.733433509789462,0,1,1,0.8272685744920544,1.8272685744920545,1.1727314255079455,3.0,1,1.5772685744920545,0,4.0,3.0,1,2,7,0,7,0,0,2,2,7,,,,,,,453.21386266697664,453.21386266697664,454.2141365830321,454.8000726670725,455.0331649170257,455.0331649170257,455.0331649170257,456.214129082975,456.214129082975,456.214129082975,456.214129082975,457.2326775830006,200003,103,2023-03-24_13h02.18.795,DMS_et_12-36,2022.2.4,None,
68,UNPRED,12,0.8272685744920544,2,images/picture_3.png,images/picture_1.png,0,"[11.733433509789462, -11.733433509789466]",11.733433509789462,-11.733433509789464,images/picture_2.png,1,"[11.733433509789464, 11.733433509789462]",11.733433509789464,11.733433509789462,images/picture_3.png,2,"[-11.733433509789466, -11.733433509789462]",-11.733433509789464,-11.733433509789462,0,1,1,0.8272685744920544,1.8272685744920545,1.1727314255079455,3.0,1,1.5772685744920545,0,4.0,3.0,1,2,7,0,7,0,0,3,3,5,,,,,,,457.2326775830006,457.2326775830006,458.247365541989,458.8141182080144,459.0332196250092,459.0332196250092,459.0332196250092,460.21410916699097,460.21410916699097,460.21410916699097,460.21410916699097,461.2139544580132,200003,103,2023-03-24_13h02.18.795,DMS_et_12-36,2022.2.4,None,
67,UNPRED,12,0.8272685744920544,0,images/picture_1.png,images/picture_1.png,0,"[11.733433509789464, 11.733433509789462]",11.733433509789464,11.733433509789462,images/picture_2.png,1,"[11.733433509789462, -11.733433509789466]",11.733433509789462,-11.733433509789464,images/picture_3.png,2,"[-11.733433509789466, -11.733433509789462]",-11.733433509789464,-11.733433509789462,0,1,1,0.8272685744920544,1.8272685744920545,1.1727314255079455,3.0,1,1.5772685744920545,0,4.0,3.0,1,2,7,0,7,0,0,4,4,4,,,,,,,461.2139544580132,461.2139544580132,462.2141302920645,462.8003653329797,463.0325688329758,463.0325688329758,463.0325688329758,464.2141523750033,464.2141523750033,464.2141523750033,464.2141523750033,465.23298674996477,200003,103,2023-03-24_13h02.18.795,DMS_et_12-36,2022.2.4,None,
64,UNPRED,12,0.8272685744920544,2,images/picture_3.png,images/picture_1.png,0,"[-11.733433509789462, 11.733433509789464]",-11.733433509789462,11.733433509789464,images/picture_2.png,1,"[-11.733433509789466, -11.733433509789462]",-11.733433509789464,-11.733433509789462,images/picture_3.png,2,"[11.733433509789462, -11.733433509789466]",11.733433509789462,-11.733433509789464,0,1,1,0.8272685744920544,1.8272685744920545,1.1727314255079455,3.0,1,1.5772685744920545,0,4.0,3.0,1,2,7,0,7,0,0,5,5,1,,,,,,,465.23298674996477,465.23298674996477,466.2476596250199,466.8141285830643,467.0334953330457,467.0334953330457,467.0334953330457,468.2140580830164,468.2140580830164,468.2140580830164,468.2140580830164,469.23289841704536,200003,103,2023-03-24_13h02.18.795,DMS_et_12-36,2022.2.4,None,
71,UNPRED,12,0.8272685744920544,2,images/picture_3.png,images/picture_1.png,0,"[-11.733433509789466, -11.733433509789462]",-11.733433509789464,-11.733433509789462,images/picture_2.png,1,"[11.733433509789464, 11.733433509789462]",11.733433509789464,11.733433509789462,images/picture_3.png,2,"[11.733433509789462, -11.733433509789466]",11.733433509789462,-11.733433509789464,0,1,1,0.8272685744920544,1.8272685744920545,1.1727314255079455,3.0,1,1.5772685744920545,0,4.0,3.0,1,2,7,0,7,0,0,6,6,8,,,,,,,469.23289841704536,469.23289841704536,470.24738433305174,470.8141622080002,471.0333206249634,471.0333206249634,471.0333206249634,472.21411208296195,472.21411208296195,472.21411208296195,472.21411208296195,473.21372345800046,200003,103,2023-03-24_13h02.18.795,DMS_et_12-36,2022.2.4,None,
66,UNPRED,12,0.8272685744920544,1,images/picture_2.png,images/picture_1.png,0,"[11.733433509789464, 11.733433509789462]",11.733433509789464,11.733433509789462,images/picture_2.png,1,"[-11.733433509789466, -11.733433509789462]",-11.733433509789464,-11.733433509789462,images/picture_3.png,2,"[11.733433509789462, -11.733433509789466]",11.733433509789462,-11.733433509789464,0,1,1,0.8272685744920544,1.8272685744920545,1.1727314255079455,3.0,1,1.5772685744920545,0,4.0,3.0,1,2,7,0,7,0,0,7,7,3,,,,,,,473.21372345800046,473.21372345800046,474.21389758295845,474.79993004200514,475.03311325004324,475.03311325004324,475.03311325004324,476.2141714170575,476.2141714170575,476.2141714170575,476.2141714170575,477.213571417029,200003,103,2023-03-24_13h02.18.795,DMS_et_12-36,2022.2.4,None,
63,UNPRED,12,0.8272685744920544,1,images/picture_2.png,images/picture_1.png,0,"[11.733433509789464, 11.733433509789462]",11.733433509789464,11.733433509789462,images/picture_2.png,1,"[-11.733433509789466, -11.733433509789462]",-11.733433509789464,-11.733433509789462,images/picture_3.png,2,"[-11.733433509789462, 11.733433509789464]",-11.733433509789462,11.733433509789464,0,1,1,0.8272685744920544,1.8272685744920545,1.1727314255079455,3.0,1,1.5772685744920545,0,4.0,3.0,1,2,7,0,7,0,0,8,8,0,,,,,,,477.213571417029,477.213571417029,478.2141165829962,478.80004787503276,479.03366175002884,479.03366175002884,479.03366175002884,480.21412775001954,480.21412775001954,480.21412775001954,480.21412775001954,481.3020975830732,200003,103,2023-03-24_13h02.18.795,DMS_et_12-36,2022.2.4,None,
,,,,,,,,,,,,,,,,,,,,,,,,,,,,,,,,,,,7,0,7,0,,,,,,,,,481.3020975830732,493.3456776670646,,,,,,,,,,,,,200003,103,2023-03-24_13h02.18.795,DMS_et_12-36,2022.2.4,None,
79,PRED,12,0.8272685744920544,2,images/picture_3.png,images/picture_1.png,0,"[-11.733433509789466, -11.733433509789462]",-11.733433509789464,-11.733433509789462,images/picture_2.png,1,"[-11.733433509789462, 11.733433509789464]",-11.733433509789462,11.733433509789464,images/picture_3.png,2,"[11.733433509789462, -11.733433509789466]",11.733433509789462,-11.733433509789464,0,1,1,0.8272685744920544,1.8272685744920545,1.1727314255079455,3.0,1,1.5772685744920545,0,4.0,3.0,1,2,8,0,8,0,0,0,0,7,,,,,,,493.3456776670646,493.3456776670646,494.34726716706064,494.9337596669793,495.1665498750517,495.1665498750517,495.1665498750517,496.3336368750315,496.34753620799165,496.34753620799165,496.34753620799165,497.365997957997,200003,103,2023-03-24_13h02.18.795,DMS_et_12-36,2022.2.4,None,
73,PRED,12,0.8272685744920544,2,images/picture_3.png,images/picture_1.png,0,"[11.733433509789464, 11.733433509789462]",11.733433509789464,11.733433509789462,images/picture_2.png,1,"[11.733433509789462, -11.733433509789466]",11.733433509789462,-11.733433509789464,images/picture_3.png,2,"[-11.733433509789462, 11.733433509789464]",-11.733433509789462,11.733433509789464,0,1,1,0.8272685744920544,1.8272685744920545,1.1727314255079455,3.0,1,1.5772685744920545,0,4.0,3.0,1,2,8,0,8,0,0,1,1,1,,,,,,,497.365997957997,497.365997957997,498.3808127499651,498.9475512499921,499.16668758296873,499.16668758296873,499.16668758296873,500.3475476669846,500.3475476669846,500.3475476669846,500.3475476669846,501.366255208035,200003,103,2023-03-24_13h02.18.795,DMS_et_12-36,2022.2.4,None,
76,PRED,12,0.8272685744920544,2,images/picture_3.png,images/picture_1.png,0,"[11.733433509789464, 11.733433509789462]",11.733433509789464,11.733433509789462,images/picture_2.png,1,"[11.733433509789462, -11.733433509789466]",11.733433509789462,-11.733433509789464,images/picture_3.png,2,"[-11.733433509789466, -11.733433509789462]",-11.733433509789464,-11.733433509789462,0,1,1,0.8272685744920544,1.8272685744920545,1.1727314255079455,3.0,1,1.5772685744920545,0,4.0,3.0,1,2,8,0,8,0,0,2,2,4,,,,,,,501.366255208035,501.366255208035,502.3806470830459,502.94737170799635,503.1666692920262,503.1666692920262,503.1666692920262,504.34722270804923,504.34722270804923,504.34722270804923,504.34722270804923,505.3665139999939,200003,103,2023-03-24_13h02.18.795,DMS_et_12-36,2022.2.4,None,
75,PRED,12,0.8272685744920544,2,images/picture_3.png,images/picture_1.png,0,"[11.733433509789464, 11.733433509789462]",11.733433509789464,11.733433509789462,images/picture_2.png,1,"[-11.733433509789466, -11.733433509789462]",-11.733433509789464,-11.733433509789462,images/picture_3.png,2,"[11.733433509789462, -11.733433509789466]",11.733433509789462,-11.733433509789464,0,1,1,0.8272685744920544,1.8272685744920545,1.1727314255079455,3.0,1,1.5772685744920545,0,4.0,3.0,1,2,8,0,8,0,0,3,3,3,,,,,,,505.3665139999939,505.3665139999939,506.3808362080017,506.94736495800316,507.16669533296954,507.16669533296954,507.16669533296954,508.3473562920699,508.3473562920699,508.3473562920699,508.3473562920699,509.36602345795836,200003,103,2023-03-24_13h02.18.795,DMS_et_12-36,2022.2.4,None,
72,PRED,12,0.8272685744920544,2,images/picture_3.png,images/picture_1.png,0,"[-11.733433509789462, 11.733433509789464]",-11.733433509789462,11.733433509789464,images/picture_2.png,1,"[-11.733433509789466, -11.733433509789462]",-11.733433509789464,-11.733433509789462,images/picture_3.png,2,"[11.733433509789464, 11.733433509789462]",11.733433509789464,11.733433509789462,0,1,1,0.8272685744920544,1.8272685744920545,1.1727314255079455,3.0,1,1.5772685744920545,0,4.0,3.0,1,2,8,0,8,0,0,4,4,0,,,,,,,509.36602345795836,509.36602345795836,510.38082950003445,510.9475289169932,511.1669112080708,511.1669112080708,511.1669112080708,512.3475656249793,512.3475656249793,512.3475656249793,512.3475656249793,513.3661441670265,200003,103,2023-03-24_13h02.18.795,DMS_et_12-36,2022.2.4,None,
80,PRED,12,0.8272685744920544,2,images/picture_3.png,images/picture_1.png,0,"[11.733433509789462, -11.733433509789466]",11.733433509789462,-11.733433509789464,images/picture_2.png,1,"[-11.733433509789462, 11.733433509789464]",-11.733433509789462,11.733433509789464,images/picture_3.png,2,"[11.733433509789464, 11.733433509789462]",11.733433509789464,11.733433509789462,0,1,1,0.8272685744920544,1.8272685744920545,1.1727314255079455,3.0,1,1.5772685744920545,0,4.0,3.0,1,2,8,0,8,0,0,5,5,8,,,,,,,513.3661441670265,513.3661441670265,514.38056912506,514.9473685830599,515.1664585829712,515.1664585829712,515.1664585829712,516.3477824169677,516.3477824169677,516.3477824169677,516.3477824169677,517.3665955830365,200003,103,2023-03-24_13h02.18.795,DMS_et_12-36,2022.2.4,None,
78,PRED,12,0.8272685744920544,2,images/picture_3.png,images/picture_1.png,0,"[11.733433509789464, 11.733433509789462]",11.733433509789464,11.733433509789462,images/picture_2.png,1,"[-11.733433509789466, -11.733433509789462]",-11.733433509789464,-11.733433509789462,images/picture_3.png,2,"[-11.733433509789462, 11.733433509789464]",-11.733433509789462,11.733433509789464,0,1,1,0.8272685744920544,1.8272685744920545,1.1727314255079455,3.0,1,1.5772685744920545,0,4.0,3.0,1,2,8,0,8,0,0,6,6,6,,,,,,,517.3665955830365,517.3665955830365,518.380808499991,518.947374499985,519.1667541670613,519.1667541670613,519.1667541670613,520.347348832991,520.347348832991,520.347348832991,520.347348832991,521.365944041987,200003,103,2023-03-24_13h02.18.795,DMS_et_12-36,2022.2.4,None,
74,PRED,12,0.8272685744920544,2,images/picture_3.png,images/picture_1.png,0,"[11.733433509789462, -11.733433509789466]",11.733433509789462,-11.733433509789464,images/picture_2.png,1,"[-11.733433509789462, 11.733433509789464]",-11.733433509789462,11.733433509789464,images/picture_3.png,2,"[-11.733433509789466, -11.733433509789462]",-11.733433509789464,-11.733433509789462,0,1,1,0.8272685744920544,1.8272685744920545,1.1727314255079455,3.0,1,1.5772685744920545,0,4.0,3.0,1,2,8,0,8,0,0,7,7,2,,,,,,,521.365944041987,521.365944041987,522.3808308750158,522.9475448330631,523.1667061250191,523.1667061250191,523.1667061250191,524.3475987500278,524.3475987500278,524.3475987500278,524.3475987500278,525.3662686670432,200003,103,2023-03-24_13h02.18.795,DMS_et_12-36,2022.2.4,None,
77,PRED,12,0.8272685744920544,2,images/picture_3.png,images/picture_1.png,0,"[-11.733433509789462, 11.733433509789464]",-11.733433509789462,11.733433509789464,images/picture_2.png,1,"[11.733433509789464, 11.733433509789462]",11.733433509789464,11.733433509789462,images/picture_3.png,2,"[-11.733433509789466, -11.733433509789462]",-11.733433509789464,-11.733433509789462,0,1,1,0.8272685744920544,1.8272685744920545,1.1727314255079455,3.0,1,1.5772685744920545,0,4.0,3.0,1,2,8,0,8,0,0,8,8,5,,,,,,,525.3662686670432,525.3662686670432,526.3808098749723,526.9475338750053,527.1674027079716,527.1674027079716,527.1674027079716,528.3473775420571,528.3473775420571,528.3473775420571,528.3473775420571,529.4453721250175,200003,103,2023-03-24_13h02.18.795,DMS_et_12-36,2022.2.4,None,
,,,,,,,,,,,,,,,,,,,,,,,,,,,,,,,,,,,8,0,8,0,,,,,,,,,529.4453721250175,541.4710844169604,,,,,,,,,,,,,200003,103,2023-03-24_13h02.18.795,DMS_et_12-36,2022.2.4,None,
86,UNPRED,12,0.8272685744920544,0,images/picture_1.png,images/picture_1.png,0,"[-11.733433509789462, 11.733433509789464]",-11.733433509789462,11.733433509789464,images/picture_2.png,1,"[11.733433509789464, 11.733433509789462]",11.733433509789464,11.733433509789462,images/picture_3.png,2,"[-11.733433509789466, -11.733433509789462]",-11.733433509789464,-11.733433509789462,0,1,1,0.8272685744920544,1.8272685744920545,1.1727314255079455,3.0,1,1.5772685744920545,0,4.0,3.0,1,2,9,0,9,0,0,0,0,5,,,,,,,541.4710844169604,541.4710844169604,542.4808902500663,543.0475500420434,543.2999144580681,543.2999144580681,543.2999144580681,544.4669726249995,544.4808494580211,544.4808494580211,544.4808494580211,545.4806181250606,200003,103,2023-03-24_13h02.18.795,DMS_et_12-36,2022.2.4,None,
81,UNPRED,12,0.8272685744920544,0,images/picture_1.png,images/picture_1.png,0,"[11.733433509789464, 11.733433509789462]",11.733433509789464,11.733433509789462,images/picture_2.png,1,"[11.733433509789462, -11.733433509789466]",11.733433509789462,-11.733433509789464,images/picture_3.png,2,"[-11.733433509789462, 11.733433509789464]",-11.733433509789462,11.733433509789464,0,1,1,0.8272685744920544,1.8272685744920545,1.1727314255079455,3.0,1,1.5772685744920545,0,4.0,3.0,1,2,9,0,9,0,0,1,1,0,,,,,,,545.4806181250606,545.4806181250606,546.4808257080149,547.0668828750495,547.2999902080046,547.2999902080046,547.2999902080046,548.4808492920129,548.4808492920129,548.4808492920129,548.4808492920129,549.4807182500372,200003,103,2023-03-24_13h02.18.795,DMS_et_12-36,2022.2.4,None,
88,UNPRED,12,0.8272685744920544,1,images/picture_2.png,images/picture_1.png,0,"[-11.733433509789462, 11.733433509789464]",-11.733433509789462,11.733433509789464,images/picture_2.png,1,"[11.733433509789464, 11.733433509789462]",11.733433509789464,11.733433509789462,images/picture_3.png,2,"[11.733433509789462, -11.733433509789466]",11.733433509789462,-11.733433509789464,0,1,1,0.8272685744920544,1.8272685744920545,1.1727314255079455,3.0,1,1.5772685744920545,0,4.0,3.0,1,2,9,0,9,0,0,2,2,7,,,,,,,549.4807182500372,549.4807182500372,550.4808552920585,551.0667658749735,551.3001156670507,551.3001156670507,551.3001156670507,552.4808395419968,552.4808395419968,552.4808395419968,552.4808395419968,553.4997693330515,200003,103,2023-03-24_13h02.18.795,DMS_et_12-36,2022.2.4,None,
87,UNPRED,12,0.8272685744920544,2,images/picture_3.png,images/picture_1.png,0,"[11.733433509789464, 11.733433509789462]",11.733433509789464,11.733433509789462,images/picture_2.png,1,"[-11.733433509789466, -11.733433509789462]",-11.733433509789464,-11.733433509789462,images/picture_3.png,2,"[-11.733433509789462, 11.733433509789464]",-11.733433509789462,11.733433509789464,0,1,1,0.8272685744920544,1.8272685744920545,1.1727314255079455,3.0,1,1.5772685744920545,0,4.0,3.0,1,2,9,0,9,0,0,3,3,6,,,,,,,553.4997693330515,553.4997693330515,554.514100166969,555.080933875055,555.2998125000158,555.2998125000158,555.2998125000158,556.4807250830345,556.4807250830345,556.4807250830345,556.4807250830345,557.4807104580104,200003,103,2023-03-24_13h02.18.795,DMS_et_12-36,2022.2.4,None,
84,UNPRED,12,0.8272685744920544,0,images/picture_1.png,images/picture_1.png,0,"[11.733433509789464, 11.733433509789462]",11.733433509789464,11.733433509789462,images/picture_2.png,1,"[11.733433509789462, -11.733433509789466]",11.733433509789462,-11.733433509789464,images/picture_3.png,2,"[-11.733433509789466, -11.733433509789462]",-11.733433509789464,-11.733433509789462,0,1,1,0.8272685744920544,1.8272685744920545,1.1727314255079455,3.0,1,1.5772685744920545,0,4.0,3.0,1,2,9,0,9,0,0,4,4,3,,,,,,,557.4807104580104,557.4807104580104,558.4808238330297,559.0666740000015,559.3000591669697,559.3000591669697,559.3000591669697,560.4808384169592,560.4808384169592,560.4808384169592,560.4808384169592,561.4993122919695,200003,103,2023-03-24_13h02.18.795,DMS_et_12-36,2022.2.4,None,
89,UNPRED,12,0.8272685744920544,2,images/picture_3.png,images/picture_1.png,0,"[-11.733433509789462, 11.733433509789464]",-11.733433509789462,11.733433509789464,images/picture_2.png,1,"[-11.733433509789466, -11.733433509789462]",-11.733433509789464,-11.733433509789462,images/picture_3.png,2,"[11.733433509789462, -11.733433509789466]",11.733433509789462,-11.733433509789464,0,1,1,0.8272685744920544,1.8272685744920545,1.1727314255079455,3.0,1,1.5772685744920545,0,4.0,3.0,1,2,9,0,9,0,0,5,5,8,,,,,,,561.4993122919695,561.4993122919695,562.5143006669823,563.0808367920108,563.300319083035,563.300319083035,563.300319083035,564.4808780830353,564.4808780830353,564.4808780830353,564.4808780830353,565.4805149580352,200003,103,2023-03-24_13h02.18.795,DMS_et_12-36,2022.2.4,None,
82,UNPRED,12,0.8272685744920544,0,images/picture_1.png,images/picture_1.png,0,"[-11.733433509789466, -11.733433509789462]",-11.733433509789464,-11.733433509789462,images/picture_2.png,1,"[11.733433509789464, 11.733433509789462]",11.733433509789464,11.733433509789462,images/picture_3.png,2,"[-11.733433509789462, 11.733433509789464]",-11.733433509789462,11.733433509789464,0,1,1,0.8272685744920544,1.8272685744920545,1.1727314255079455,3.0,1,1.5772685744920545,0,4.0,3.0,1,2,9,0,9,0,0,6,6,1,,,,,,,565.4805149580352,565.4805149580352,566.4807256669737,567.0668275000062,567.3001315830043,567.3001315830043,567.3001315830043,568.4808749170043,568.4808749170043,568.4808749170043,568.4808749170043,569.4995364999631,200003,103,2023-03-24_13h02.18.795,DMS_et_12-36,2022.2.4,None,
83,UNPRED,12,0.8272685744920544,2,images/picture_3.png,images/picture_1.png,0,"[11.733433509789464, 11.733433509789462]",11.733433509789464,11.733433509789462,images/picture_2.png,1,"[11.733433509789462, -11.733433509789466]",11.733433509789462,-11.733433509789464,images/picture_3.png,2,"[-11.733433509789462, 11.733433509789464]",-11.733433509789462,11.733433509789464,0,1,1,0.8272685744920544,1.8272685744920545,1.1727314255079455,3.0,1,1.5772685744920545,0,4.0,3.0,1,2,9,0,9,0,0,7,7,2,,,,,,,569.4995364999631,569.4995364999631,570.5143444170244,571.0808495830279,571.3003132500453,571.3003132500453,571.3003132500453,572.480956458021,572.480956458021,572.480956458021,572.480956458021,573.499670417048,200003,103,2023-03-24_13h02.18.795,DMS_et_12-36,2022.2.4,None,
85,UNPRED,12,0.8272685744920544,2,images/picture_3.png,images/picture_1.png,0,"[-11.733433509789466, -11.733433509789462]",-11.733433509789464,-11.733433509789462,images/picture_2.png,1,"[-11.733433509789462, 11.733433509789464]",-11.733433509789462,11.733433509789464,images/picture_3.png,2,"[11.733433509789464, 11.733433509789462]",11.733433509789464,11.733433509789462,0,1,1,0.8272685744920544,1.8272685744920545,1.1727314255079455,3.0,1,1.5772685744920545,0,4.0,3.0,1,2,9,0,9,0,0,8,8,4,,,,,,,573.499670417048,573.499670417048,574.5142868330004,575.0808496669633,575.3000629580347,575.3000629580347,575.3000629580347,576.4809715000447,576.4809715000447,576.4809715000447,576.4809715000447,577.5877651249757,200003,103,2023-03-24_13h02.18.795,DMS_et_12-36,2022.2.4,None,
,,,,,,,,,,,,,,,,,,,,,,,,,,,,,,,,,,,9,0,9,0,,,,,,,,,577.5877651249757,589.6236554579809,,,,,,,,,,,,,200003,103,2023-03-24_13h02.18.795,DMS_et_12-36,2022.2.4,None,
98,PRED,12,0.8272685744920544,0,images/picture_1.png,images/picture_1.png,0,"[-11.733433509789462, 11.733433509789464]",-11.733433509789462,11.733433509789464,images/picture_2.png,1,"[11.733433509789464, 11.733433509789462]",11.733433509789464,11.733433509789462,images/picture_3.png,2,"[11.733433509789462, -11.733433509789466]",11.733433509789462,-11.733433509789464,0,1,1,0.8272685744920544,1.8272685744920545,1.1727314255079455,3.0,1,1.5772685744920545,0,4.0,3.0,1,2,10,0,10,0,0,0,0,8,,,,,,,589.6236554579809,589.6236554579809,590.6336689169984,591.2142537920736,591.4476508749649,591.4476508749649,591.4476508749649,592.6142342500389,592.633227000013,592.633227000013,592.633227000013,593.6136890420457,200003,103,2023-03-24_13h02.18.795,DMS_et_12-36,2022.2.4,None,
97,PRED,12,0.8272685744920544,0,images/picture_1.png,images/picture_1.png,0,"[11.733433509789464, 11.733433509789462]",11.733433509789464,11.733433509789462,images/picture_2.png,1,"[11.733433509789462, -11.733433509789466]",11.733433509789462,-11.733433509789464,images/picture_3.png,2,"[-11.733433509789462, 11.733433509789464]",-11.733433509789462,11.733433509789464,0,1,1,0.8272685744920544,1.8272685744920545,1.1727314255079455,3.0,1,1.5772685744920545,0,4.0,3.0,1,2,10,0,10,0,0,1,1,7,,,,,,,593.6136890420457,593.6136890420457,594.6143140000058,595.200372750056,595.4336459579645,595.4336459579645,595.4336459579645,596.6139882080024,596.6139882080024,596.6139882080024,596.6139882080024,597.6137267920421,200003,103,2023-03-24_13h02.18.795,DMS_et_12-36,2022.2.4,None,
96,PRED,12,0.8272685744920544,0,images/picture_1.png,images/picture_1.png,0,"[11.733433509789462, -11.733433509789466]",11.733433509789462,-11.733433509789464,images/picture_2.png,1,"[-11.733433509789466, -11.733433509789462]",-11.733433509789464,-11.733433509789462,images/picture_3.png,2,"[-11.733433509789462, 11.733433509789464]",-11.733433509789462,11.733433509789464,0,1,1,0.8272685744920544,1.8272685744920545,1.1727314255079455,3.0,1,1.5772685744920545,0,4.0,3.0,1,2,10,0,10,0,0,2,2,6,,,,,,,597.6137267920421,597.6137267920421,598.6140458330046,599.2001862920588,599.4335050829686,599.4335050829686,599.4335050829686,600.614322999958,600.614322999958,600.614322999958,600.614322999958,601.6141494170297,200003,103,2023-03-24_13h02.18.795,DMS_et_12-36,2022.2.4,None,
95,PRED,12,0.8272685744920544,0,images/picture_1.png,images/picture_1.png,0,"[11.733433509789462, -11.733433509789466]",11.733433509789462,-11.733433509789464,images/picture_2.png,1,"[-11.733433509789462, 11.733433509789464]",-11.733433509789462,11.733433509789464,images/picture_3.png,2,"[11.733433509789464, 11.733433509789462]",11.733433509789464,11.733433509789462,0,1,1,0.8272685744920544,1.8272685744920545,1.1727314255079455,3.0,1,1.5772685744920545,0,4.0,3.0,1,2,10,0,10,0,0,3,3,5,,,,,,,601.6141494170297,601.6141494170297,602.6142816670472,603.200297583011,603.4475544580491,603.4475544580491,603.4475544580491,604.6141259169672,604.6336329999613,604.6336329999613,604.6336329999613,605.6138728329679,200003,103,2023-03-24_13h02.18.795,DMS_et_12-36,2022.2.4,None,
91,PRED,12,0.8272685744920544,0,images/picture_1.png,images/picture_1.png,0,"[11.733433509789462, -11.733433509789466]",11.733433509789462,-11.733433509789464,images/picture_2.png,1,"[-11.733433509789466, -11.733433509789462]",-11.733433509789464,-11.733433509789462,images/picture_3.png,2,"[-11.733433509789462, 11.733433509789464]",-11.733433509789462,11.733433509789464,0,1,1,0.8272685744920544,1.8272685744920545,1.1727314255079455,3.0,1,1.5772685744920545,0,4.0,3.0,1,2,10,0,10,0,0,4,4,1,,,,,,,605.6138728329679,605.6138728329679,606.6142194999848,607.1997164170025,607.4328066670569,607.4328066670569,607.4328066670569,608.6143262920668,608.6143262920668,608.6143262920668,608.6143262920668,609.6136754170293,200003,103,2023-03-24_13h02.18.795,DMS_et_12-36,2022.2.4,None,
92,PRED,12,0.8272685744920544,0,images/picture_1.png,images/picture_1.png,0,"[11.733433509789462, -11.733433509789466]",11.733433509789462,-11.733433509789464,images/picture_2.png,1,"[-11.733433509789462, 11.733433509789464]",-11.733433509789462,11.733433509789464,images/picture_3.png,2,"[-11.733433509789466, -11.733433509789462]",-11.733433509789464,-11.733433509789462,0,1,1,0.8272685744920544,1.8272685744920545,1.1727314255079455,3.0,1,1.5772685744920545,0,4.0,3.0,1,2,10,0,10,0,0,5,5,2,,,,,,,609.6136754170293,609.6136754170293,610.6142583329929,611.2002318750601,611.4337217080174,611.4337217080174,611.4337217080174,612.6143433749676,612.6143433749676,612.6143433749676,612.6143433749676,613.6138083749684,200003,103,2023-03-24_13h02.18.795,DMS_et_12-36,2022.2.4,None,
93,PRED,12,0.8272685744920544,0,images/picture_1.png,images/picture_1.png,0,"[11.733433509789464, 11.733433509789462]",11.733433509789464,11.733433509789462,images/picture_2.png,1,"[-11.733433509789466, -11.733433509789462]",-11.733433509789464,-11.733433509789462,images/picture_3.png,2,"[-11.733433509789462, 11.733433509789464]",-11.733433509789462,11.733433509789464,0,1,1,0.8272685744920544,1.8272685744920545,1.1727314255079455,3.0,1,1.5772685744920545,0,4.0,3.0,1,2,10,0,10,0,0,6,6,3,,,,,,,613.6138083749684,613.6138083749684,614.6142862499692,615.2000117079588,615.4337520420086,615.4337520420086,615.4337520420086,616.6141806669766,616.6141806669766,616.6141806669766,616.6141806669766,617.6139413330238,200003,103,2023-03-24_13h02.18.795,DMS_et_12-36,2022.2.4,None,
94,PRED,12,0.8272685744920544,0,images/picture_1.png,images/picture_1.png,0,"[-11.733433509789466, -11.733433509789462]",-11.733433509789464,-11.733433509789462,images/picture_2.png,1,"[11.733433509789462, -11.733433509789466]",11.733433509789462,-11.733433509789464,images/picture_3.png,2,"[11.733433509789464, 11.733433509789462]",11.733433509789464,11.733433509789462,0,1,1,0.8272685744920544,1.8272685744920545,1.1727314255079455,3.0,1,1.5772685744920545,0,4.0,3.0,1,2,10,0,10,0,0,7,7,4,,,,,,,617.6139413330238,617.6139413330238,618.6143194170436,619.2001595420297,619.4336985420668,619.4336985420668,619.4336985420668,620.6141934170155,620.6141934170155,620.6141934170155,620.6141934170155,621.613918417017,200003,103,2023-03-24_13h02.18.795,DMS_et_12-36,2022.2.4,None,
90,PRED,12,0.8272685744920544,0,images/picture_1.png,images/picture_1.png,0,"[-11.733433509789466, -11.733433509789462]",-11.733433509789464,-11.733433509789462,images/picture_2.png,1,"[-11.733433509789462, 11.733433509789464]",-11.733433509789462,11.733433509789464,images/picture_3.png,2,"[11.733433509789462, -11.733433509789466]",11.733433509789462,-11.733433509789464,0,1,1,0.8272685744920544,1.8272685744920545,1.1727314255079455,3.0,1,1.5772685744920545,0,4.0,3.0,1,2,10,0,10,0,0,8,8,0,,,,,,,621.613918417017,621.613918417017,622.6141836669995,623.200142292073,623.4334883330157,623.4334883330157,623.4334883330157,624.614374167053,624.614374167053,624.614374167053,624.614374167053,625.733790416969,200003,103,2023-03-24_13h02.18.795,DMS_et_12-36,2022.2.4,None,
,,,,,,,,,,,,,,,,,,,,,,,,,,,,,,,,,,,10,0,10,0,,,,,,,,,625.733790416969,637.7657019579783,,,,,,,,,,,,,200003,103,2023-03-24_13h02.18.795,DMS_et_12-36,2022.2.4,None,
107,UNPRED,12,0.8272685744920544,1,images/picture_2.png,images/picture_1.png,0,"[-11.733433509789462, 11.733433509789464]",-11.733433509789462,11.733433509789464,images/picture_2.png,1,"[11.733433509789464, 11.733433509789462]",11.733433509789464,11.733433509789462,images/picture_3.png,2,"[-11.733433509789466, -11.733433509789462]",-11.733433509789464,-11.733433509789462,0,1,1,0.8272685744920544,1.8272685744920545,1.1727314255079455,3.0,1,1.5772685744920545,0,4.0,3.0,1,2,11,0,11,0,0,0,0,8,,,,,,,637.7657019579783,637.7657019579783,638.7808099170215,639.3473569999915,639.5805898329709,639.5805898329709,639.5805898329709,640.7474110829644,640.7665066249901,640.7665066249901,640.7665066249901,641.7658285420621,200003,103,2023-03-24_13h02.18.795,DMS_et_12-36,2022.2.4,None,
99,UNPRED,12,0.8272685744920544,2,images/picture_3.png,images/picture_1.png,0,"[11.733433509789462, -11.733433509789466]",11.733433509789462,-11.733433509789464,images/picture_2.png,1,"[-11.733433509789462, 11.733433509789464]",-11.733433509789462,11.733433509789464,images/picture_3.png,2,"[11.733433509789464, 11.733433509789462]",11.733433509789464,11.733433509789462,0,1,1,0.8272685744920544,1.8272685744920545,1.1727314255079455,3.0,1,1.5772685744920545,0,4.0,3.0,1,2,11,0,11,0,0,1,1,0,,,,,,,641.7658285420621,641.7658285420621,642.7809618329629,643.3473529580515,643.5667055000085,643.5667055000085,643.5667055000085,644.7474154999945,644.7474154999945,644.7474154999945,644.7474154999945,645.7661046250723,200003,103,2023-03-24_13h02.18.795,DMS_et_12-36,2022.2.4,None,
104,UNPRED,12,0.8272685744920544,2,images/picture_3.png,images/picture_1.png,0,"[-11.733433509789462, 11.733433509789464]",-11.733433509789462,11.733433509789464,images/picture_2.png,1,"[11.733433509789462, -11.733433509789466]",11.733433509789462,-11.733433509789464,images/picture_3.png,2,"[-11.733433509789466, -11.733433509789462]",-11.733433509789464,-11.733433509789462,0,1,1,0.8272685744920544,1.8272685744920545,1.1727314255079455,3.0,1,1.5772685744920545,0,4.0,3.0,1,2,11,0,11,0,0,2,2,5,,,,,,,645.7661046250723,645.7661046250723,646.780627375003,647.3473355000606,647.5662054170389,647.5662054170389,647.5662054170389,648.7473788750358,648.7473788750358,648.7473788750358,648.7473788750358,649.7468491670443,200003,103,2023-03-24_13h02.18.795,DMS_et_12-36,2022.2.4,None,
102,UNPRED,12,0.8272685744920544,0,images/picture_1.png,images/picture_1.png,0,"[11.733433509789464, 11.733433509789462]",11.733433509789464,11.733433509789462,images/picture_2.png,1,"[-11.733433509789466, -11.733433509789462]",-11.733433509789464,-11.733433509789462,images/picture_3.png,2,"[-11.733433509789462, 11.733433509789464]",-11.733433509789462,11.733433509789464,0,1,1,0.8272685744920544,1.8272685744920545,1.1727314255079455,3.0,1,1.5772685744920545,0,4.0,3.0,1,2,11,0,11,0,0,3,3,3,,,,,,,649.7468491670443,649.7468491670443,650.747319541988,651.3338665000629,651.5669428330148,651.5669428330148,651.5669428330148,652.7474101670086,652.7474101670086,652.7474101670086,652.7474101670086,653.7469997920562,200003,103,2023-03-24_13h02.18.795,DMS_et_12-36,2022.2.4,None,
100,UNPRED,12,0.8272685744920544,0,images/picture_1.png,images/picture_1.png,0,"[11.733433509789464, 11.733433509789462]",11.733433509789464,11.733433509789462,images/picture_2.png,1,"[-11.733433509789462, 11.733433509789464]",-11.733433509789462,11.733433509789464,images/picture_3.png,2,"[11.733433509789462, -11.733433509789466]",11.733433509789462,-11.733433509789464,0,1,1,0.8272685744920544,1.8272685744920545,1.1727314255079455,3.0,1,1.5772685744920545,0,4.0,3.0,1,2,11,0,11,0,0,4,4,1,,,,,,,653.7469997920562,653.7469997920562,654.7474960420514,655.3335831670556,655.5667640829924,655.5667640829924,655.5667640829924,656.747375832987,656.747375832987,656.747375832987,656.747375832987,657.7662247919943,200003,103,2023-03-24_13h02.18.795,DMS_et_12-36,2022.2.4,None,
103,UNPRED,12,0.8272685744920544,2,images/picture_3.png,images/picture_1.png,0,"[11.733433509789462, -11.733433509789466]",11.733433509789462,-11.733433509789464,images/picture_2.png,1,"[11.733433509789464, 11.733433509789462]",11.733433509789464,11.733433509789462,images/picture_3.png,2,"[-11.733433509789466, -11.733433509789462]",-11.733433509789464,-11.733433509789462,0,1,1,0.8272685744920544,1.8272685744920545,1.1727314255079455,3.0,1,1.5772685744920545,0,4.0,3.0,1,2,11,0,11,0,0,5,5,4,,,,,,,657.7662247919943,657.7662247919943,658.7805042080581,659.3473911670735,659.5670114579843,659.5670114579843,659.5670114579843,660.7473907080712,660.7473907080712,660.7473907080712,660.7473907080712,661.7657796670683,200003,103,2023-03-24_13h02.18.795,DMS_et_12-36,2022.2.4,None,
106,UNPRED,12,0.8272685744920544,2,images/picture_3.png,images/picture_1.png,0,"[11.733433509789462, -11.733433509789466]",11.733433509789462,-11.733433509789464,images/picture_2.png,1,"[-11.733433509789466, -11.733433509789462]",-11.733433509789464,-11.733433509789462,images/picture_3.png,2,"[11.733433509789464, 11.733433509789462]",11.733433509789464,11.733433509789462,0,1,1,0.8272685744920544,1.8272685744920545,1.1727314255079455,3.0,1,1.5772685744920545,0,4.0,3.0,1,2,11,0,11,0,0,6,6,7,,,,,,,661.7657796670683,661.7657796670683,662.78079454205,663.3473892500624,663.5669514170149,663.5669514170149,663.5669514170149,664.7473868749803,664.7473868749803,664.7473868749803,664.7473868749803,665.7662514169933,200003,103,2023-03-24_13h02.18.795,DMS_et_12-36,2022.2.4,None,
105,UNPRED,12,0.8272685744920544,2,images/picture_3.png,images/picture_1.png,0,"[11.733433509789462, -11.733433509789466]",11.733433509789462,-11.733433509789464,images/picture_2.png,1,"[11.733433509789464, 11.733433509789462]",11.733433509789464,11.733433509789462,images/picture_3.png,2,"[-11.733433509789462, 11.733433509789464]",-11.733433509789462,11.733433509789464,0,1,1,0.8272685744920544,1.8272685744920545,1.1727314255079455,3.0,1,1.5772685744920545,0,4.0,3.0,1,2,11,0,11,0,0,7,7,6,,,,,,,665.7662514169933,665.7662514169933,666.7805977499811,667.3474179999903,667.5666775830323,667.5666775830323,667.5666775830323,668.7471808330156,668.7471808330156,668.7471808330156,668.7471808330156,669.7471168750199,200003,103,2023-03-24_13h02.18.795,DMS_et_12-36,2022.2.4,None,
101,UNPRED,12,0.8272685744920544,0,images/picture_1.png,images/picture_1.png,0,"[11.733433509789464, 11.733433509789462]",11.733433509789464,11.733433509789462,images/picture_2.png,1,"[-11.733433509789462, 11.733433509789464]",-11.733433509789462,11.733433509789464,images/picture_3.png,2,"[11.733433509789462, -11.733433509789466]",11.733433509789462,-11.733433509789464,0,1,1,0.8272685744920544,1.8272685744920545,1.1727314255079455,3.0,1,1.5772685744920545,0,4.0,3.0,1,2,11,0,11,0,0,8,8,2,,,,,,,669.7471168750199,669.7471168750199,670.7474994580261,671.333335250034,671.5666202499997,671.5666202499997,671.5666202499997,672.7473834999837,672.7473834999837,672.7473834999837,672.7473834999837,673.860109042027,200003,103,2023-03-24_13h02.18.795,DMS_et_12-36,2022.2.4,None,
,,,,,,,,,,,,,,,,,,,,,,,,,,,,,,,,,,,11,0,11,0,,,,,,,,,673.860109042027,685.9962672920665,,,,,,,,,,,,,200003,103,2023-03-24_13h02.18.795,DMS_et_12-36,2022.2.4,None,
,,,,,,,,,,,,,,,,,,,,,,,,,,,,,,,,,,,,,,,,,,,,,,,685.9962672920665,698.5277501670644,,,,,,,,,,,,,,,,,,,
