trial_count,blockType,blockNum,delay_time,stimImage_i,stimImage,responseImage1,responseImage1_i,responseImage1_pos,responseImage1_X,responseImage1_Y,responseImage2,responseImage2_i,responseImage2_pos,responseImage2_X,responseImage2_Y,responseImage3,responseImage3_i,responseImage3_pos,responseImage3_X,responseImage3_Y,cue_onset,cue_dur,delay_onset,delay_dur,resp_onset,resp_dur,rest_onset,rest_dur,circle_dur,circle_onset,total_dur,cross_onset,cross_dur,delay_resp_period,blocks.thisRepN,blocks.thisTrialN,blocks.thisN,blocks.thisIndex,trials.thisRepN,trials.thisTrialN,trials.thisN,trials.thisIndex,key_resp.started,text.started,key_resp.keys,key_resp.rt,text_2.started,text_2.stopped,sample.started,Delay.started,sample.stopped,Delay.stopped,Response_1.started,Response_2.started,Response_3.started,Response_1.stopped,Response_2.stopped,Response_3.stopped,polygon.started,polygon.stopped,participant,session,date,expName,psychopyVersion,frameRate,
,,,,,,,,,,,,,,,,,,,,,,,,,,,,,,,,,,,,,,,,,,,58.26027895900188,58.26027895900188,t,68.93793937500595,,,,,,,,,,,,,,,200006,006,2023-04-07_11h40.57.304,DMS_et_12-36,2022.2.4,None,
1,PRED,12,1.038980713497232,2,images/picture_3.png,images/picture_1.png,0,"[11.733433509789464, 11.733433509789462]",11.733433509789464,11.733433509789462,images/picture_2.png,1,"[-11.733433509789466, -11.733433509789462]",-11.733433509789464,-11.733433509789462,images/picture_3.png,2,"[-11.733433509789462, 11.733433509789464]",-11.733433509789462,11.733433509789464,0,1,1,1.038980713497232,2.038980713497232,0.9610192865027679,3.0,1,1.788980713497232,0,4.0,3.0,1,2,0,0,0,0,0,0,0,1,,,,,127.7161761249954,139.76441187499586,139.76441187499586,139.76441187499586,140.77930562500114,141.56063933399855,141.779366499999,141.779366499999,141.779366499999,142.74704141700204,142.74704141700204,142.74704141700204,142.74704141700204,143.77943429199513,200006,006,2023-04-07_11h40.57.304,DMS_et_12-36,2022.2.4,None,
0,PRED,12,1.038980713497232,2,images/picture_3.png,images/picture_1.png,0,"[-11.733433509789466, -11.733433509789462]",-11.733433509789464,-11.733433509789462,images/picture_2.png,1,"[11.733433509789464, 11.733433509789462]",11.733433509789464,11.733433509789462,images/picture_3.png,2,"[11.733433509789462, -11.733433509789466]",11.733433509789462,-11.733433509789464,0,1,1,1.038980713497232,2.038980713497232,0.9610192865027679,3.0,1,1.788980713497232,0,4.0,3.0,1,2,0,0,0,0,0,1,1,0,,,,,,,143.77943429199513,143.77943429199513,144.7943259169988,145.5803562919973,145.79429345899553,145.79429345899553,145.79429345899553,146.76090870900225,146.76090870900225,146.76090870900225,146.76090870900225,147.7796262089978,200006,006,2023-04-07_11h40.57.304,DMS_et_12-36,2022.2.4,None,
3,PRED,12,1.038980713497232,2,images/picture_3.png,images/picture_1.png,0,"[11.733433509789462, -11.733433509789466]",11.733433509789462,-11.733433509789464,images/picture_2.png,1,"[-11.733433509789462, 11.733433509789464]",-11.733433509789462,11.733433509789464,images/picture_3.png,2,"[-11.733433509789466, -11.733433509789462]",-11.733433509789464,-11.733433509789462,0,1,1,1.038980713497232,2.038980713497232,0.9610192865027679,3.0,1,1.788980713497232,0,4.0,3.0,1,2,0,0,0,0,0,2,2,3,,,,,,,147.7796262089978,147.7796262089978,148.79414654200082,149.58007270899543,149.7941057499993,149.7941057499993,149.7941057499993,150.76113491699653,150.76113491699653,150.76113491699653,150.76113491699653,151.77944320900133,200006,006,2023-04-07_11h40.57.304,DMS_et_12-36,2022.2.4,None,
7,PRED,12,1.038980713497232,2,images/picture_3.png,images/picture_1.png,0,"[-11.733433509789466, -11.733433509789462]",-11.733433509789464,-11.733433509789462,images/picture_2.png,1,"[11.733433509789462, -11.733433509789466]",11.733433509789462,-11.733433509789464,images/picture_3.png,2,"[11.733433509789464, 11.733433509789462]",11.733433509789464,11.733433509789462,0,1,1,1.038980713497232,2.038980713497232,0.9610192865027679,3.0,1,1.788980713497232,0,4.0,3.0,1,2,0,0,0,0,0,3,3,7,,,,,,,151.77944320900133,151.77944320900133,152.79434762500023,153.5800622089955,153.79420029199537,153.79420029199537,153.79420029199537,154.76071633399988,154.76071633399988,154.76071633399988,154.76071633399988,155.7800477089986,200006,006,2023-04-07_11h40.57.304,DMS_et_12-36,2022.2.4,None,
6,PRED,12,1.038980713497232,2,images/picture_3.png,images/picture_1.png,0,"[11.733433509789464, 11.733433509789462]",11.733433509789464,11.733433509789462,images/picture_2.png,1,"[11.733433509789462, -11.733433509789466]",11.733433509789462,-11.733433509789464,images/picture_3.png,2,"[-11.733433509789462, 11.733433509789464]",-11.733433509789462,11.733433509789464,0,1,1,1.038980713497232,2.038980713497232,0.9610192865027679,3.0,1,1.788980713497232,0,4.0,3.0,1,2,0,0,0,0,0,4,4,6,,,,,,,155.7800477089986,155.7800477089986,156.79428529199504,157.580273749998,157.7942747499983,157.7942747499983,157.7942747499983,158.76109224999527,158.76109224999527,158.76109224999527,158.76109224999527,159.7801423339988,200006,006,2023-04-07_11h40.57.304,DMS_et_12-36,2022.2.4,None,
5,PRED,12,1.038980713497232,2,images/picture_3.png,images/picture_1.png,0,"[-11.733433509789466, -11.733433509789462]",-11.733433509789464,-11.733433509789462,images/picture_2.png,1,"[-11.733433509789462, 11.733433509789464]",-11.733433509789462,11.733433509789464,images/picture_3.png,2,"[11.733433509789462, -11.733433509789466]",11.733433509789462,-11.733433509789464,0,1,1,1.038980713497232,2.038980713497232,0.9610192865027679,3.0,1,1.788980713497232,0,4.0,3.0,1,2,0,0,0,0,0,5,5,5,,,,,,,159.7801423339988,159.7801423339988,160.79430579199834,161.5794242089978,161.7939010839982,161.7939010839982,161.7939010839982,162.76079362499877,162.76079362499877,162.76079362499877,162.76079362499877,163.7793332500005,200006,006,2023-04-07_11h40.57.304,DMS_et_12-36,2022.2.4,None,
2,PRED,12,1.038980713497232,2,images/picture_3.png,images/picture_1.png,0,"[-11.733433509789462, 11.733433509789464]",-11.733433509789462,11.733433509789464,images/picture_2.png,1,"[11.733433509789464, 11.733433509789462]",11.733433509789464,11.733433509789462,images/picture_3.png,2,"[-11.733433509789466, -11.733433509789462]",-11.733433509789464,-11.733433509789462,0,1,1,1.038980713497232,2.038980713497232,0.9610192865027679,3.0,1,1.788980713497232,0,4.0,3.0,1,2,0,0,0,0,0,6,6,2,,,,,,,163.7793332500005,163.7793332500005,164.7943279999963,165.58000045899826,165.79431712500082,165.79431712500082,165.79431712500082,166.7609022089964,166.7609022089964,166.7609022089964,166.7609022089964,167.77959129199735,200006,006,2023-04-07_11h40.57.304,DMS_et_12-36,2022.2.4,None,
4,PRED,12,1.038980713497232,2,images/picture_3.png,images/picture_1.png,0,"[-11.733433509789466, -11.733433509789462]",-11.733433509789464,-11.733433509789462,images/picture_2.png,1,"[11.733433509789462, -11.733433509789466]",11.733433509789462,-11.733433509789464,images/picture_3.png,2,"[-11.733433509789462, 11.733433509789464]",-11.733433509789462,11.733433509789464,0,1,1,1.038980713497232,2.038980713497232,0.9610192865027679,3.0,1,1.788980713497232,0,4.0,3.0,1,2,0,0,0,0,0,7,7,4,,,,,,,167.77959129199735,167.77959129199735,168.79429391699523,169.5800469589958,169.79429974999948,169.79429974999948,169.79429974999948,170.76104179200047,170.76104179200047,170.76104179200047,170.76104179200047,171.76078404199507,200006,006,2023-04-07_11h40.57.304,DMS_et_12-36,2022.2.4,None,
8,PRED,12,1.038980713497232,2,images/picture_3.png,images/picture_1.png,0,"[11.733433509789462, -11.733433509789466]",11.733433509789462,-11.733433509789464,images/picture_2.png,1,"[-11.733433509789462, 11.733433509789464]",-11.733433509789462,11.733433509789464,images/picture_3.png,2,"[-11.733433509789466, -11.733433509789462]",-11.733433509789464,-11.733433509789462,0,1,1,1.038980713497232,2.038980713497232,0.9610192865027679,3.0,1,1.788980713497232,0,4.0,3.0,1,2,0,0,0,0,0,8,8,8,,,,,,,171.76078404199507,171.76078404199507,172.76083287499932,173.5608596250022,173.79443812499812,173.79443812499812,173.79443812499812,174.76084791700123,174.76084791700123,174.76084791700123,174.76084791700123,175.78217887500068,200006,006,2023-04-07_11h40.57.304,DMS_et_12-36,2022.2.4,None,
,,,,,,,,,,,,,,,,,,,,,,,,,,,,,,,,,,,0,0,0,0,,,,,,,,,175.78217887500068,187.8139874999979,,,,,,,,,,,,,200006,006,2023-04-07_11h40.57.304,DMS_et_12-36,2022.2.4,None,
13,UNPRED,12,1.038980713497232,1,images/picture_2.png,images/picture_1.png,0,"[11.733433509789464, 11.733433509789462]",11.733433509789464,11.733433509789462,images/picture_2.png,1,"[11.733433509789462, -11.733433509789466]",11.733433509789462,-11.733433509789464,images/picture_3.png,2,"[-11.733433509789466, -11.733433509789462]",-11.733433509789464,-11.733433509789462,0,1,1,1.038980713497232,2.038980713497232,0.9610192865027679,3.0,1,1.788980713497232,0,4.0,3.0,1,2,1,0,1,0,0,0,0,4,,,,,,,187.8139874999979,187.8139874999979,188.827603042002,189.61369833399658,189.84766370899888,189.84766370899888,189.84766370899888,190.8137193750008,190.8137193750008,190.8137193750008,190.8137193750008,191.8273714589959,200006,006,2023-04-07_11h40.57.304,DMS_et_12-36,2022.2.4,None,
14,UNPRED,12,1.038980713497232,0,images/picture_1.png,images/picture_1.png,0,"[-11.733433509789462, 11.733433509789464]",-11.733433509789462,11.733433509789464,images/picture_2.png,1,"[11.733433509789464, 11.733433509789462]",11.733433509789464,11.733433509789462,images/picture_3.png,2,"[-11.733433509789466, -11.733433509789462]",-11.733433509789464,-11.733433509789462,0,1,1,1.038980713497232,2.038980713497232,0.9610192865027679,3.0,1,1.788980713497232,0,4.0,3.0,1,2,1,0,1,0,0,1,1,5,,,,,,,191.8273714589959,191.8273714589959,192.82747595899855,193.62763995899877,193.86104058400088,193.86104058400088,193.86104058400088,194.82759629200154,194.82759629200154,194.82759629200154,194.82759629200154,195.82724120900093,200006,006,2023-04-07_11h40.57.304,DMS_et_12-36,2022.2.4,None,
15,UNPRED,12,1.038980713497232,1,images/picture_2.png,images/picture_1.png,0,"[11.733433509789464, 11.733433509789462]",11.733433509789464,11.733433509789462,images/picture_2.png,1,"[11.733433509789462, -11.733433509789466]",11.733433509789462,-11.733433509789464,images/picture_3.png,2,"[-11.733433509789466, -11.733433509789462]",-11.733433509789464,-11.733433509789462,0,1,1,1.038980713497232,2.038980713497232,0.9610192865027679,3.0,1,1.788980713497232,0,4.0,3.0,1,2,1,0,1,0,0,2,2,6,,,,,,,195.82724120900093,195.82724120900093,196.82756779199553,197.6275895419967,197.86088020900206,197.86088020900206,197.86088020900206,198.82756345899543,198.82756345899543,198.82756345899543,198.82756345899543,199.82709045899537,200006,006,2023-04-07_11h40.57.304,DMS_et_12-36,2022.2.4,None,
9,UNPRED,12,1.038980713497232,0,images/picture_1.png,images/picture_1.png,0,"[-11.733433509789462, 11.733433509789464]",-11.733433509789462,11.733433509789464,images/picture_2.png,1,"[11.733433509789464, 11.733433509789462]",11.733433509789464,11.733433509789462,images/picture_3.png,2,"[-11.733433509789466, -11.733433509789462]",-11.733433509789464,-11.733433509789462,0,1,1,1.038980713497232,2.038980713497232,0.9610192865027679,3.0,1,1.788980713497232,0,4.0,3.0,1,2,1,0,1,0,0,3,3,0,,,,,,,199.82709045899537,199.82709045899537,200.82759645899932,201.6275317499967,201.8610585839997,201.8610585839997,201.8610585839997,202.82744045899744,202.82744045899744,202.82744045899744,202.82744045899744,203.82748316699872,200006,006,2023-04-07_11h40.57.304,DMS_et_12-36,2022.2.4,None,
17,UNPRED,12,1.038980713497232,1,images/picture_2.png,images/picture_1.png,0,"[-11.733433509789466, -11.733433509789462]",-11.733433509789464,-11.733433509789462,images/picture_2.png,1,"[-11.733433509789462, 11.733433509789464]",-11.733433509789462,11.733433509789464,images/picture_3.png,2,"[11.733433509789462, -11.733433509789466]",11.733433509789462,-11.733433509789464,0,1,1,1.038980713497232,2.038980713497232,0.9610192865027679,3.0,1,1.788980713497232,0,4.0,3.0,1,2,1,0,1,0,0,4,4,8,,,,,,,203.82748316699872,203.82748316699872,204.82756241699826,205.6276052089961,205.861031542001,205.861031542001,205.861031542001,206.82762787499814,206.82762787499814,206.82762787499814,206.82762787499814,207.84630937499605,200006,006,2023-04-07_11h40.57.304,DMS_et_12-36,2022.2.4,None,
16,UNPRED,12,1.038980713497232,2,images/picture_3.png,images/picture_1.png,0,"[-11.733433509789462, 11.733433509789464]",-11.733433509789462,11.733433509789464,images/picture_2.png,1,"[11.733433509789462, -11.733433509789466]",11.733433509789462,-11.733433509789464,images/picture_3.png,2,"[11.733433509789464, 11.733433509789462]",11.733433509789464,11.733433509789462,0,1,1,1.038980713497232,2.038980713497232,0.9610192865027679,3.0,1,1.788980713497232,0,4.0,3.0,1,2,1,0,1,0,0,5,5,7,,,,,,,207.84630937499605,207.84630937499605,208.86106033399847,209.64699166699575,209.8610190420004,209.8610190420004,209.8610190420004,210.82763691699802,210.82763691699802,210.82763691699802,210.82763691699802,211.82715962499788,200006,006,2023-04-07_11h40.57.304,DMS_et_12-36,2022.2.4,None,
10,UNPRED,12,1.038980713497232,1,images/picture_2.png,images/picture_1.png,0,"[11.733433509789464, 11.733433509789462]",11.733433509789464,11.733433509789462,images/picture_2.png,1,"[11.733433509789462, -11.733433509789466]",11.733433509789462,-11.733433509789464,images/picture_3.png,2,"[-11.733433509789462, 11.733433509789464]",-11.733433509789462,11.733433509789464,0,1,1,1.038980713497232,2.038980713497232,0.9610192865027679,3.0,1,1.788980713497232,0,4.0,3.0,1,2,1,0,1,0,0,6,6,1,,,,,,,211.82715962499788,211.82715962499788,212.82748033399548,213.62764041699847,213.8610710840003,213.8610710840003,213.8610710840003,214.82757799999672,214.82757799999672,214.82757799999672,214.82757799999672,215.84626829199988,200006,006,2023-04-07_11h40.57.304,DMS_et_12-36,2022.2.4,None,
11,UNPRED,12,1.038980713497232,2,images/picture_3.png,images/picture_1.png,0,"[-11.733433509789466, -11.733433509789462]",-11.733433509789464,-11.733433509789462,images/picture_2.png,1,"[-11.733433509789462, 11.733433509789464]",-11.733433509789462,11.733433509789464,images/picture_3.png,2,"[11.733433509789462, -11.733433509789466]",11.733433509789462,-11.733433509789464,0,1,1,1.038980713497232,2.038980713497232,0.9610192865027679,3.0,1,1.788980713497232,0,4.0,3.0,1,2,1,0,1,0,0,7,7,2,,,,,,,215.84626829199988,215.84626829199988,216.86097891700047,217.64680012499593,217.86092633399676,217.86092633399676,217.86092633399676,218.8278307090004,218.8278307090004,218.8278307090004,218.8278307090004,219.84656845899735,200006,006,2023-04-07_11h40.57.304,DMS_et_12-36,2022.2.4,None,
12,UNPRED,12,1.038980713497232,2,images/picture_3.png,images/picture_1.png,0,"[11.733433509789462, -11.733433509789466]",11.733433509789462,-11.733433509789464,images/picture_2.png,1,"[11.733433509789464, 11.733433509789462]",11.733433509789464,11.733433509789462,images/picture_3.png,2,"[-11.733433509789466, -11.733433509789462]",-11.733433509789464,-11.733433509789462,0,1,1,1.038980713497232,2.038980713497232,0.9610192865027679,3.0,1,1.788980713497232,0,4.0,3.0,1,2,1,0,1,0,0,8,8,3,,,,,,,219.84656845899735,219.84656845899735,220.8611010839959,221.64702483399742,221.86118420899584,221.86118420899584,221.86118420899584,222.82741295899905,222.82741295899905,222.82741295899905,222.82741295899905,223.86409612499847,200006,006,2023-04-07_11h40.57.304,DMS_et_12-36,2022.2.4,None,
,,,,,,,,,,,,,,,,,,,,,,,,,,,,,,,,,,,1,0,1,0,,,,,,,,,223.86409612499847,235.87902162499813,,,,,,,,,,,,,200006,006,2023-04-07_11h40.57.304,DMS_et_12-36,2022.2.4,None,
21,PRED,12,1.038980713497232,1,images/picture_2.png,images/picture_1.png,0,"[-11.733433509789462, 11.733433509789464]",-11.733433509789462,11.733433509789464,images/picture_2.png,1,"[11.733433509789464, 11.733433509789462]",11.733433509789464,11.733433509789462,images/picture_3.png,2,"[-11.733433509789466, -11.733433509789462]",-11.733433509789464,-11.733433509789462,0,1,1,1.038980713497232,2.038980713497232,0.9610192865027679,3.0,1,1.788980713497232,0,4.0,3.0,1,2,2,0,2,0,0,0,0,3,,,,,,,235.87902162499813,235.87902162499813,236.89435983399744,237.68039916700218,237.9136944589991,237.9136944589991,237.9136944589991,238.8801824589973,238.8801824589973,238.8801824589973,238.8801824589973,239.89413849999983,200006,006,2023-04-07_11h40.57.304,DMS_et_12-36,2022.2.4,None,
18,PRED,12,1.038980713497232,1,images/picture_2.png,images/picture_1.png,0,"[11.733433509789464, 11.733433509789462]",11.733433509789464,11.733433509789462,images/picture_2.png,1,"[-11.733433509789462, 11.733433509789464]",-11.733433509789462,11.733433509789464,images/picture_3.png,2,"[-11.733433509789466, -11.733433509789462]",-11.733433509789464,-11.733433509789462,0,1,1,1.038980713497232,2.038980713497232,0.9610192865027679,3.0,1,1.788980713497232,0,4.0,3.0,1,2,2,0,2,0,0,1,1,0,,,,,,,239.89413849999983,239.89413849999983,240.8943358339966,241.69438145899767,241.9277771249981,241.9277771249981,241.9277771249981,242.89434645899746,242.89434645899746,242.89434645899746,242.89434645899746,243.89410979199602,200006,006,2023-04-07_11h40.57.304,DMS_et_12-36,2022.2.4,None,
24,PRED,12,1.038980713497232,1,images/picture_2.png,images/picture_1.png,0,"[11.733433509789462, -11.733433509789466]",11.733433509789462,-11.733433509789464,images/picture_2.png,1,"[-11.733433509789466, -11.733433509789462]",-11.733433509789464,-11.733433509789462,images/picture_3.png,2,"[-11.733433509789462, 11.733433509789464]",-11.733433509789462,11.733433509789464,0,1,1,1.038980713497232,2.038980713497232,0.9610192865027679,3.0,1,1.788980713497232,0,4.0,3.0,1,2,2,0,2,0,0,2,2,6,,,,,,,243.89410979199602,243.89410979199602,244.8943502089969,245.69441825000104,245.9276720839989,245.9276720839989,245.9276720839989,246.89437208399613,246.89437208399613,246.89437208399613,246.89437208399613,247.89376758399885,200006,006,2023-04-07_11h40.57.304,DMS_et_12-36,2022.2.4,None,
25,PRED,12,1.038980713497232,1,images/picture_2.png,images/picture_1.png,0,"[-11.733433509789462, 11.733433509789464]",-11.733433509789462,11.733433509789464,images/picture_2.png,1,"[11.733433509789464, 11.733433509789462]",11.733433509789464,11.733433509789462,images/picture_3.png,2,"[-11.733433509789466, -11.733433509789462]",-11.733433509789464,-11.733433509789462,0,1,1,1.038980713497232,2.038980713497232,0.9610192865027679,3.0,1,1.788980713497232,0,4.0,3.0,1,2,2,0,2,0,0,3,3,7,,,,,,,247.89376758399885,247.89376758399885,248.8943599589984,249.69433783400018,249.92763116699643,249.92763116699643,249.92763116699643,250.8943087919979,250.8943087919979,250.8943087919979,250.8943087919979,251.89397404199553,200006,006,2023-04-07_11h40.57.304,DMS_et_12-36,2022.2.4,None,
19,PRED,12,1.038980713497232,1,images/picture_2.png,images/picture_1.png,0,"[11.733433509789462, -11.733433509789466]",11.733433509789462,-11.733433509789464,images/picture_2.png,1,"[-11.733433509789462, 11.733433509789464]",-11.733433509789462,11.733433509789464,images/picture_3.png,2,"[-11.733433509789466, -11.733433509789462]",-11.733433509789464,-11.733433509789462,0,1,1,1.038980713497232,2.038980713497232,0.9610192865027679,3.0,1,1.788980713497232,0,4.0,3.0,1,2,2,0,2,0,0,4,4,1,,,,,,,251.89397404199553,251.89397404199553,252.89437449999969,253.69415099999605,253.92747399999644,253.92747399999644,253.92747399999644,254.89438700000028,254.89438700000028,254.89438700000028,254.89438700000028,255.8938343339978,200006,006,2023-04-07_11h40.57.304,DMS_et_12-36,2022.2.4,None,
22,PRED,12,1.038980713497232,1,images/picture_2.png,images/picture_1.png,0,"[-11.733433509789462, 11.733433509789464]",-11.733433509789462,11.733433509789464,images/picture_2.png,1,"[11.733433509789464, 11.733433509789462]",11.733433509789464,11.733433509789462,images/picture_3.png,2,"[-11.733433509789466, -11.733433509789462]",-11.733433509789464,-11.733433509789462,0,1,1,1.038980713497232,2.038980713497232,0.9610192865027679,3.0,1,1.788980713497232,0,4.0,3.0,1,2,2,0,2,0,0,5,5,4,,,,,,,255.8938343339978,255.8938343339978,256.8943359170007,257.6943483750001,257.92770562499936,257.92770562499936,257.92770562499936,258.8943426249971,258.8943426249971,258.8943426249971,258.8943426249971,259.8938149589958,200006,006,2023-04-07_11h40.57.304,DMS_et_12-36,2022.2.4,None,
26,PRED,12,1.038980713497232,1,images/picture_2.png,images/picture_1.png,0,"[-11.733433509789466, -11.733433509789462]",-11.733433509789464,-11.733433509789462,images/picture_2.png,1,"[11.733433509789462, -11.733433509789466]",11.733433509789462,-11.733433509789464,images/picture_3.png,2,"[11.733433509789464, 11.733433509789462]",11.733433509789464,11.733433509789462,0,1,1,1.038980713497232,2.038980713497232,0.9610192865027679,3.0,1,1.788980713497232,0,4.0,3.0,1,2,2,0,2,0,0,6,6,8,,,,,,,259.8938149589958,259.8938149589958,260.89433912499953,261.6943253749996,261.927811208996,261.927811208996,261.927811208996,262.894352958996,262.894352958996,262.894352958996,262.894352958996,263.8941197919994,200006,006,2023-04-07_11h40.57.304,DMS_et_12-36,2022.2.4,None,
23,PRED,12,1.038980713497232,1,images/picture_2.png,images/picture_1.png,0,"[-11.733433509789462, 11.733433509789464]",-11.733433509789462,11.733433509789464,images/picture_2.png,1,"[-11.733433509789466, -11.733433509789462]",-11.733433509789464,-11.733433509789462,images/picture_3.png,2,"[11.733433509789462, -11.733433509789466]",11.733433509789462,-11.733433509789464,0,1,1,1.038980713497232,2.038980713497232,0.9610192865027679,3.0,1,1.788980713497232,0,4.0,3.0,1,2,2,0,2,0,0,7,7,5,,,,,,,263.8941197919994,263.8941197919994,264.8943692920002,265.69434112499584,265.92778720899514,265.92778720899514,265.92778720899514,266.89432308400137,266.89432308400137,266.89432308400137,266.89432308400137,267.8938968750008,200006,006,2023-04-07_11h40.57.304,DMS_et_12-36,2022.2.4,None,
20,PRED,12,1.038980713497232,1,images/picture_2.png,images/picture_1.png,0,"[-11.733433509789466, -11.733433509789462]",-11.733433509789464,-11.733433509789462,images/picture_2.png,1,"[11.733433509789464, 11.733433509789462]",11.733433509789464,11.733433509789462,images/picture_3.png,2,"[-11.733433509789462, 11.733433509789464]",-11.733433509789462,11.733433509789464,0,1,1,1.038980713497232,2.038980713497232,0.9610192865027679,3.0,1,1.788980713497232,0,4.0,3.0,1,2,2,0,2,0,0,8,8,2,,,,,,,267.8938968750008,267.8938968750008,268.89437145899865,269.69429929200123,269.9278927089981,269.9278927089981,269.9278927089981,270.89438150000205,270.89438150000205,270.89438150000205,270.89438150000205,271.9396612089986,200006,006,2023-04-07_11h40.57.304,DMS_et_12-36,2022.2.4,None,
,,,,,,,,,,,,,,,,,,,,,,,,,,,,,,,,,,,2,0,2,0,,,,,,,,,271.9396612089986,283.96272991699516,,,,,,,,,,,,,200006,006,2023-04-07_11h40.57.304,DMS_et_12-36,2022.2.4,None,
33,UNPRED,12,1.038980713497232,0,images/picture_1.png,images/picture_1.png,0,"[11.733433509789464, 11.733433509789462]",11.733433509789464,11.733433509789462,images/picture_2.png,1,"[-11.733433509789466, -11.733433509789462]",-11.733433509789464,-11.733433509789462,images/picture_3.png,2,"[11.733433509789462, -11.733433509789466]",11.733433509789462,-11.733433509789464,0,1,1,1.038980713497232,2.038980713497232,0.9610192865027679,3.0,1,1.788980713497232,0,4.0,3.0,1,2,3,0,3,0,0,0,0,6,,,,,,,283.96272991699516,283.96272991699516,284.96088512500137,285.7611685000011,285.9943416249953,285.9943416249953,285.9943416249953,286.96109499999875,286.96109499999875,286.96109499999875,286.96109499999875,287.960812917001,200006,006,2023-04-07_11h40.57.304,DMS_et_12-36,2022.2.4,None,
34,UNPRED,12,1.038980713497232,0,images/picture_1.png,images/picture_1.png,0,"[-11.733433509789462, 11.733433509789464]",-11.733433509789462,11.733433509789464,images/picture_2.png,1,"[-11.733433509789466, -11.733433509789462]",-11.733433509789464,-11.733433509789462,images/picture_3.png,2,"[11.733433509789462, -11.733433509789466]",11.733433509789462,-11.733433509789464,0,1,1,1.038980713497232,2.038980713497232,0.9610192865027679,3.0,1,1.788980713497232,0,4.0,3.0,1,2,3,0,3,0,0,1,1,7,,,,,,,287.960812917001,287.960812917001,288.96114983400184,289.7611764999965,289.9943146669975,289.9943146669975,289.9943146669975,290.96118141699844,290.96118141699844,290.96118141699844,290.96118141699844,291.9599197089992,200006,006,2023-04-07_11h40.57.304,DMS_et_12-36,2022.2.4,None,
27,UNPRED,12,1.038980713497232,1,images/picture_2.png,images/picture_1.png,0,"[-11.733433509789462, 11.733433509789464]",-11.733433509789462,11.733433509789464,images/picture_2.png,1,"[-11.733433509789466, -11.733433509789462]",-11.733433509789464,-11.733433509789462,images/picture_3.png,2,"[11.733433509789462, -11.733433509789466]",11.733433509789462,-11.733433509789464,0,1,1,1.038980713497232,2.038980713497232,0.9610192865027679,3.0,1,1.788980713497232,0,4.0,3.0,1,2,3,0,3,0,0,2,2,0,,,,,,,291.9599197089992,291.9599197089992,292.9610712499998,293.7611209589959,293.994333249997,293.994333249997,293.994333249997,294.9609952089959,294.9609952089959,294.9609952089959,294.9609952089959,295.9606483339958,200006,006,2023-04-07_11h40.57.304,DMS_et_12-36,2022.2.4,None,
31,UNPRED,12,1.038980713497232,0,images/picture_1.png,images/picture_1.png,0,"[11.733433509789464, 11.733433509789462]",11.733433509789464,11.733433509789462,images/picture_2.png,1,"[-11.733433509789466, -11.733433509789462]",-11.733433509789464,-11.733433509789462,images/picture_3.png,2,"[11.733433509789462, -11.733433509789466]",11.733433509789462,-11.733433509789464,0,1,1,1.038980713497232,2.038980713497232,0.9610192865027679,3.0,1,1.788980713497232,0,4.0,3.0,1,2,3,0,3,0,0,3,3,4,,,,,,,295.9606483339958,295.9606483339958,296.9611253749972,297.7611317089977,297.99459087500145,297.99459087500145,297.99459087500145,298.961057667002,298.961057667002,298.961057667002,298.961057667002,299.9801704999991,200006,006,2023-04-07_11h40.57.304,DMS_et_12-36,2022.2.4,None,
32,UNPRED,12,1.038980713497232,2,images/picture_3.png,images/picture_1.png,0,"[-11.733433509789466, -11.733433509789462]",-11.733433509789464,-11.733433509789462,images/picture_2.png,1,"[11.733433509789462, -11.733433509789466]",11.733433509789462,-11.733433509789464,images/picture_3.png,2,"[-11.733433509789462, 11.733433509789464]",-11.733433509789462,11.733433509789464,0,1,1,1.038980713497232,2.038980713497232,0.9610192865027679,3.0,1,1.788980713497232,0,4.0,3.0,1,2,3,0,3,0,0,4,4,5,,,,,,,299.9801704999991,299.9801704999991,300.99433820899867,301.78069349999714,301.99436779200187,301.99436779200187,301.99436779200187,302.96109366699966,302.96109366699966,302.96109366699966,302.96109366699966,303.9610787499987,200006,006,2023-04-07_11h40.57.304,DMS_et_12-36,2022.2.4,None,
28,UNPRED,12,1.038980713497232,1,images/picture_2.png,images/picture_1.png,0,"[11.733433509789462, -11.733433509789466]",11.733433509789462,-11.733433509789464,images/picture_2.png,1,"[-11.733433509789466, -11.733433509789462]",-11.733433509789464,-11.733433509789462,images/picture_3.png,2,"[-11.733433509789462, 11.733433509789464]",-11.733433509789462,11.733433509789464,0,1,1,1.038980713497232,2.038980713497232,0.9610192865027679,3.0,1,1.788980713497232,0,4.0,3.0,1,2,3,0,3,0,0,5,5,1,,,,,,,303.9610787499987,303.9610787499987,304.96071449999727,305.76072654200107,305.99433475000114,305.99433475000114,305.99433475000114,306.9611014999973,306.9611014999973,306.9611014999973,306.9611014999973,307.97961887499696,200006,006,2023-04-07_11h40.57.304,DMS_et_12-36,2022.2.4,None,
35,UNPRED,12,1.038980713497232,2,images/picture_3.png,images/picture_1.png,0,"[11.733433509789462, -11.733433509789466]",11.733433509789462,-11.733433509789464,images/picture_2.png,1,"[11.733433509789464, 11.733433509789462]",11.733433509789464,11.733433509789462,images/picture_3.png,2,"[-11.733433509789466, -11.733433509789462]",-11.733433509789464,-11.733433509789462,0,1,1,1.038980713497232,2.038980713497232,0.9610192865027679,3.0,1,1.788980713497232,0,4.0,3.0,1,2,3,0,3,0,0,6,6,8,,,,,,,307.97961887499696,307.97961887499696,308.99441591699724,309.7804659999965,309.9943102920006,309.9943102920006,309.9943102920006,310.9611055419955,310.9611055419955,310.9611055419955,310.9611055419955,311.9610357499987,200006,006,2023-04-07_11h40.57.304,DMS_et_12-36,2022.2.4,None,
29,UNPRED,12,1.038980713497232,1,images/picture_2.png,images/picture_1.png,0,"[-11.733433509789462, 11.733433509789464]",-11.733433509789462,11.733433509789464,images/picture_2.png,1,"[-11.733433509789466, -11.733433509789462]",-11.733433509789464,-11.733433509789462,images/picture_3.png,2,"[11.733433509789464, 11.733433509789462]",11.733433509789464,11.733433509789462,0,1,1,1.038980713497232,2.038980713497232,0.9610192865027679,3.0,1,1.788980713497232,0,4.0,3.0,1,2,3,0,3,0,0,7,7,2,,,,,,,311.9610357499987,311.9610357499987,312.96106399999553,313.7610947919966,313.9938273750013,313.9938273750013,313.9938273750013,314.9608214589971,314.9608214589971,314.9608214589971,314.9608214589971,315.96071383399976,200006,006,2023-04-07_11h40.57.304,DMS_et_12-36,2022.2.4,None,
30,UNPRED,12,1.038980713497232,0,images/picture_1.png,images/picture_1.png,0,"[11.733433509789462, -11.733433509789466]",11.733433509789462,-11.733433509789464,images/picture_2.png,1,"[11.733433509789464, 11.733433509789462]",11.733433509789464,11.733433509789462,images/picture_3.png,2,"[-11.733433509789466, -11.733433509789462]",-11.733433509789464,-11.733433509789462,0,1,1,1.038980713497232,2.038980713497232,0.9610192865027679,3.0,1,1.788980713497232,0,4.0,3.0,1,2,3,0,3,0,0,8,8,3,,,,,,,315.96071383399976,315.96071383399976,316.96107474999735,317.76108450000174,317.99437633399793,317.99437633399793,317.99437633399793,318.96105445899593,318.96105445899593,318.96105445899593,318.96105445899593,320.0176020419967,200006,006,2023-04-07_11h40.57.304,DMS_et_12-36,2022.2.4,None,
,,,,,,,,,,,,,,,,,,,,,,,,,,,,,,,,,,,3,0,3,0,,,,,,,,,320.0176020419967,332.04900129199814,,,,,,,,,,,,,200006,006,2023-04-07_11h40.57.304,DMS_et_12-36,2022.2.4,None,
41,PRED,12,1.038980713497232,1,images/picture_2.png,images/picture_1.png,0,"[11.733433509789464, 11.733433509789462]",11.733433509789464,11.733433509789462,images/picture_2.png,1,"[-11.733433509789466, -11.733433509789462]",-11.733433509789464,-11.733433509789462,images/picture_3.png,2,"[11.733433509789462, -11.733433509789466]",11.733433509789462,-11.733433509789464,0,1,1,1.038980713497232,2.038980713497232,0.9610192865027679,3.0,1,1.788980713497232,0,4.0,3.0,1,2,4,0,4,0,0,0,0,5,,,,,,,332.04900129199814,332.04900129199814,333.061122375002,333.84687008400215,334.0806066669975,334.0806066669975,334.0806066669975,335.0473390420011,335.0473390420011,335.0473390420011,335.0473390420011,336.06077508399903,200006,006,2023-04-07_11h40.57.304,DMS_et_12-36,2022.2.4,None,
37,PRED,12,1.038980713497232,1,images/picture_2.png,images/picture_1.png,0,"[11.733433509789464, 11.733433509789462]",11.733433509789464,11.733433509789462,images/picture_2.png,1,"[-11.733433509789462, 11.733433509789464]",-11.733433509789462,11.733433509789464,images/picture_3.png,2,"[11.733433509789462, -11.733433509789466]",11.733433509789462,-11.733433509789464,0,1,1,1.038980713497232,2.038980713497232,0.9610192865027679,3.0,1,1.788980713497232,0,4.0,3.0,1,2,4,0,4,0,0,1,1,1,,,,,,,336.06077508399903,336.06077508399903,337.0611200419953,337.861276292002,338.0943731669977,338.0943731669977,338.0943731669977,339.0611025420003,339.0611025420003,339.0611025420003,339.0611025420003,340.06060266699933,200006,006,2023-04-07_11h40.57.304,DMS_et_12-36,2022.2.4,None,
44,PRED,12,1.038980713497232,1,images/picture_2.png,images/picture_1.png,0,"[-11.733433509789466, -11.733433509789462]",-11.733433509789464,-11.733433509789462,images/picture_2.png,1,"[11.733433509789462, -11.733433509789466]",11.733433509789462,-11.733433509789464,images/picture_3.png,2,"[11.733433509789464, 11.733433509789462]",11.733433509789464,11.733433509789462,0,1,1,1.038980713497232,2.038980713497232,0.9610192865027679,3.0,1,1.788980713497232,0,4.0,3.0,1,2,4,0,4,0,0,2,2,8,,,,,,,340.06060266699933,340.06060266699933,341.06110516699846,341.8611180000007,342.09451320899825,342.09451320899825,342.09451320899825,343.0610891249962,343.0610891249962,343.0610891249962,343.0610891249962,344.06049533400073,200006,006,2023-04-07_11h40.57.304,DMS_et_12-36,2022.2.4,None,
42,PRED,12,1.038980713497232,1,images/picture_2.png,images/picture_1.png,0,"[-11.733433509789462, 11.733433509789464]",-11.733433509789462,11.733433509789464,images/picture_2.png,1,"[11.733433509789464, 11.733433509789462]",11.733433509789464,11.733433509789462,images/picture_3.png,2,"[-11.733433509789466, -11.733433509789462]",-11.733433509789464,-11.733433509789462,0,1,1,1.038980713497232,2.038980713497232,0.9610192865027679,3.0,1,1.788980713497232,0,4.0,3.0,1,2,4,0,4,0,0,3,3,6,,,,,,,344.06049533400073,344.06049533400073,345.06114879199595,345.86074941699917,346.0941227500007,346.0941227500007,346.0941227500007,347.06116604199633,347.06116604199633,347.06116604199633,347.06116604199633,348.06055587499577,200006,006,2023-04-07_11h40.57.304,DMS_et_12-36,2022.2.4,None,
38,PRED,12,1.038980713497232,1,images/picture_2.png,images/picture_1.png,0,"[-11.733433509789466, -11.733433509789462]",-11.733433509789464,-11.733433509789462,images/picture_2.png,1,"[11.733433509789464, 11.733433509789462]",11.733433509789464,11.733433509789462,images/picture_3.png,2,"[11.733433509789462, -11.733433509789466]",11.733433509789462,-11.733433509789464,0,1,1,1.038980713497232,2.038980713497232,0.9610192865027679,3.0,1,1.788980713497232,0,4.0,3.0,1,2,4,0,4,0,0,4,4,2,,,,,,,348.06055587499577,348.06055587499577,349.0610884170019,349.8609117090018,350.09434262500145,350.09434262500145,350.09434262500145,351.06108033399505,351.06108033399505,351.06108033399505,351.06108033399505,352.0600888339977,200006,006,2023-04-07_11h40.57.304,DMS_et_12-36,2022.2.4,None,
40,PRED,12,1.038980713497232,1,images/picture_2.png,images/picture_1.png,0,"[-11.733433509789466, -11.733433509789462]",-11.733433509789464,-11.733433509789462,images/picture_2.png,1,"[11.733433509789464, 11.733433509789462]",11.733433509789464,11.733433509789462,images/picture_3.png,2,"[-11.733433509789462, 11.733433509789464]",-11.733433509789462,11.733433509789464,0,1,1,1.038980713497232,2.038980713497232,0.9610192865027679,3.0,1,1.788980713497232,0,4.0,3.0,1,2,4,0,4,0,0,5,5,4,,,,,,,352.0600888339977,352.0600888339977,353.0610982090002,353.86111779199564,354.09457687499525,354.09457687499525,354.09457687499525,355.0612412499977,355.0612412499977,355.0612412499977,355.0612412499977,356.0609306249971,200006,006,2023-04-07_11h40.57.304,DMS_et_12-36,2022.2.4,None,
36,PRED,12,1.038980713497232,1,images/picture_2.png,images/picture_1.png,0,"[-11.733433509789462, 11.733433509789464]",-11.733433509789462,11.733433509789464,images/picture_2.png,1,"[-11.733433509789466, -11.733433509789462]",-11.733433509789464,-11.733433509789462,images/picture_3.png,2,"[11.733433509789464, 11.733433509789462]",11.733433509789464,11.733433509789462,0,1,1,1.038980713497232,2.038980713497232,0.9610192865027679,3.0,1,1.788980713497232,0,4.0,3.0,1,2,4,0,4,0,0,6,6,0,,,,,,,356.0609306249971,356.0609306249971,357.06093529200007,357.8612525419958,358.0945000840002,358.0945000840002,358.0945000840002,359.06129237500136,359.06129237500136,359.06129237500136,359.06129237500136,360.06085487499513,200006,006,2023-04-07_11h40.57.304,DMS_et_12-36,2022.2.4,None,
43,PRED,12,1.038980713497232,1,images/picture_2.png,images/picture_1.png,0,"[-11.733433509789462, 11.733433509789464]",-11.733433509789462,11.733433509789464,images/picture_2.png,1,"[-11.733433509789466, -11.733433509789462]",-11.733433509789464,-11.733433509789462,images/picture_3.png,2,"[11.733433509789464, 11.733433509789462]",11.733433509789464,11.733433509789462,0,1,1,1.038980713497232,2.038980713497232,0.9610192865027679,3.0,1,1.788980713497232,0,4.0,3.0,1,2,4,0,4,0,0,7,7,7,,,,,,,360.06085487499513,360.06085487499513,361.06112108399975,361.86110254199593,362.0945485839984,362.0945485839984,362.0945485839984,363.0611118340021,363.0611118340021,363.0611118340021,363.0611118340021,364.0606913340016,200006,006,2023-04-07_11h40.57.304,DMS_et_12-36,2022.2.4,None,
39,PRED,12,1.038980713497232,1,images/picture_2.png,images/picture_1.png,0,"[11.733433509789462, -11.733433509789466]",11.733433509789462,-11.733433509789464,images/picture_2.png,1,"[11.733433509789464, 11.733433509789462]",11.733433509789464,11.733433509789462,images/picture_3.png,2,"[-11.733433509789462, 11.733433509789464]",-11.733433509789462,11.733433509789464,0,1,1,1.038980713497232,2.038980713497232,0.9610192865027679,3.0,1,1.788980713497232,0,4.0,3.0,1,2,4,0,4,0,0,8,8,3,,,,,,,364.0606913340016,364.0606913340016,365.0612535839973,365.86113220900006,366.09446745899913,366.09446745899913,366.09446745899913,367.0608939169979,367.0608939169979,367.0608939169979,367.0608939169979,368.1743945420021,200006,006,2023-04-07_11h40.57.304,DMS_et_12-36,2022.2.4,None,
,,,,,,,,,,,,,,,,,,,,,,,,,,,,,,,,,,,4,0,4,0,,,,,,,,,368.1743945420021,380.21075904199824,,,,,,,,,,,,,200006,006,2023-04-07_11h40.57.304,DMS_et_12-36,2022.2.4,None,
53,UNPRED,12,1.038980713497232,2,images/picture_3.png,images/picture_1.png,0,"[-11.733433509789462, 11.733433509789464]",-11.733433509789462,11.733433509789464,images/picture_2.png,1,"[11.733433509789464, 11.733433509789462]",11.733433509789464,11.733433509789462,images/picture_3.png,2,"[-11.733433509789466, -11.733433509789462]",-11.733433509789464,-11.733433509789462,0,1,1,1.038980713497232,2.038980713497232,0.9610192865027679,3.0,1,1.788980713497232,0,4.0,3.0,1,2,5,0,5,0,0,0,0,8,,,,,,,380.21075904199824,380.21075904199824,381.21388354199735,382.0142001669956,382.2276417499961,382.2276417499961,382.2276417499961,383.1945848339965,383.1945848339965,383.1945848339965,383.1945848339965,384.21360308399744,200006,006,2023-04-07_11h40.57.304,DMS_et_12-36,2022.2.4,None,
51,UNPRED,12,1.038980713497232,0,images/picture_1.png,images/picture_1.png,0,"[11.733433509789462, -11.733433509789466]",11.733433509789462,-11.733433509789464,images/picture_2.png,1,"[-11.733433509789462, 11.733433509789464]",-11.733433509789462,11.733433509789464,images/picture_3.png,2,"[-11.733433509789466, -11.733433509789462]",-11.733433509789464,-11.733433509789462,0,1,1,1.038980713497232,2.038980713497232,0.9610192865027679,3.0,1,1.788980713497232,0,4.0,3.0,1,2,5,0,5,0,0,1,1,6,,,,,,,384.21360308399744,384.21360308399744,385.2278942499979,386.01368083399575,386.22781266699894,386.22781266699894,386.22781266699894,387.19433120900067,387.19433120900067,387.19433120900067,387.19433120900067,388.2137890419981,200006,006,2023-04-07_11h40.57.304,DMS_et_12-36,2022.2.4,None,
50,UNPRED,12,1.038980713497232,1,images/picture_2.png,images/picture_1.png,0,"[11.733433509789464, 11.733433509789462]",11.733433509789464,11.733433509789462,images/picture_2.png,1,"[11.733433509789462, -11.733433509789466]",11.733433509789462,-11.733433509789464,images/picture_3.png,2,"[-11.733433509789466, -11.733433509789462]",-11.733433509789464,-11.733433509789462,0,1,1,1.038980713497232,2.038980713497232,0.9610192865027679,3.0,1,1.788980713497232,0,4.0,3.0,1,2,5,0,5,0,0,2,2,5,,,,,,,388.2137890419981,388.2137890419981,389.2278457499997,390.0137495000017,390.22786204199656,390.22786204199656,390.22786204199656,391.19463499999983,391.19463499999983,391.19463499999983,391.19463499999983,392.1939354999995,200006,006,2023-04-07_11h40.57.304,DMS_et_12-36,2022.2.4,None,
49,UNPRED,12,1.038980713497232,1,images/picture_2.png,images/picture_1.png,0,"[-11.733433509789466, -11.733433509789462]",-11.733433509789464,-11.733433509789462,images/picture_2.png,1,"[-11.733433509789462, 11.733433509789464]",-11.733433509789462,11.733433509789464,images/picture_3.png,2,"[11.733433509789462, -11.733433509789466]",11.733433509789462,-11.733433509789464,0,1,1,1.038980713497232,2.038980713497232,0.9610192865027679,3.0,1,1.788980713497232,0,4.0,3.0,1,2,5,0,5,0,0,3,3,4,,,,,,,392.1939354999995,392.1939354999995,393.19457433399657,393.99453829199774,394.2276376250011,394.2276376250011,394.2276376250011,395.1946300839991,395.1946300839991,395.1946300839991,395.1946300839991,396.1940712919968,200006,006,2023-04-07_11h40.57.304,DMS_et_12-36,2022.2.4,None,
48,UNPRED,12,1.038980713497232,0,images/picture_1.png,images/picture_1.png,0,"[11.733433509789462, -11.733433509789466]",11.733433509789462,-11.733433509789464,images/picture_2.png,1,"[-11.733433509789466, -11.733433509789462]",-11.733433509789464,-11.733433509789462,images/picture_3.png,2,"[-11.733433509789462, 11.733433509789464]",-11.733433509789462,11.733433509789464,0,1,1,1.038980713497232,2.038980713497232,0.9610192865027679,3.0,1,1.788980713497232,0,4.0,3.0,1,2,5,0,5,0,0,4,4,3,,,,,,,396.1940712919968,396.1940712919968,397.19435658399743,397.9943111249959,398.22815995899873,398.22815995899873,398.22815995899873,399.19460541699664,399.19460541699664,399.19460541699664,399.19460541699664,400.19398070900206,200006,006,2023-04-07_11h40.57.304,DMS_et_12-36,2022.2.4,None,
46,UNPRED,12,1.038980713497232,0,images/picture_1.png,images/picture_1.png,0,"[-11.733433509789466, -11.733433509789462]",-11.733433509789464,-11.733433509789462,images/picture_2.png,1,"[11.733433509789464, 11.733433509789462]",11.733433509789464,11.733433509789462,images/picture_3.png,2,"[11.733433509789462, -11.733433509789466]",11.733433509789462,-11.733433509789464,0,1,1,1.038980713497232,2.038980713497232,0.9610192865027679,3.0,1,1.788980713497232,0,4.0,3.0,1,2,5,0,5,0,0,5,5,1,,,,,,,400.19398070900206,400.19398070900206,401.1945501250011,401.9945743339995,402.2278403339951,402.2278403339951,402.2278403339951,403.1945927919951,403.1945927919951,403.1945927919951,403.1945927919951,404.21346279200225,200006,006,2023-04-07_11h40.57.304,DMS_et_12-36,2022.2.4,None,
47,UNPRED,12,1.038980713497232,2,images/picture_3.png,images/picture_1.png,0,"[-11.733433509789462, 11.733433509789464]",-11.733433509789462,11.733433509789464,images/picture_2.png,1,"[-11.733433509789466, -11.733433509789462]",-11.733433509789464,-11.733433509789462,images/picture_3.png,2,"[11.733433509789464, 11.733433509789462]",11.733433509789464,11.733433509789462,0,1,1,1.038980713497232,2.038980713497232,0.9610192865027679,3.0,1,1.788980713497232,0,4.0,3.0,1,2,5,0,5,0,0,6,6,2,,,,,,,404.21346279200225,404.21346279200225,405.2278708340018,406.01380116699875,406.22768237499986,406.22768237499986,406.22768237499986,407.19424404199526,407.19424404199526,407.19424404199526,407.19424404199526,408.19427154200093,200006,006,2023-04-07_11h40.57.304,DMS_et_12-36,2022.2.4,None,
52,UNPRED,12,1.038980713497232,0,images/picture_1.png,images/picture_1.png,0,"[-11.733433509789466, -11.733433509789462]",-11.733433509789464,-11.733433509789462,images/picture_2.png,1,"[11.733433509789464, 11.733433509789462]",11.733433509789464,11.733433509789462,images/picture_3.png,2,"[-11.733433509789462, 11.733433509789464]",-11.733433509789462,11.733433509789464,0,1,1,1.038980713497232,2.038980713497232,0.9610192865027679,3.0,1,1.788980713497232,0,4.0,3.0,1,2,5,0,5,0,0,7,7,7,,,,,,,408.19427154200093,408.19427154200093,409.1946308339975,409.994624125,410.22783250000066,410.22783250000066,410.22783250000066,411.1945691669971,411.1945691669971,411.1945691669971,411.1945691669971,412.2130732500009,200006,006,2023-04-07_11h40.57.304,DMS_et_12-36,2022.2.4,None,
45,UNPRED,12,1.038980713497232,2,images/picture_3.png,images/picture_1.png,0,"[-11.733433509789466, -11.733433509789462]",-11.733433509789464,-11.733433509789462,images/picture_2.png,1,"[11.733433509789462, -11.733433509789466]",11.733433509789462,-11.733433509789464,images/picture_3.png,2,"[11.733433509789464, 11.733433509789462]",11.733433509789464,11.733433509789462,0,1,1,1.038980713497232,2.038980713497232,0.9610192865027679,3.0,1,1.788980713497232,0,4.0,3.0,1,2,5,0,5,0,0,8,8,0,,,,,,,412.2130732500009,412.2130732500009,413.2278837920021,414.0137812499961,414.22785045899946,414.22785045899946,414.22785045899946,415.1946937499961,415.1946937499961,415.1946937499961,415.1946937499961,416.264982875,200006,006,2023-04-07_11h40.57.304,DMS_et_12-36,2022.2.4,None,
,,,,,,,,,,,,,,,,,,,,,,,,,,,,,,,,,,,5,0,5,0,,,,,,,,,416.264982875,428.29384245899564,,,,,,,,,,,,,200006,006,2023-04-07_11h40.57.304,DMS_et_12-36,2022.2.4,None,
58,PRED,12,1.038980713497232,2,images/picture_3.png,images/picture_1.png,0,"[-11.733433509789466, -11.733433509789462]",-11.733433509789464,-11.733433509789462,images/picture_2.png,1,"[11.733433509789462, -11.733433509789466]",11.733433509789462,-11.733433509789464,images/picture_3.png,2,"[-11.733433509789462, 11.733433509789464]",-11.733433509789462,11.733433509789464,0,1,1,1.038980713497232,2.038980713497232,0.9610192865027679,3.0,1,1.788980713497232,0,4.0,3.0,1,2,6,0,6,0,0,0,0,4,,,,,,,428.29384245899564,428.29384245899564,429.2949612500015,430.09417637500155,430.32751370900223,430.32751370900223,430.32751370900223,431.29456237499835,431.29456237499835,431.29456237499835,431.2807017919986,432.31354912499955,200006,006,2023-04-07_11h40.57.304,DMS_et_12-36,2022.2.4,None,
57,PRED,12,1.038980713497232,2,images/picture_3.png,images/picture_1.png,0,"[11.733433509789464, 11.733433509789462]",11.733433509789464,11.733433509789462,images/picture_2.png,1,"[11.733433509789462, -11.733433509789466]",11.733433509789462,-11.733433509789464,images/picture_3.png,2,"[-11.733433509789466, -11.733433509789462]",-11.733433509789464,-11.733433509789462,0,1,1,1.038980713497232,2.038980713497232,0.9610192865027679,3.0,1,1.788980713497232,0,4.0,3.0,1,2,6,0,6,0,0,1,1,3,,,,,,,432.31354912499955,432.31354912499955,433.3281053749961,434.11379541699716,434.32776595900214,434.32776595900214,434.32776595900214,435.294584999996,435.294584999996,435.294584999996,435.294584999996,436.31342995900195,200006,006,2023-04-07_11h40.57.304,DMS_et_12-36,2022.2.4,None,
60,PRED,12,1.038980713497232,2,images/picture_3.png,images/picture_1.png,0,"[11.733433509789462, -11.733433509789466]",11.733433509789462,-11.733433509789464,images/picture_2.png,1,"[-11.733433509789462, 11.733433509789464]",-11.733433509789462,11.733433509789464,images/picture_3.png,2,"[11.733433509789464, 11.733433509789462]",11.733433509789464,11.733433509789462,0,1,1,1.038980713497232,2.038980713497232,0.9610192865027679,3.0,1,1.788980713497232,0,4.0,3.0,1,2,6,0,6,0,0,2,2,6,,,,,,,436.31342995900195,436.31342995900195,437.3279571250023,438.11345649999566,438.3278006249966,438.3278006249966,438.3278006249966,439.2946818749988,439.2946818749988,439.2946818749988,439.2946818749988,440.31318879199534,200006,006,2023-04-07_11h40.57.304,DMS_et_12-36,2022.2.4,None,
54,PRED,12,1.038980713497232,2,images/picture_3.png,images/picture_1.png,0,"[-11.733433509789466, -11.733433509789462]",-11.733433509789464,-11.733433509789462,images/picture_2.png,1,"[11.733433509789464, 11.733433509789462]",11.733433509789464,11.733433509789462,images/picture_3.png,2,"[11.733433509789462, -11.733433509789466]",11.733433509789462,-11.733433509789464,0,1,1,1.038980713497232,2.038980713497232,0.9610192865027679,3.0,1,1.788980713497232,0,4.0,3.0,1,2,6,0,6,0,0,3,3,0,,,,,,,440.31318879199534,440.31318879199534,441.32766995899874,442.11300341699825,442.3279876669985,442.3279876669985,442.3279876669985,443.2946264170023,443.2946264170023,443.2946264170023,443.2946264170023,444.3131911669989,200006,006,2023-04-07_11h40.57.304,DMS_et_12-36,2022.2.4,None,
62,PRED,12,1.038980713497232,2,images/picture_3.png,images/picture_1.png,0,"[-11.733433509789466, -11.733433509789462]",-11.733433509789464,-11.733433509789462,images/picture_2.png,1,"[11.733433509789462, -11.733433509789466]",11.733433509789462,-11.733433509789464,images/picture_3.png,2,"[11.733433509789464, 11.733433509789462]",11.733433509789464,11.733433509789462,0,1,1,1.038980713497232,2.038980713497232,0.9610192865027679,3.0,1,1.788980713497232,0,4.0,3.0,1,2,6,0,6,0,0,4,4,8,,,,,,,444.3131911669989,444.3131911669989,445.3278679169962,446.11378541700105,446.3278743749979,446.3278743749979,446.3278743749979,447.29467933400156,447.29467933400156,447.29467933400156,447.29467933400156,448.31366216699826,200006,006,2023-04-07_11h40.57.304,DMS_et_12-36,2022.2.4,None,
59,PRED,12,1.038980713497232,2,images/picture_3.png,images/picture_1.png,0,"[-11.733433509789462, 11.733433509789464]",-11.733433509789462,11.733433509789464,images/picture_2.png,1,"[11.733433509789462, -11.733433509789466]",11.733433509789462,-11.733433509789464,images/picture_3.png,2,"[11.733433509789464, 11.733433509789462]",11.733433509789464,11.733433509789462,0,1,1,1.038980713497232,2.038980713497232,0.9610192865027679,3.0,1,1.788980713497232,0,4.0,3.0,1,2,6,0,6,0,0,5,5,5,,,,,,,448.31366216699826,448.31366216699826,449.3277087499955,450.1136627500018,450.32804045899684,450.32804045899684,450.32804045899684,451.2945934589952,451.2945934589952,451.2945934589952,451.2945934589952,452.31340562499827,200006,006,2023-04-07_11h40.57.304,DMS_et_12-36,2022.2.4,None,
56,PRED,12,1.038980713497232,2,images/picture_3.png,images/picture_1.png,0,"[11.733433509789464, 11.733433509789462]",11.733433509789464,11.733433509789462,images/picture_2.png,1,"[-11.733433509789462, 11.733433509789464]",-11.733433509789462,11.733433509789464,images/picture_3.png,2,"[-11.733433509789466, -11.733433509789462]",-11.733433509789464,-11.733433509789462,0,1,1,1.038980713497232,2.038980713497232,0.9610192865027679,3.0,1,1.788980713497232,0,4.0,3.0,1,2,6,0,6,0,0,6,6,2,,,,,,,452.31340562499827,452.31340562499827,453.3278386250022,454.11379358400154,454.3278682500022,454.3278682500022,454.3278682500022,455.2946134169979,455.2946134169979,455.2946134169979,455.2946134169979,456.31342241699895,200006,006,2023-04-07_11h40.57.304,DMS_et_12-36,2022.2.4,None,
55,PRED,12,1.038980713497232,2,images/picture_3.png,images/picture_1.png,0,"[-11.733433509789462, 11.733433509789464]",-11.733433509789462,11.733433509789464,images/picture_2.png,1,"[11.733433509789462, -11.733433509789466]",11.733433509789462,-11.733433509789464,images/picture_3.png,2,"[-11.733433509789466, -11.733433509789462]",-11.733433509789464,-11.733433509789462,0,1,1,1.038980713497232,2.038980713497232,0.9610192865027679,3.0,1,1.788980713497232,0,4.0,3.0,1,2,6,0,6,0,0,7,7,1,,,,,,,456.31342241699895,456.31342241699895,457.32800341700204,458.1140363750019,458.3279120840016,458.3279120840016,458.3279120840016,459.2943513749997,459.2943513749997,459.2943513749997,459.2943513749997,460.31308875000104,200006,006,2023-04-07_11h40.57.304,DMS_et_12-36,2022.2.4,None,
61,PRED,12,1.038980713497232,2,images/picture_3.png,images/picture_1.png,0,"[-11.733433509789462, 11.733433509789464]",-11.733433509789462,11.733433509789464,images/picture_2.png,1,"[-11.733433509789466, -11.733433509789462]",-11.733433509789464,-11.733433509789462,images/picture_3.png,2,"[11.733433509789462, -11.733433509789466]",11.733433509789462,-11.733433509789464,0,1,1,1.038980713497232,2.038980713497232,0.9610192865027679,3.0,1,1.788980713497232,0,4.0,3.0,1,2,6,0,6,0,0,8,8,7,,,,,,,460.31308875000104,460.31308875000104,461.32803091700043,462.1144271250014,462.32805295899743,462.32805295899743,462.32805295899743,463.29464808399644,463.29464808399644,463.29464808399644,463.29464808399644,464.3773107090019,200006,006,2023-04-07_11h40.57.304,DMS_et_12-36,2022.2.4,None,
,,,,,,,,,,,,,,,,,,,,,,,,,,,,,,,,,,,6,0,6,0,,,,,,,,,464.3773107090019,476.39941066699976,,,,,,,,,,,,,200006,006,2023-04-07_11h40.57.304,DMS_et_12-36,2022.2.4,None,
63,UNPRED,12,1.038980713497232,0,images/picture_1.png,images/picture_1.png,0,"[-11.733433509789462, 11.733433509789464]",-11.733433509789462,11.733433509789464,images/picture_2.png,1,"[11.733433509789462, -11.733433509789466]",11.733433509789462,-11.733433509789464,images/picture_3.png,2,"[11.733433509789464, 11.733433509789462]",11.733433509789464,11.733433509789462,0,1,1,1.038980713497232,2.038980713497232,0.9610192865027679,3.0,1,1.788980713497232,0,4.0,3.0,1,2,7,0,7,0,0,0,0,0,,,,,,,476.39941066699976,476.39941066699976,477.41403308400186,478.19463870899926,478.4281440420018,478.4281440420018,478.4281440420018,479.3943108749954,479.3943108749954,479.3943108749954,479.3943108749954,480.41327066699887,200006,006,2023-04-07_11h40.57.304,DMS_et_12-36,2022.2.4,None,
64,UNPRED,12,1.038980713497232,1,images/picture_2.png,images/picture_1.png,0,"[11.733433509789464, 11.733433509789462]",11.733433509789464,11.733433509789462,images/picture_2.png,1,"[11.733433509789462, -11.733433509789466]",11.733433509789462,-11.733433509789464,images/picture_3.png,2,"[-11.733433509789462, 11.733433509789464]",-11.733433509789462,11.733433509789464,0,1,1,1.038980713497232,2.038980713497232,0.9610192865027679,3.0,1,1.788980713497232,0,4.0,3.0,1,2,7,0,7,0,0,1,1,1,,,,,,,480.41327066699887,480.41327066699887,481.42801654199866,482.2137603750016,482.4281736249977,482.4281736249977,482.4281736249977,483.39462912499584,483.39462912499584,483.39462912499584,483.39462912499584,484.41325058399525,200006,006,2023-04-07_11h40.57.304,DMS_et_12-36,2022.2.4,None,
65,UNPRED,12,1.038980713497232,2,images/picture_3.png,images/picture_1.png,0,"[11.733433509789462, -11.733433509789466]",11.733433509789462,-11.733433509789464,images/picture_2.png,1,"[11.733433509789464, 11.733433509789462]",11.733433509789464,11.733433509789462,images/picture_3.png,2,"[-11.733433509789466, -11.733433509789462]",-11.733433509789464,-11.733433509789462,0,1,1,1.038980713497232,2.038980713497232,0.9610192865027679,3.0,1,1.788980713497232,0,4.0,3.0,1,2,7,0,7,0,0,2,2,2,,,,,,,484.41325058399525,484.41325058399525,485.4280238749998,486.2139420839958,486.42802266700164,486.42802266700164,486.42802266700164,487.39480820899917,487.39480820899917,487.39480820899917,487.39480820899917,488.41404150000017,200006,006,2023-04-07_11h40.57.304,DMS_et_12-36,2022.2.4,None,
67,UNPRED,12,1.038980713497232,2,images/picture_3.png,images/picture_1.png,0,"[-11.733433509789466, -11.733433509789462]",-11.733433509789464,-11.733433509789462,images/picture_2.png,1,"[11.733433509789462, -11.733433509789466]",11.733433509789462,-11.733433509789464,images/picture_3.png,2,"[-11.733433509789462, 11.733433509789464]",-11.733433509789462,11.733433509789464,0,1,1,1.038980713497232,2.038980713497232,0.9610192865027679,3.0,1,1.788980713497232,0,4.0,3.0,1,2,7,0,7,0,0,3,3,4,,,,,,,488.41404150000017,488.41404150000017,489.4278090000007,490.2131590419958,490.4277250419982,490.4277250419982,490.4277250419982,491.39437191699835,491.39437191699835,491.39437191699835,491.39437191699835,492.4132996249973,200006,006,2023-04-07_11h40.57.304,DMS_et_12-36,2022.2.4,None,
69,UNPRED,12,1.038980713497232,2,images/picture_3.png,images/picture_1.png,0,"[-11.733433509789462, 11.733433509789464]",-11.733433509789462,11.733433509789464,images/picture_2.png,1,"[11.733433509789464, 11.733433509789462]",11.733433509789464,11.733433509789462,images/picture_3.png,2,"[-11.733433509789466, -11.733433509789462]",-11.733433509789464,-11.733433509789462,0,1,1,1.038980713497232,2.038980713497232,0.9610192865027679,3.0,1,1.788980713497232,0,4.0,3.0,1,2,7,0,7,0,0,4,4,6,,,,,,,492.4132996249973,492.4132996249973,493.428088749999,494.2128656249988,494.4280719169983,494.4280719169983,494.4280719169983,495.3945754169981,495.3945754169981,495.3945754169981,495.3945754169981,496.39414679200127,200006,006,2023-04-07_11h40.57.304,DMS_et_12-36,2022.2.4,None,
71,UNPRED,12,1.038980713497232,0,images/picture_1.png,images/picture_1.png,0,"[-11.733433509789462, 11.733433509789464]",-11.733433509789462,11.733433509789464,images/picture_2.png,1,"[11.733433509789464, 11.733433509789462]",11.733433509789464,11.733433509789462,images/picture_3.png,2,"[11.733433509789462, -11.733433509789466]",11.733433509789462,-11.733433509789464,0,1,1,1.038980713497232,2.038980713497232,0.9610192865027679,3.0,1,1.788980713497232,0,4.0,3.0,1,2,7,0,7,0,0,5,5,8,,,,,,,496.39414679200127,496.39414679200127,497.3945796670014,498.1948140839959,498.42806566700165,498.42806566700165,498.42806566700165,499.394442124998,499.394442124998,499.394442124998,499.394442124998,500.3943121670018,200006,006,2023-04-07_11h40.57.304,DMS_et_12-36,2022.2.4,None,
66,UNPRED,12,1.038980713497232,1,images/picture_2.png,images/picture_1.png,0,"[11.733433509789464, 11.733433509789462]",11.733433509789464,11.733433509789462,images/picture_2.png,1,"[11.733433509789462, -11.733433509789466]",11.733433509789462,-11.733433509789464,images/picture_3.png,2,"[-11.733433509789462, 11.733433509789464]",-11.733433509789462,11.733433509789464,0,1,1,1.038980713497232,2.038980713497232,0.9610192865027679,3.0,1,1.788980713497232,0,4.0,3.0,1,2,7,0,7,0,0,6,6,3,,,,,,,500.3943121670018,500.3943121670018,501.39460412500193,502.194593041997,502.4280452919993,502.4280452919993,502.4280452919993,503.39477083399834,503.39477083399834,503.39477083399834,503.39477083399834,504.39405666699895,200006,006,2023-04-07_11h40.57.304,DMS_et_12-36,2022.2.4,None,
68,UNPRED,12,1.038980713497232,0,images/picture_1.png,images/picture_1.png,0,"[11.733433509789464, 11.733433509789462]",11.733433509789464,11.733433509789462,images/picture_2.png,1,"[-11.733433509789462, 11.733433509789464]",-11.733433509789462,11.733433509789464,images/picture_3.png,2,"[-11.733433509789466, -11.733433509789462]",-11.733433509789464,-11.733433509789462,0,1,1,1.038980713497232,2.038980713497232,0.9610192865027679,3.0,1,1.788980713497232,0,4.0,3.0,1,2,7,0,7,0,0,7,7,5,,,,,,,504.39405666699895,504.39405666699895,505.394686874999,506.1946626249992,506.4280577499958,506.4280577499958,506.4280577499958,507.39459183399595,507.39459183399595,507.39459183399595,507.39459183399595,508.4130666669953,200006,006,2023-04-07_11h40.57.304,DMS_et_12-36,2022.2.4,None,
70,UNPRED,12,1.038980713497232,2,images/picture_3.png,images/picture_1.png,0,"[-11.733433509789462, 11.733433509789464]",-11.733433509789462,11.733433509789464,images/picture_2.png,1,"[11.733433509789464, 11.733433509789462]",11.733433509789464,11.733433509789462,images/picture_3.png,2,"[11.733433509789462, -11.733433509789466]",11.733433509789462,-11.733433509789464,0,1,1,1.038980713497232,2.038980713497232,0.9610192865027679,3.0,1,1.788980713497232,0,4.0,3.0,1,2,7,0,7,0,0,8,8,7,,,,,,,508.4130666669953,508.4130666669953,509.42778654200083,510.2133084169982,510.42766945900075,510.42766945900075,510.42766945900075,511.3947991249952,511.3947991249952,511.3947991249952,511.3947991249952,512.4836956669969,200006,006,2023-04-07_11h40.57.304,DMS_et_12-36,2022.2.4,None,
,,,,,,,,,,,,,,,,,,,,,,,,,,,,,,,,,,,7,0,7,0,,,,,,,,,512.4836956669969,524.518297208997,,,,,,,,,,,,,200006,006,2023-04-07_11h40.57.304,DMS_et_12-36,2022.2.4,None,
77,PRED,12,1.038980713497232,1,images/picture_2.png,images/picture_1.png,0,"[11.733433509789462, -11.733433509789466]",11.733433509789462,-11.733433509789464,images/picture_2.png,1,"[-11.733433509789462, 11.733433509789464]",-11.733433509789462,11.733433509789464,images/picture_3.png,2,"[-11.733433509789466, -11.733433509789462]",-11.733433509789464,-11.733433509789462,0,1,1,1.038980713497232,2.038980713497232,0.9610192865027679,3.0,1,1.788980713497232,0,4.0,3.0,1,2,8,0,8,0,0,0,0,5,,,,,,,524.518297208997,524.518297208997,525.5282021250023,526.3140764170021,526.561350709002,526.561350709002,526.561350709002,527.5281132090022,527.5281132090022,527.5281132090022,527.513875167002,528.5276427089993,200006,006,2023-04-07_11h40.57.304,DMS_et_12-36,2022.2.4,None,
76,PRED,12,1.038980713497232,1,images/picture_2.png,images/picture_1.png,0,"[-11.733433509789466, -11.733433509789462]",-11.733433509789464,-11.733433509789462,images/picture_2.png,1,"[-11.733433509789462, 11.733433509789464]",-11.733433509789462,11.733433509789464,images/picture_3.png,2,"[11.733433509789462, -11.733433509789466]",11.733433509789462,-11.733433509789464,0,1,1,1.038980713497232,2.038980713497232,0.9610192865027679,3.0,1,1.788980713497232,0,4.0,3.0,1,2,8,0,8,0,0,1,1,4,,,,,,,528.5276427089993,528.5276427089993,529.5280969590021,530.3277799999996,530.5611052919994,530.5611052919994,530.5611052919994,531.5278748339988,531.5278748339988,531.5278748339988,531.5278748339988,532.5274472500023,200006,006,2023-04-07_11h40.57.304,DMS_et_12-36,2022.2.4,None,
80,PRED,12,1.038980713497232,1,images/picture_2.png,images/picture_1.png,0,"[-11.733433509789466, -11.733433509789462]",-11.733433509789464,-11.733433509789462,images/picture_2.png,1,"[-11.733433509789462, 11.733433509789464]",-11.733433509789462,11.733433509789464,images/picture_3.png,2,"[11.733433509789462, -11.733433509789466]",11.733433509789462,-11.733433509789464,0,1,1,1.038980713497232,2.038980713497232,0.9610192865027679,3.0,1,1.788980713497232,0,4.0,3.0,1,2,8,0,8,0,0,2,2,8,,,,,,,532.5274472500023,532.5274472500023,533.5280970000022,534.3280497090018,534.5613325840022,534.5613325840022,534.5613325840022,535.5280443750016,535.5280443750016,535.5280443750016,535.5280443750016,536.5278602499966,200006,006,2023-04-07_11h40.57.304,DMS_et_12-36,2022.2.4,None,
74,PRED,12,1.038980713497232,1,images/picture_2.png,images/picture_1.png,0,"[11.733433509789464, 11.733433509789462]",11.733433509789464,11.733433509789462,images/picture_2.png,1,"[-11.733433509789466, -11.733433509789462]",-11.733433509789464,-11.733433509789462,images/picture_3.png,2,"[-11.733433509789462, 11.733433509789464]",-11.733433509789462,11.733433509789464,0,1,1,1.038980713497232,2.038980713497232,0.9610192865027679,3.0,1,1.788980713497232,0,4.0,3.0,1,2,8,0,8,0,0,3,3,2,,,,,,,536.5278602499966,536.5278602499966,537.528120834002,538.3280263749984,538.5615398750015,538.5615398750015,538.5615398750015,539.5280199589979,539.5280199589979,539.5280199589979,539.5280199589979,540.5274812499993,200006,006,2023-04-07_11h40.57.304,DMS_et_12-36,2022.2.4,None,
73,PRED,12,1.038980713497232,1,images/picture_2.png,images/picture_1.png,0,"[11.733433509789464, 11.733433509789462]",11.733433509789464,11.733433509789462,images/picture_2.png,1,"[-11.733433509789462, 11.733433509789464]",-11.733433509789462,11.733433509789464,images/picture_3.png,2,"[-11.733433509789466, -11.733433509789462]",-11.733433509789464,-11.733433509789462,0,1,1,1.038980713497232,2.038980713497232,0.9610192865027679,3.0,1,1.788980713497232,0,4.0,3.0,1,2,8,0,8,0,0,4,4,1,,,,,,,540.5274812499993,540.5274812499993,541.5277430419956,542.3281197920005,542.5612772089953,542.5612772089953,542.5612772089953,543.5281074590021,543.5281074590021,543.5281074590021,543.5281074590021,544.5274820839986,200006,006,2023-04-07_11h40.57.304,DMS_et_12-36,2022.2.4,None,
72,PRED,12,1.038980713497232,1,images/picture_2.png,images/picture_1.png,0,"[-11.733433509789462, 11.733433509789464]",-11.733433509789462,11.733433509789464,images/picture_2.png,1,"[11.733433509789464, 11.733433509789462]",11.733433509789464,11.733433509789462,images/picture_3.png,2,"[-11.733433509789466, -11.733433509789462]",-11.733433509789464,-11.733433509789462,0,1,1,1.038980713497232,2.038980713497232,0.9610192865027679,3.0,1,1.788980713497232,0,4.0,3.0,1,2,8,0,8,0,0,5,5,0,,,,,,,544.5274820839986,544.5274820839986,545.5280432090003,546.328090666997,546.5613294169962,546.5613294169962,546.5613294169962,547.528085124999,547.528085124999,547.528085124999,547.528085124999,548.5275624999995,200006,006,2023-04-07_11h40.57.304,DMS_et_12-36,2022.2.4,None,
75,PRED,12,1.038980713497232,1,images/picture_2.png,images/picture_1.png,0,"[-11.733433509789462, 11.733433509789464]",-11.733433509789462,11.733433509789464,images/picture_2.png,1,"[-11.733433509789466, -11.733433509789462]",-11.733433509789464,-11.733433509789462,images/picture_3.png,2,"[11.733433509789464, 11.733433509789462]",11.733433509789464,11.733433509789462,0,1,1,1.038980713497232,2.038980713497232,0.9610192865027679,3.0,1,1.788980713497232,0,4.0,3.0,1,2,8,0,8,0,0,6,6,3,,,,,,,548.5275624999995,548.5275624999995,549.5280740000017,550.3278670419968,550.5615305839965,550.5615305839965,550.5615305839965,551.5279403749955,551.5279403749955,551.5279403749955,551.5279403749955,552.5274750839963,200006,006,2023-04-07_11h40.57.304,DMS_et_12-36,2022.2.4,None,
78,PRED,12,1.038980713497232,1,images/picture_2.png,images/picture_1.png,0,"[-11.733433509789466, -11.733433509789462]",-11.733433509789464,-11.733433509789462,images/picture_2.png,1,"[11.733433509789462, -11.733433509789466]",11.733433509789462,-11.733433509789464,images/picture_3.png,2,"[11.733433509789464, 11.733433509789462]",11.733433509789464,11.733433509789462,0,1,1,1.038980713497232,2.038980713497232,0.9610192865027679,3.0,1,1.788980713497232,0,4.0,3.0,1,2,8,0,8,0,0,7,7,6,,,,,,,552.5274750839963,552.5274750839963,553.5280427499965,554.3281809170003,554.5613402500021,554.5613402500021,554.5613402500021,555.5280988750019,555.5280988750019,555.5280988750019,555.5280988750019,556.5275439999969,200006,006,2023-04-07_11h40.57.304,DMS_et_12-36,2022.2.4,None,
79,PRED,12,1.038980713497232,1,images/picture_2.png,images/picture_1.png,0,"[-11.733433509789466, -11.733433509789462]",-11.733433509789464,-11.733433509789462,images/picture_2.png,1,"[-11.733433509789462, 11.733433509789464]",-11.733433509789462,11.733433509789464,images/picture_3.png,2,"[11.733433509789462, -11.733433509789466]",11.733433509789462,-11.733433509789464,0,1,1,1.038980713497232,2.038980713497232,0.9610192865027679,3.0,1,1.788980713497232,0,4.0,3.0,1,2,8,0,8,0,0,8,8,7,,,,,,,556.5275439999969,556.5275439999969,557.5281106249968,558.3280614589967,558.5613314169968,558.5613314169968,558.5613314169968,559.528111874999,559.528111874999,559.528111874999,559.528111874999,560.6301020839965,200006,006,2023-04-07_11h40.57.304,DMS_et_12-36,2022.2.4,None,
,,,,,,,,,,,,,,,,,,,,,,,,,,,,,,,,,,,8,0,8,0,,,,,,,,,560.6301020839965,572.6682567089956,,,,,,,,,,,,,200006,006,2023-04-07_11h40.57.304,DMS_et_12-36,2022.2.4,None,
81,UNPRED,12,1.038980713497232,2,images/picture_3.png,images/picture_1.png,0,"[11.733433509789462, -11.733433509789466]",11.733433509789462,-11.733433509789464,images/picture_2.png,1,"[-11.733433509789466, -11.733433509789462]",-11.733433509789464,-11.733433509789462,images/picture_3.png,2,"[11.733433509789464, 11.733433509789462]",11.733433509789464,11.733433509789462,0,1,1,1.038980713497232,2.038980713497232,0.9610192865027679,3.0,1,1.788980713497232,0,4.0,3.0,1,2,9,0,9,0,0,0,0,0,,,,,,,572.6682567089956,572.6682567089956,573.6807016669991,574.461538042,574.6947973339993,574.6947973339993,574.6947973339993,575.6613436670013,575.6613436670013,575.6613436670013,575.6613436670013,576.661904458997,200006,006,2023-04-07_11h40.57.304,DMS_et_12-36,2022.2.4,None,
88,UNPRED,12,1.038980713497232,0,images/picture_1.png,images/picture_1.png,0,"[11.733433509789464, 11.733433509789462]",11.733433509789464,11.733433509789462,images/picture_2.png,1,"[-11.733433509789466, -11.733433509789462]",-11.733433509789464,-11.733433509789462,images/picture_3.png,2,"[-11.733433509789462, 11.733433509789464]",-11.733433509789462,11.733433509789464,0,1,1,1.038980713497232,2.038980713497232,0.9610192865027679,3.0,1,1.788980713497232,0,4.0,3.0,1,2,9,0,9,0,0,1,1,7,,,,,,,576.661904458997,576.661904458997,577.6613317090014,578.4614131249982,578.694750208997,578.694750208997,578.694750208997,579.6615378749993,579.6615378749993,579.6615378749993,579.6615378749993,580.6612831250022,200006,006,2023-04-07_11h40.57.304,DMS_et_12-36,2022.2.4,None,
82,UNPRED,12,1.038980713497232,0,images/picture_1.png,images/picture_1.png,0,"[11.733433509789464, 11.733433509789462]",11.733433509789464,11.733433509789462,images/picture_2.png,1,"[-11.733433509789462, 11.733433509789464]",-11.733433509789462,11.733433509789464,images/picture_3.png,2,"[11.733433509789462, -11.733433509789466]",11.733433509789462,-11.733433509789464,0,1,1,1.038980713497232,2.038980713497232,0.9610192865027679,3.0,1,1.788980713497232,0,4.0,3.0,1,2,9,0,9,0,0,2,2,1,,,,,,,580.6612831250022,580.6612831250022,581.6614287499979,582.461069459001,582.694763749998,582.694763749998,582.694763749998,583.6615451249963,583.6615451249963,583.6615451249963,583.6615451249963,584.6799544589958,200006,006,2023-04-07_11h40.57.304,DMS_et_12-36,2022.2.4,None,
84,UNPRED,12,1.038980713497232,2,images/picture_3.png,images/picture_1.png,0,"[11.733433509789462, -11.733433509789466]",11.733433509789462,-11.733433509789464,images/picture_2.png,1,"[-11.733433509789462, 11.733433509789464]",-11.733433509789462,11.733433509789464,images/picture_3.png,2,"[-11.733433509789466, -11.733433509789462]",-11.733433509789464,-11.733433509789462,0,1,1,1.038980713497232,2.038980713497232,0.9610192865027679,3.0,1,1.788980713497232,0,4.0,3.0,1,2,9,0,9,0,0,3,3,3,,,,,,,584.6799544589958,584.6799544589958,585.6945848749965,586.4813095419959,586.6948167919982,586.6948167919982,586.6948167919982,587.6615787499977,587.6615787499977,587.6615787499977,587.6615787499977,588.6613807920003,200006,006,2023-04-07_11h40.57.304,DMS_et_12-36,2022.2.4,None,
89,UNPRED,12,1.038980713497232,0,images/picture_1.png,images/picture_1.png,0,"[11.733433509789462, -11.733433509789466]",11.733433509789462,-11.733433509789464,images/picture_2.png,1,"[11.733433509789464, 11.733433509789462]",11.733433509789464,11.733433509789462,images/picture_3.png,2,"[-11.733433509789466, -11.733433509789462]",-11.733433509789464,-11.733433509789462,0,1,1,1.038980713497232,2.038980713497232,0.9610192865027679,3.0,1,1.788980713497232,0,4.0,3.0,1,2,9,0,9,0,0,4,4,8,,,,,,,588.6613807920003,588.6613807920003,589.6613926669961,590.4614424589963,590.6948640420014,590.6948640420014,590.6948640420014,591.6613737500011,591.6613737500011,591.6613737500011,591.6613737500011,592.6612423339975,200006,006,2023-04-07_11h40.57.304,DMS_et_12-36,2022.2.4,None,
85,UNPRED,12,1.038980713497232,1,images/picture_2.png,images/picture_1.png,0,"[-11.733433509789466, -11.733433509789462]",-11.733433509789464,-11.733433509789462,images/picture_2.png,1,"[-11.733433509789462, 11.733433509789464]",-11.733433509789462,11.733433509789464,images/picture_3.png,2,"[11.733433509789462, -11.733433509789466]",11.733433509789462,-11.733433509789464,0,1,1,1.038980713497232,2.038980713497232,0.9610192865027679,3.0,1,1.788980713497232,0,4.0,3.0,1,2,9,0,9,0,0,5,5,4,,,,,,,592.6612423339975,592.6612423339975,593.661520458998,594.4615814999997,594.6948253340015,594.6948253340015,594.6948253340015,595.6615422089963,595.6615422089963,595.6615422089963,595.6615422089963,596.680145792001,200006,006,2023-04-07_11h40.57.304,DMS_et_12-36,2022.2.4,None,
87,UNPRED,12,1.038980713497232,2,images/picture_3.png,images/picture_1.png,0,"[11.733433509789462, -11.733433509789466]",11.733433509789462,-11.733433509789464,images/picture_2.png,1,"[-11.733433509789466, -11.733433509789462]",-11.733433509789464,-11.733433509789462,images/picture_3.png,2,"[-11.733433509789462, 11.733433509789464]",-11.733433509789462,11.733433509789464,0,1,1,1.038980713497232,2.038980713497232,0.9610192865027679,3.0,1,1.788980713497232,0,4.0,3.0,1,2,9,0,9,0,0,6,6,6,,,,,,,596.680145792001,596.680145792001,597.6947858749991,598.4805507919955,598.6948168340023,598.6948168340023,598.6948168340023,599.661397584001,599.661397584001,599.661397584001,599.661397584001,600.6615411250023,200006,006,2023-04-07_11h40.57.304,DMS_et_12-36,2022.2.4,None,
83,UNPRED,12,1.038980713497232,0,images/picture_1.png,images/picture_1.png,0,"[11.733433509789464, 11.733433509789462]",11.733433509789464,11.733433509789462,images/picture_2.png,1,"[-11.733433509789462, 11.733433509789464]",-11.733433509789462,11.733433509789464,images/picture_3.png,2,"[-11.733433509789466, -11.733433509789462]",-11.733433509789464,-11.733433509789462,0,1,1,1.038980713497232,2.038980713497232,0.9610192865027679,3.0,1,1.788980713497232,0,4.0,3.0,1,2,9,0,9,0,0,7,7,2,,,,,,,600.6615411250023,600.6615411250023,601.6615361669974,602.4609690419966,602.694496666998,602.694496666998,602.694496666998,603.6613666670019,603.6613666670019,603.6613666670019,603.6613666670019,604.6608791670005,200006,006,2023-04-07_11h40.57.304,DMS_et_12-36,2022.2.4,None,
86,UNPRED,12,1.038980713497232,1,images/picture_2.png,images/picture_1.png,0,"[-11.733433509789462, 11.733433509789464]",-11.733433509789462,11.733433509789464,images/picture_2.png,1,"[-11.733433509789466, -11.733433509789462]",-11.733433509789464,-11.733433509789462,images/picture_3.png,2,"[11.733433509789462, -11.733433509789466]",11.733433509789462,-11.733433509789464,0,1,1,1.038980713497232,2.038980713497232,0.9610192865027679,3.0,1,1.788980713497232,0,4.0,3.0,1,2,9,0,9,0,0,8,8,5,,,,,,,604.6608791670005,604.6608791670005,605.6616016249973,606.4615539169972,606.6948122089962,606.6948122089962,606.6948122089962,607.6615628750005,607.6615628750005,607.6615628750005,607.6615628750005,608.7662740000014,200006,006,2023-04-07_11h40.57.304,DMS_et_12-36,2022.2.4,None,
,,,,,,,,,,,,,,,,,,,,,,,,,,,,,,,,,,,9,0,9,0,,,,,,,,,608.7662740000014,620.799161666997,,,,,,,,,,,,,200006,006,2023-04-07_11h40.57.304,DMS_et_12-36,2022.2.4,None,
90,PRED,12,1.038980713497232,0,images/picture_1.png,images/picture_1.png,0,"[-11.733433509789466, -11.733433509789462]",-11.733433509789464,-11.733433509789462,images/picture_2.png,1,"[11.733433509789462, -11.733433509789466]",11.733433509789462,-11.733433509789464,images/picture_3.png,2,"[-11.733433509789462, 11.733433509789464]",-11.733433509789462,11.733433509789464,0,1,1,1.038980713497232,2.038980713497232,0.9610192865027679,3.0,1,1.788980713497232,0,4.0,3.0,1,2,10,0,10,0,0,0,0,0,,,,,,,620.799161666997,620.799161666997,621.8139258750016,622.5946006669983,622.8280648750006,622.8280648750006,622.8280648750006,623.7947178339964,623.7947178339964,623.7947178339964,623.7947178339964,624.7942358750006,200006,006,2023-04-07_11h40.57.304,DMS_et_12-36,2022.2.4,None,
98,PRED,12,1.038980713497232,0,images/picture_1.png,images/picture_1.png,0,"[-11.733433509789462, 11.733433509789464]",-11.733433509789462,11.733433509789464,images/picture_2.png,1,"[11.733433509789464, 11.733433509789462]",11.733433509789464,11.733433509789462,images/picture_3.png,2,"[-11.733433509789466, -11.733433509789462]",-11.733433509789464,-11.733433509789462,0,1,1,1.038980713497232,2.038980713497232,0.9610192865027679,3.0,1,1.788980713497232,0,4.0,3.0,1,2,10,0,10,0,0,1,1,8,,,,,,,624.7942358750006,624.7942358750006,625.7948508749978,626.5949162089964,626.8281475839976,626.8281475839976,626.8281475839976,627.794832708998,627.794832708998,627.794832708998,627.794832708998,628.7943075419971,200006,006,2023-04-07_11h40.57.304,DMS_et_12-36,2022.2.4,None,
92,PRED,12,1.038980713497232,0,images/picture_1.png,images/picture_1.png,0,"[-11.733433509789466, -11.733433509789462]",-11.733433509789464,-11.733433509789462,images/picture_2.png,1,"[11.733433509789462, -11.733433509789466]",11.733433509789462,-11.733433509789464,images/picture_3.png,2,"[11.733433509789464, 11.733433509789462]",11.733433509789464,11.733433509789462,0,1,1,1.038980713497232,2.038980713497232,0.9610192865027679,3.0,1,1.788980713497232,0,4.0,3.0,1,2,10,0,10,0,0,2,2,2,,,,,,,628.7943075419971,628.7943075419971,629.7948465840018,630.5949740840006,630.8281375840015,630.8281375840015,630.8281375840015,631.7948851249967,631.7948851249967,631.7948851249967,631.7948851249967,632.7945802089962,200006,006,2023-04-07_11h40.57.304,DMS_et_12-36,2022.2.4,None,
95,PRED,12,1.038980713497232,0,images/picture_1.png,images/picture_1.png,0,"[11.733433509789464, 11.733433509789462]",11.733433509789464,11.733433509789462,images/picture_2.png,1,"[-11.733433509789466, -11.733433509789462]",-11.733433509789464,-11.733433509789462,images/picture_3.png,2,"[11.733433509789462, -11.733433509789466]",11.733433509789462,-11.733433509789464,0,1,1,1.038980713497232,2.038980713497232,0.9610192865027679,3.0,1,1.788980713497232,0,4.0,3.0,1,2,10,0,10,0,0,3,3,5,,,,,,,632.7945802089962,632.7945802089962,633.7944602499992,634.5950334169975,634.8281375000006,634.8281375000006,634.8281375000006,635.7948817500001,635.7948817500001,635.7948817500001,635.7948817500001,636.7944280419979,200006,006,2023-04-07_11h40.57.304,DMS_et_12-36,2022.2.4,None,
91,PRED,12,1.038980713497232,0,images/picture_1.png,images/picture_1.png,0,"[11.733433509789462, -11.733433509789466]",11.733433509789462,-11.733433509789464,images/picture_2.png,1,"[-11.733433509789466, -11.733433509789462]",-11.733433509789464,-11.733433509789462,images/picture_3.png,2,"[-11.733433509789462, 11.733433509789464]",-11.733433509789462,11.733433509789464,0,1,1,1.038980713497232,2.038980713497232,0.9610192865027679,3.0,1,1.788980713497232,0,4.0,3.0,1,2,10,0,10,0,0,4,4,1,,,,,,,636.7944280419979,636.7944280419979,637.7948536249969,638.5949462499993,638.8280853749966,638.8280853749966,638.8280853749966,639.7948939589987,639.7948939589987,639.7948939589987,639.7948939589987,640.7945922090003,200006,006,2023-04-07_11h40.57.304,DMS_et_12-36,2022.2.4,None,
97,PRED,12,1.038980713497232,0,images/picture_1.png,images/picture_1.png,0,"[-11.733433509789466, -11.733433509789462]",-11.733433509789464,-11.733433509789462,images/picture_2.png,1,"[-11.733433509789462, 11.733433509789464]",-11.733433509789462,11.733433509789464,images/picture_3.png,2,"[11.733433509789464, 11.733433509789462]",11.733433509789464,11.733433509789462,0,1,1,1.038980713497232,2.038980713497232,0.9610192865027679,3.0,1,1.788980713497232,0,4.0,3.0,1,2,10,0,10,0,0,5,5,7,,,,,,,640.7945922090003,640.7945922090003,641.7945757499983,642.5948274170005,642.8281312920008,642.8281312920008,642.8281312920008,643.7948516249962,643.7948516249962,643.7948516249962,643.7948516249962,644.7943543750007,200006,006,2023-04-07_11h40.57.304,DMS_et_12-36,2022.2.4,None,
94,PRED,12,1.038980713497232,0,images/picture_1.png,images/picture_1.png,0,"[-11.733433509789462, 11.733433509789464]",-11.733433509789462,11.733433509789464,images/picture_2.png,1,"[11.733433509789462, -11.733433509789466]",11.733433509789462,-11.733433509789464,images/picture_3.png,2,"[11.733433509789464, 11.733433509789462]",11.733433509789464,11.733433509789462,0,1,1,1.038980713497232,2.038980713497232,0.9610192865027679,3.0,1,1.788980713497232,0,4.0,3.0,1,2,10,0,10,0,0,6,6,4,,,,,,,644.7943543750007,644.7943543750007,645.7948348749997,646.5948376250017,646.8280515840015,646.8280515840015,646.8280515840015,647.7948184170018,647.7948184170018,647.7948184170018,647.7948184170018,648.7943213749968,200006,006,2023-04-07_11h40.57.304,DMS_et_12-36,2022.2.4,None,
93,PRED,12,1.038980713497232,0,images/picture_1.png,images/picture_1.png,0,"[11.733433509789464, 11.733433509789462]",11.733433509789464,11.733433509789462,images/picture_2.png,1,"[11.733433509789462, -11.733433509789466]",11.733433509789462,-11.733433509789464,images/picture_3.png,2,"[-11.733433509789466, -11.733433509789462]",-11.733433509789464,-11.733433509789462,0,1,1,1.038980713497232,2.038980713497232,0.9610192865027679,3.0,1,1.788980713497232,0,4.0,3.0,1,2,10,0,10,0,0,7,7,3,,,,,,,648.7943213749968,648.7943213749968,649.7948495839955,650.5948501669991,650.8281447499976,650.8281447499976,650.8281447499976,651.7948617090005,651.7948617090005,651.7948617090005,651.7948617090005,652.7942688339972,200006,006,2023-04-07_11h40.57.304,DMS_et_12-36,2022.2.4,None,
96,PRED,12,1.038980713497232,0,images/picture_1.png,images/picture_1.png,0,"[-11.733433509789462, 11.733433509789464]",-11.733433509789462,11.733433509789464,images/picture_2.png,1,"[11.733433509789464, 11.733433509789462]",11.733433509789464,11.733433509789462,images/picture_3.png,2,"[11.733433509789462, -11.733433509789466]",11.733433509789462,-11.733433509789464,0,1,1,1.038980713497232,2.038980713497232,0.9610192865027679,3.0,1,1.788980713497232,0,4.0,3.0,1,2,10,0,10,0,0,8,8,6,,,,,,,652.7942688339972,652.7942688339972,653.7946185420005,654.5948250000001,654.8282880420011,654.8282880420011,654.8282880420011,655.7948468749964,655.7948468749964,655.7948468749964,655.7948468749964,656.910160374995,200006,006,2023-04-07_11h40.57.304,DMS_et_12-36,2022.2.4,None,
,,,,,,,,,,,,,,,,,,,,,,,,,,,,,,,,,,,10,0,10,0,,,,,,,,,656.910160374995,668.9324257920016,,,,,,,,,,,,,200006,006,2023-04-07_11h40.57.304,DMS_et_12-36,2022.2.4,None,
101,UNPRED,12,1.038980713497232,0,images/picture_1.png,images/picture_1.png,0,"[11.733433509789464, 11.733433509789462]",11.733433509789464,11.733433509789462,images/picture_2.png,1,"[-11.733433509789466, -11.733433509789462]",-11.733433509789464,-11.733433509789462,images/picture_3.png,2,"[-11.733433509789462, 11.733433509789464]",-11.733433509789462,11.733433509789464,0,1,1,1.038980713497232,2.038980713497232,0.9610192865027679,3.0,1,1.788980713497232,0,4.0,3.0,1,2,11,0,11,0,0,0,0,2,,,,,,,668.9324257920016,668.9324257920016,669.9480644169962,670.7283047500023,670.9613131250007,670.9613131250007,670.9613131250007,671.9282828340001,671.9282828340001,671.9282828340001,671.9282828340001,672.946854875001,200006,006,2023-04-07_11h40.57.304,DMS_et_12-36,2022.2.4,None,
99,UNPRED,12,1.038980713497232,2,images/picture_3.png,images/picture_1.png,0,"[11.733433509789464, 11.733433509789462]",11.733433509789464,11.733433509789462,images/picture_2.png,1,"[11.733433509789462, -11.733433509789466]",11.733433509789462,-11.733433509789464,images/picture_3.png,2,"[-11.733433509789462, 11.733433509789464]",-11.733433509789462,11.733433509789464,0,1,1,1.038980713497232,2.038980713497232,0.9610192865027679,3.0,1,1.788980713497232,0,4.0,3.0,1,2,11,0,11,0,0,1,1,0,,,,,,,672.946854875001,672.946854875001,673.9613977920017,674.7466322499968,674.9613377919959,674.9613377919959,674.9613377919959,675.928330374998,675.928330374998,675.928330374998,675.928330374998,676.9468302089954,200006,006,2023-04-07_11h40.57.304,DMS_et_12-36,2022.2.4,None,
106,UNPRED,12,1.038980713497232,2,images/picture_3.png,images/picture_1.png,0,"[-11.733433509789462, 11.733433509789464]",-11.733433509789462,11.733433509789464,images/picture_2.png,1,"[11.733433509789462, -11.733433509789466]",11.733433509789462,-11.733433509789464,images/picture_3.png,2,"[-11.733433509789466, -11.733433509789462]",-11.733433509789464,-11.733433509789462,0,1,1,1.038980713497232,2.038980713497232,0.9610192865027679,3.0,1,1.788980713497232,0,4.0,3.0,1,2,11,0,11,0,0,2,2,7,,,,,,,676.9468302089954,676.9468302089954,677.9615997500005,678.747537999996,678.9615656669994,678.9615656669994,678.9615656669994,679.9281103339963,679.9281103339963,679.9281103339963,679.9281103339963,680.9275039169952,200006,006,2023-04-07_11h40.57.304,DMS_et_12-36,2022.2.4,None,
100,UNPRED,12,1.038980713497232,0,images/picture_1.png,images/picture_1.png,0,"[11.733433509789462, -11.733433509789466]",11.733433509789462,-11.733433509789464,images/picture_2.png,1,"[-11.733433509789462, 11.733433509789464]",-11.733433509789462,11.733433509789464,images/picture_3.png,2,"[11.733433509789464, 11.733433509789462]",11.733433509789464,11.733433509789462,0,1,1,1.038980713497232,2.038980713497232,0.9610192865027679,3.0,1,1.788980713497232,0,4.0,3.0,1,2,11,0,11,0,0,3,3,1,,,,,,,680.9275039169952,680.9275039169952,681.9283962089976,682.728291792002,682.9615677089969,682.9615677089969,682.9615677089969,683.9283719590021,683.9283719590021,683.9283719590021,683.9283719590021,684.9466632920012,200006,006,2023-04-07_11h40.57.304,DMS_et_12-36,2022.2.4,None,
105,UNPRED,12,1.038980713497232,2,images/picture_3.png,images/picture_1.png,0,"[11.733433509789464, 11.733433509789462]",11.733433509789464,11.733433509789462,images/picture_2.png,1,"[-11.733433509789462, 11.733433509789464]",-11.733433509789462,11.733433509789464,images/picture_3.png,2,"[11.733433509789462, -11.733433509789466]",11.733433509789462,-11.733433509789464,0,1,1,1.038980713497232,2.038980713497232,0.9610192865027679,3.0,1,1.788980713497232,0,4.0,3.0,1,2,11,0,11,0,0,4,4,6,,,,,,,684.9466632920012,684.9466632920012,685.9615788750016,686.7476321669965,686.9616459169993,686.9616459169993,686.9616459169993,687.9281875419983,687.9281875419983,687.9281875419983,687.9281875419983,688.9471034999951,200006,006,2023-04-07_11h40.57.304,DMS_et_12-36,2022.2.4,None,
103,UNPRED,12,1.038980713497232,2,images/picture_3.png,images/picture_1.png,0,"[-11.733433509789466, -11.733433509789462]",-11.733433509789464,-11.733433509789462,images/picture_2.png,1,"[11.733433509789462, -11.733433509789466]",11.733433509789462,-11.733433509789464,images/picture_3.png,2,"[-11.733433509789462, 11.733433509789464]",-11.733433509789462,11.733433509789464,0,1,1,1.038980713497232,2.038980713497232,0.9610192865027679,3.0,1,1.788980713497232,0,4.0,3.0,1,2,11,0,11,0,0,5,5,4,,,,,,,688.9471034999951,688.9471034999951,689.9617105419966,690.7475151670005,690.9615634590009,690.9615634590009,690.9615634590009,691.9282611250019,691.9282611250019,691.9282611250019,691.9282611250019,692.9471373749984,200006,006,2023-04-07_11h40.57.304,DMS_et_12-36,2022.2.4,None,
102,UNPRED,12,1.038980713497232,2,images/picture_3.png,images/picture_1.png,0,"[11.733433509789462, -11.733433509789466]",11.733433509789462,-11.733433509789464,images/picture_2.png,1,"[-11.733433509789466, -11.733433509789462]",-11.733433509789464,-11.733433509789462,images/picture_3.png,2,"[-11.733433509789462, 11.733433509789464]",-11.733433509789462,11.733433509789464,0,1,1,1.038980713497232,2.038980713497232,0.9610192865027679,3.0,1,1.788980713497232,0,4.0,3.0,1,2,11,0,11,0,0,6,6,3,,,,,,,692.9471373749984,692.9471373749984,693.9615900419958,694.7469356250003,694.9613845839995,694.9613845839995,694.9613845839995,695.9283702920002,695.9283702920002,695.9283702920002,695.9283702920002,696.9469473339996,200006,006,2023-04-07_11h40.57.304,DMS_et_12-36,2022.2.4,None,
104,UNPRED,12,1.038980713497232,2,images/picture_3.png,images/picture_1.png,0,"[11.733433509789464, 11.733433509789462]",11.733433509789464,11.733433509789462,images/picture_2.png,1,"[-11.733433509789462, 11.733433509789464]",-11.733433509789462,11.733433509789464,images/picture_3.png,2,"[-11.733433509789466, -11.733433509789462]",-11.733433509789464,-11.733433509789462,0,1,1,1.038980713497232,2.038980713497232,0.9610192865027679,3.0,1,1.788980713497232,0,4.0,3.0,1,2,11,0,11,0,0,7,7,5,,,,,,,696.9469473339996,696.9469473339996,697.9615807919981,698.7475534999976,698.9617863339954,698.9617863339954,698.9617863339954,699.928410499997,699.928410499997,699.928410499997,699.928410499997,700.9278444590018,200006,006,2023-04-07_11h40.57.304,DMS_et_12-36,2022.2.4,None,
107,UNPRED,12,1.038980713497232,0,images/picture_1.png,images/picture_1.png,0,"[-11.733433509789466, -11.733433509789462]",-11.733433509789464,-11.733433509789462,images/picture_2.png,1,"[11.733433509789462, -11.733433509789466]",11.733433509789462,-11.733433509789464,images/picture_3.png,2,"[11.733433509789464, 11.733433509789462]",11.733433509789464,11.733433509789462,0,1,1,1.038980713497232,2.038980713497232,0.9610192865027679,3.0,1,1.788980713497232,0,4.0,3.0,1,2,11,0,11,0,0,8,8,8,,,,,,,700.9278444590018,700.9278444590018,701.9283916669956,702.728316708999,702.961613583997,702.961613583997,702.961613583997,703.9282875419958,703.9282875419958,703.9282875419958,703.9282875419958,705.0866224170022,200006,006,2023-04-07_11h40.57.304,DMS_et_12-36,2022.2.4,None,
,,,,,,,,,,,,,,,,,,,,,,,,,,,,,,,,,,,11,0,11,0,,,,,,,,,705.0866224170022,717.2288589999953,,,,,,,,,,,,,200006,006,2023-04-07_11h40.57.304,DMS_et_12-36,2022.2.4,None,
,,,,,,,,,,,,,,,,,,,,,,,,,,,,,,,,,,,,,,,,,,,,,,,717.2288589999953,729.7549014589968,,,,,,,,,,,,,,,,,,,
